key_resp.keys,key_resp.rt,key_resp_14.keys,key_resp_14.rt,key_resp_15.keys,key_resp_15.rt,key_resp_17.keys,key_resp_17.rt,key_resp_9.keys,key_resp_9.rt,key_resp_10.keys,key_resp_10.rt,practice_comparison,Ecc,mouse_5.x,mouse_5.y,mouse_5.leftButton,mouse_5.midButton,mouse_5.rightButton,mouse_5.clicked_name,pracsimilarity,response_time,mouse_10.x,mouse_10.y,mouse_10.leftButton,mouse_10.midButton,mouse_10.rightButton,mouse_10.clicked_name,mouse_7.x,mouse_7.y,mouse_7.leftButton,mouse_7.midButton,mouse_7.rightButton,mouse_6.x,mouse_6.y,mouse_6.leftButton,mouse_6.midButton,mouse_6.rightButton,duringprac.thisRepN,duringprac.thisTrialN,duringprac.thisN,duringprac.thisIndex,duringprac.ran,participant,session,date,expName,psychopyVersion,OS,frameRate,mouse_7.clicked_name,catchpracsimilarity,catch_response_time,catchnumberprac,catchtrialorderprac,mouse_6.clicked_name,key_resp_22.keys,key_resp_22.rt,realcomparison,mouse.x,mouse.y,mouse.leftButton,mouse.midButton,mouse.rightButton,mouse.clicked_name,Colour2,similarity,mouse_2.x,mouse_2.y,mouse_2.leftButton,mouse_2.midButton,mouse_2.rightButton,mouse_2.clicked_name,mouse_3.x,mouse_3.y,mouse_3.leftButton,mouse_3.midButton,mouse_3.rightButton,mouse_11.x,mouse_11.y,mouse_11.leftButton,mouse_11.midButton,mouse_11.rightButton,trials_2.thisRepN,trials_2.thisTrialN,trials_2.thisN,trials_2.thisIndex,trials_2.ran,Colour1,mouse_3.clicked_name,catchornah,catchsimilarity,catchnumber,catchtrialorder,catchRT,mouse_11.clicked_name,,id
space,1.3267,space,0.393,space,0.1833,space,0.3814,space,0.015,space,1.7143,67,FF,88.80001277,43.19996979,1,0,0,response1disk_5,6,2.5122,17.60006053,-2.400006473,1,0,0,rectangle_8,17.60006053,-2.400006473,1,0,0,17.60006053,-2.400006473,1,0,0,0,0,0,3,1,,1,2021-07-05_14h25.45.752,Simcolourproject_2stim_asymm_v5,2020.2.10,Win32,60,,,,,,,,,,,,,,,,,,,,,,,,,,,,,,,,,,,,,,,,,,,,,,,,dominik
,,,,,,,,,,,,154,PF,34.40001196,-49.60000718,1,0,0,response3disk_5,4,1.146,-3.199988604,-6.44E-06,1,0,0,rectangle_8,-41.59998918,-88.00000775,1,0,0,5.600060356,11.99999374,1,0,0,0,1,1,4,1,,1,2021-07-05_14h25.45.752,Simcolourproject_2stim_asymm_v5,2020.2.10,Win32,60,response5disk_7,3,1.5208,3,"[2,5]",rectangle_4,,,,,,,,,,,,,,,,,,,,,,,,,,,,,,,,,,,,,,,,,,
,,,,,,,,,,,,115,PF,44.80001211,-59.20000732,1,0,0,response3disk_5,4,2.1944,5.600060356,-7.200006545,1,0,0,rectangle_8,5.600060356,-7.200006545,1,0,0,5.600060356,-7.200006545,1,0,0,0,2,2,2,1,,1,2021-07-05_14h25.45.752,Simcolourproject_2stim_asymm_v5,2020.2.10,Win32,60,,,,,,,,,,,,,,,,,,,,,,,,,,,,,,,,,,,,,,,,,,,,,,,,
,,,,,,,,,,,,33,PF,48.80001217,59.19997003,1,0,0,response1disk_5,7,2.2155,16.00001168,0.799993575,1,0,0,rectangle_8,16.00001168,0.799993575,1,0,0,16.00001168,0.799993575,1,0,0,0,3,3,6,1,,1,2021-07-05_14h25.45.752,Simcolourproject_2stim_asymm_v5,2020.2.10,Win32,60,,,,,,,,,,,,,,,,,,,,,,,,,,,,,,,,,,,,,,,,,,,,,,,,
,,,,,,,,,,,,48,FF,-59.19998944,-22.40000677,1,0,0,response5disk_5,2,0.9597,-26.39994012,-1.600006461,1,0,0,rectangle_8,-19.19998884,-61.60000736,1,0,0,-3.999988616,-10.40000659,1,0,0,0,4,4,0,1,,1,2021-07-05_14h25.45.752,Simcolourproject_2stim_asymm_v5,2020.2.10,Win32,60,response5disk_7,3,1.0139,3,"[2,5]",rectangle_4,,,,,,,,,,,,,,,,,,,,,,,,,,,,,,,,,,,,,,,,,,
,,,,,,,,,,,,75,FF,-51.19998932,-36.80000699,1,0,0,response5disk_5,2,2.3198,-23.99998891,-6.400006533,1,0,0,rectangle_8,-23.99998891,-6.400006533,1,0,0,-23.99998891,-6.400006533,1,0,0,0,5,5,5,1,,1,2021-07-05_14h25.45.752,Simcolourproject_2stim_asymm_v5,2020.2.10,Win32,60,,,,,,,,,,,,,,,,,,,,,,,,,,,,,,,,,,,,,,,,,,,,,,,,
,,,,,,,,,,,,20,PF,22.40001178,-64.8000074,1,0,0,response3disk_5,4,3.5904,7.200011551,-15.20000666,1,0,0,rectangle_8,7.200011551,-15.20000666,1,0,0,7.200011551,-15.20000666,1,0,0,0,6,6,1,1,,1,2021-07-05_14h25.45.752,Simcolourproject_2stim_asymm_v5,2020.2.10,Win32,60,,,,,,,,,,,,,,,,,,,,,,,,,,,,,,,,,,,,,,,,,,,,,,,,
,,,,,,,,,,,,,FF,,,,,,,,1.7186,,,,,,,,,,,,,,,,,,,,,,,1,2021-07-05_14h25.45.752,Simcolourproject_2stim_asymm_v5,2020.2.10,Win32,60,,,,,,,space,1.9317,1278,16.00001168,-63.20000738,1,0,0,response3disk,,4,12.80001163,-15.20000666,1,0,0,rectangle,12.80001163,-15.20000666,1,0,0,12.80001163,-15.20000666,1,0,0,0,0,0,32,1,,,,,,,,,,
,,,,,,,,,,,,,FF,,,,,,,,1.1462,,,,,,,,,,,,,,,,,,,,,,,1,2021-07-05_14h25.45.752,Simcolourproject_2stim_asymm_v5,2020.2.10,Win32,60,,,,,,,,,2727,-45.59998924,18.39999384,1,0,0,response7disk,,1,-25.59998894,10.39999372,1,0,0,rectangle,-25.59998894,10.39999372,1,0,0,-25.59998894,10.39999372,1,0,0,0,1,1,64,1,,,,,,,,,,
,,,,,,,,,,,,,FF,,,,,,,,1.4235,,,,,,,,,,,,,,,,,,,,,,,1,2021-07-05_14h25.45.752,Simcolourproject_2stim_asymm_v5,2020.2.10,Win32,60,,,,,,,,,616,-33.59998906,21.59999388,1,0,0,response7disk,,1,-10.39993988,7.19999367,1,0,0,rectangle,-10.39993988,7.19999367,1,0,0,-10.39993988,7.19999367,1,0,0,0,2,2,85,1,,,,,,,,,,
,,,,,,,,,,,,,FF,,,,,,,,1.0628,,,,,,,,,,,,,,,,,,,,,,,1,2021-07-05_14h25.45.752,Simcolourproject_2stim_asymm_v5,2020.2.10,Win32,60,,,,,,,,,152,-17.59998882,-47.20000714,1,0,0,response5disk,,3,-19.99998885,-5.600006521,1,0,0,rectangle,-19.99998885,-5.600006521,1,0,0,-19.99998885,-5.600006521,1,0,0,0,3,3,59,1,,,,,,,,,,
,,,,,,,,,,,,,FF,,,,,,,,0.8264,,,,,,,,,,,,,,,,,,,,,,,1,2021-07-05_14h25.45.752,Simcolourproject_2stim_asymm_v5,2020.2.10,Win32,60,,,,,,,,,79,-48.79998928,74.39999467,1,0,0,response7disk,,0,-15.99998879,3.999993622,1,0,0,rectangle,-15.99998879,3.999993622,1,0,0,-15.99998879,3.999993622,1,0,0,0,4,4,98,1,,,,,,,,,,
,,,,,,,,,,,,,FF,,,,,,,,1.299,,,,,,,,,,,,,,,,,,,,,,,1,2021-07-05_14h25.45.752,Simcolourproject_2stim_asymm_v5,2020.2.10,Win32,60,,,,,,,,,2534,-43.99998921,-21.60000676,1,0,0,response5disk,,2,-12.79998875,0.799993575,1,0,0,rectangle,-12.79998875,0.799993575,1,0,0,-12.79998875,0.799993575,1,0,0,0,5,5,10,1,,,,,,,,,,
,,,,,,,,,,,,,FF,,,,,,,,1.6596,,,,,,,,,,,,,,,,,,,,,,,1,2021-07-05_14h25.45.752,Simcolourproject_2stim_asymm_v5,2020.2.10,Win32,60,,,,,,,,,3697,30.4000119,-20.00000674,1,0,0,response3disk,,5,3.200011492,-4.800006509,1,0,0,rectangle,3.200011492,-4.800006509,1,0,0,3.200011492,-4.800006509,1,0,0,0,6,6,47,1,,,,,,,,,,
,,,,,,,,,,,,,FF,,,,,,,,1.3128,,,,,,,,,,,,,,,,,,,,,,,1,2021-07-05_14h25.45.752,Simcolourproject_2stim_asymm_v5,2020.2.10,Win32,60,,,,,,,,,697,19.20001173,-32.80000693,1,0,0,response3disk,,4,5.600060356,-12.00000662,1,0,0,rectangle,5.600060356,-12.00000662,1,0,0,5.600060356,-12.00000662,1,0,0,0,7,7,136,1,,,,,,,,,,
,,,,,,,,,,,,,FF,,,,,,,,1.6118,,,,,,,,,,,,,,,,,,,,,,,1,2021-07-05_14h25.45.752,Simcolourproject_2stim_asymm_v5,2020.2.10,Win32,60,,,,,,,,,1285,23.20001179,-51.2000072,1,0,0,response3disk,,4,9.600060415,-14.40000665,1,0,0,rectangle,9.600060415,-14.40000665,1,0,0,9.600060415,-14.40000665,1,0,0,0,8,8,158,1,,,,,,,,,,
,,,,,,,,,,,,,FF,,,,,,,,1.7153,,,,,,,,,,,,,,,,,,,,,,,1,2021-07-05_14h25.45.752,Simcolourproject_2stim_asymm_v5,2020.2.10,Win32,60,,,,,,,,,2438,59.20001233,20.79999387,1,0,0,response1disk,,6,4.800011516,4.799993634,1,0,0,rectangle,4.800011516,4.799993634,1,0,0,4.800011516,4.799993634,1,0,0,0,9,9,83,1,,,,,,,,,,
,,,,,,,,,,,,,FF,,,,,,,,1.5102,,,,,,,,,,,,,,,,,,,,,,,1,2021-07-05_14h25.45.752,Simcolourproject_2stim_asymm_v5,2020.2.10,Win32,60,,,,,,,,,3693,64.0000124,27.99999398,1,0,0,response1disk,,6,-15.99998879,-0.800006449,1,0,0,rectangle,-15.99998879,-0.800006449,1,0,0,-15.99998879,-0.800006449,1,0,0,0,10,10,108,1,,,,,,,,,,
,,,,,,,,,,,,,FF,,,,,,,,0.9825,,,,,,,,,,,,,,,,,,,,,,,1,2021-07-05_14h25.45.752,Simcolourproject_2stim_asymm_v5,2020.2.10,Win32,60,,,,,,,,,165,-47.99998927,-20.00000674,1,0,0,response5disk,,2,-7.199988663,-1.600006461,1,0,0,rectangle,-7.199988663,-1.600006461,1,0,0,-7.199988663,-1.600006461,1,0,0,0,11,11,152,1,,,,,,,,,,
,,,,,,,,,,,,,FF,,,,,,,,0.715,,,,,,,,,,,,,,,,,,,,,,,1,2021-07-05_14h25.45.752,Simcolourproject_2stim_asymm_v5,2020.2.10,Win32,60,,,,,,,,,3566,-43.1999892,-32.00000691,1,0,0,response5disk,,2,-18.39994,-13.60000664,1,0,0,rectangle,-18.39994,-13.60000664,1,0,0,-18.39994,-13.60000664,1,0,0,0,12,12,88,1,,,,,,,,,,
,,,,,,,,,,,,,FF,,,,,,,,1.8412,,,,,,,,,,,,,,,,,,,,,,,1,2021-07-05_14h25.45.752,Simcolourproject_2stim_asymm_v5,2020.2.10,Win32,60,,,,,,,,,1197,20.00001174,-71.2000075,1,0,0,response3disk,,4,-16.79998881,-13.60000664,1,0,0,rectangle,-16.79998881,-13.60000664,1,0,0,-16.79998881,-13.60000664,1,0,0,0,13,13,74,1,,,,,,,,,,
,,,,,,,,,,,,,FF,,,,,,,,0.8231,,,,,,,,,,,,,,,,,,,,,,,1,2021-07-05_14h25.45.752,Simcolourproject_2stim_asymm_v5,2020.2.10,Win32,60,,,,,,,,,3981,-47.19998926,-56.00000727,1,0,0,response5disk,,3,-18.39994,4.799993634,1,0,0,rectangle,-18.39994,4.799993634,1,0,0,-18.39994,4.799993634,1,0,0,0,14,14,144,1,,,,,,,,,,
,,,,,,,,,,,,,FF,,,,,,,,0.7717,,,,,,,,,,,,,,,,,,,,,,,1,2021-07-05_14h25.45.752,Simcolourproject_2stim_asymm_v5,2020.2.10,Win32,60,,,,,,,,,2894,-51.99998933,28.79999399,1,0,0,response7disk,,1,27.20001185,6.399993658,1,0,0,rectangle,73.60001254,20.79999387,1,0,0,33.60006077,-3.200006485,1,0,0,0,15,15,106,1,,response1disk_3,TRUE,6,6,"[21,309,118,265,116,296,246,55,29,240,62,304,16,177,91,258,185,62,33,136]",1.0969,rectangle,,
,,,,,,,,,,,,,FF,,,,,,,,2.5037,,,,,,,,,,,,,,,,,,,,,,,1,2021-07-05_14h25.45.752,Simcolourproject_2stim_asymm_v5,2020.2.10,Win32,60,,,,,,,,,1373,-26.39994012,-45.60000712,1,0,0,response5disk,,3,-11.99998873,-12.80000663,1,0,0,rectangle,-11.99998873,-12.80000663,1,0,0,-11.99998873,-12.80000663,1,0,0,0,16,16,129,1,,,,,,,,,,
,,,,,,,,,,,,,FF,,,,,,,,0.8815,,,,,,,,,,,,,,,,,,,,,,,1,2021-07-05_14h25.45.752,Simcolourproject_2stim_asymm_v5,2020.2.10,Win32,60,,,,,,,,,2741,48.00001216,26.39999396,1,0,0,response1disk,,6,6.400011539,8.799993694,1,0,0,rectangle,6.400011539,8.799993694,1,0,0,6.400011539,8.799993694,1,0,0,0,17,17,132,1,,,,,,,,,,
,,,,,,,,,,,,,FF,,,,,,,,0.8444,,,,,,,,,,,,,,,,,,,,,,,1,2021-07-05_14h25.45.752,Simcolourproject_2stim_asymm_v5,2020.2.10,Win32,60,,,,,,,,,766,33.60006077,-28.00000685,1,0,0,response3disk,,5,8.000011563,-11.2000066,1,0,0,rectangle,8.000011563,-11.2000066,1,0,0,8.000011563,-11.2000066,1,0,0,0,18,18,36,1,,,,,,,,,,
,,,,,,,,,,,,,FF,,,,,,,,0.8044,,,,,,,,,,,,,,,,,,,,,,,1,2021-07-05_14h25.45.752,Simcolourproject_2stim_asymm_v5,2020.2.10,Win32,60,,,,,,,,,1677,-56.7999894,66.39999455,1,0,0,response7disk,,0,-5.599988639,8.799993694,1,0,0,rectangle,-5.599988639,8.799993694,1,0,0,-5.599988639,8.799993694,1,0,0,0,19,19,55,1,,,,,,,,,,
,,,,,,,,,,,,,FF,,,,,,,,1.2633,,,,,,,,,,,,,,,,,,,,,,,1,2021-07-05_14h25.45.752,Simcolourproject_2stim_asymm_v5,2020.2.10,Win32,60,,,,,,,,,2279,63.20001239,19.99999386,1,0,0,response1disk,,6,12.00001162,3.19999361,1,0,0,rectangle,-35.19998908,-78.40000761,1,0,0,-9.599988699,7.999993682,1,0,0,0,20,20,12,1,,response5disk_3,TRUE,3,3,"[21,309,118,265,116,296,246,55,29,240,62,304,16,177,91,258,185,62,33,136]",1.1005,rectangle,,
,,,,,,,,,,,,,FF,,,,,,,,0.8962,,,,,,,,,,,,,,,,,,,,,,,1,2021-07-05_14h25.45.752,Simcolourproject_2stim_asymm_v5,2020.2.10,Win32,60,,,,,,,,,3185,45.60006095,-34.40000695,1,0,0,response3disk,,5,12.00001162,-16.00000668,1,0,0,rectangle,12.00001162,-16.00000668,1,0,0,12.00001162,-16.00000668,1,0,0,0,21,21,49,1,,,,,,,,,,
,,,,,,,,,,,,,FF,,,,,,,,0.7572,,,,,,,,,,,,,,,,,,,,,,,1,2021-07-05_14h25.45.752,Simcolourproject_2stim_asymm_v5,2020.2.10,Win32,60,,,,,,,,,1916,-36.7999891,-18.40000671,1,0,0,response5disk,,2,-19.99998885,-2.400006473,1,0,0,rectangle,-19.99998885,-2.400006473,1,0,0,-19.99998885,-2.400006473,1,0,0,0,22,22,4,1,,,,,,,,,,
,,,,,,,,,,,,,FF,,,,,,,,1.3335,,,,,,,,,,,,,,,,,,,,,,,1,2021-07-05_14h25.45.752,Simcolourproject_2stim_asymm_v5,2020.2.10,Win32,60,,,,,,,,,1122,-47.19998926,-14.40000665,1,0,0,response5disk,,2,-33.59998906,-2.400006473,1,0,0,rectangle,-33.59998906,-2.400006473,1,0,0,-33.59998906,-2.400006473,1,0,0,0,23,23,139,1,,,,,,,,,,
,,,,,,,,,,,,,FF,,,,,,,,1.0622,,,,,,,,,,,,,,,,,,,,,,,1,2021-07-05_14h25.45.752,Simcolourproject_2stim_asymm_v5,2020.2.10,Win32,60,,,,,,,,,405,28.80001187,-54.40000725,1,0,0,response3disk,,4,-14.39993994,-2.400006473,1,0,0,rectangle,-14.39993994,-2.400006473,1,0,0,-14.39993994,-2.400006473,1,0,0,0,24,24,109,1,,,,,,,,,,
,,,,,,,,,,,,,FF,,,,,,,,1.0411,,,,,,,,,,,,,,,,,,,,,,,1,2021-07-05_14h25.45.752,Simcolourproject_2stim_asymm_v5,2020.2.10,Win32,60,,,,,,,,,3864,-14.39993994,-51.2000072,1,0,0,response5disk,,3,-15.19998878,-7.200006545,1,0,0,rectangle,-15.19998878,-7.200006545,1,0,0,-15.19998878,-7.200006545,1,0,0,0,25,25,137,1,,,,,,,,,,
,,,,,,,,,,,,,FF,,,,,,,,0.6457,,,,,,,,,,,,,,,,,,,,,,,1,2021-07-05_14h25.45.752,Simcolourproject_2stim_asymm_v5,2020.2.10,Win32,60,,,,,,,,,3257,-37.59998912,-27.20000684,1,0,0,response5disk,,2,4.000011504,-4.800006509,1,0,0,rectangle,4.000011504,-4.800006509,1,0,0,4.000011504,-4.800006509,1,0,0,0,26,26,77,1,,,,,,,,,,
,,,,,,,,,,,,,FF,,,,,,,,0.7473,,,,,,,,,,,,,,,,,,,,,,,1,2021-07-05_14h25.45.752,Simcolourproject_2stim_asymm_v5,2020.2.10,Win32,60,,,,,,,,,210,61.60001236,-28.80000687,1,0,0,response3disk,,5,22.40001178,-14.40000665,1,0,0,rectangle,22.40001178,-14.40000665,1,0,0,22.40001178,-14.40000665,1,0,0,0,27,27,123,1,,,,,,,,,,
,,,,,,,,,,,,,FF,,,,,,,,1.3604,,,,,,,,,,,,,,,,,,,,,,,1,2021-07-05_14h25.45.752,Simcolourproject_2stim_asymm_v5,2020.2.10,Win32,60,,,,,,,,,3623,-61.59998947,-21.60000676,1,0,0,response5disk,,2,-32.79998904,7.999993682,1,0,0,rectangle,84.0000127,20.79999387,1,0,0,18.40001172,-11.2000066,1,0,0,0,28,28,110,1,,response1disk_3,TRUE,6,6,"[21,309,118,265,116,296,246,55,29,240,62,304,16,177,91,258,185,62,33,136]",1.0965,rectangle,,
,,,,,,,,,,,,,FF,,,,,,,,0.9554,,,,,,,,,,,,,,,,,,,,,,,1,2021-07-05_14h25.45.752,Simcolourproject_2stim_asymm_v5,2020.2.10,Win32,60,,,,,,,,,1243,-53.59998935,27.99999398,1,0,0,response7disk,,1,-27.99998897,9.599993706,1,0,0,rectangle,-27.99998897,9.599993706,1,0,0,-27.99998897,9.599993706,1,0,0,0,29,29,73,1,,,,,,,,,,
,,,,,,,,,,,,,FF,,,,,,,,0.6521,,,,,,,,,,,,,,,,,,,,,,,1,2021-07-05_14h25.45.752,Simcolourproject_2stim_asymm_v5,2020.2.10,Win32,60,,,,,,,,,1368,-32.79998904,51.99999434,1,0,0,response7disk,,0,-15.99998879,11.19999373,1,0,0,rectangle,-15.99998879,11.19999373,1,0,0,-15.99998879,11.19999373,1,0,0,0,30,30,151,1,,,,,,,,,,
,,,,,,,,,,,,,FF,,,,,,,,1.5135,,,,,,,,,,,,,,,,,,,,,,,1,2021-07-05_14h25.45.752,Simcolourproject_2stim_asymm_v5,2020.2.10,Win32,60,,,,,,,,,2343,17.60006053,-36.00000697,1,0,0,response3disk,,4,3.200011492,-2.400006473,1,0,0,rectangle,3.200011492,-2.400006473,1,0,0,3.200011492,-2.400006473,1,0,0,0,31,31,37,1,,,,,,,,,,
,,,,,,,,,,,,,FF,,,,,,,,0.8819,,,,,,,,,,,,,,,,,,,,,,,1,2021-07-05_14h25.45.752,Simcolourproject_2stim_asymm_v5,2020.2.10,Win32,60,,,,,,,,,2180,37.60006083,-14.40000665,1,0,0,response3disk,,5,37.60006083,-14.40000665,1,0,0,rectangle,58.40001231,16.79999381,1,0,0,28.80001187,2.399993598,1,0,0,0,32,32,105,1,,response1disk_3,TRUE,6,6,"[21,309,118,265,116,296,246,55,29,240,62,304,16,177,91,258,185,62,33,136]",1.4154,rectangle,,
,,,,,,,,,,,,,FF,,,,,,,,0.7425,,,,,,,,,,,,,,,,,,,,,,,1,2021-07-05_14h25.45.752,Simcolourproject_2stim_asymm_v5,2020.2.10,Win32,60,,,,,,,,,2398,35.20001197,53.59999436,1,0,0,response1disk,,7,31.20001191,15.9999938,1,0,0,rectangle,31.20001191,15.9999938,1,0,0,31.20001191,15.9999938,1,0,0,0,33,33,138,1,,,,,,,,,,
,,,,,,,,,,,,,FF,,,,,,,,2.0277,,,,,,,,,,,,,,,,,,,,,,,1,2021-07-05_14h25.45.752,Simcolourproject_2stim_asymm_v5,2020.2.10,Win32,60,,,,,,,,,2399,-37.59998912,18.39999384,1,0,0,response7disk,,1,-19.19998884,11.99999374,1,0,0,rectangle,-19.19998884,11.99999374,1,0,0,-19.19998884,11.99999374,1,0,0,0,34,34,116,1,,,,,,,,,,
,,,,,,,,,,,,,FF,,,,,,,,0.847,,,,,,,,,,,,,,,,,,,,,,,1,2021-07-05_14h25.45.752,Simcolourproject_2stim_asymm_v5,2020.2.10,Win32,60,,,,,,,,,3832,20.00001174,-34.40000695,1,0,0,response3disk,,4,-3.199988604,-6.44E-06,1,0,0,rectangle,-3.199988604,-6.44E-06,1,0,0,-3.199988604,-6.44E-06,1,0,0,0,35,35,128,1,,,,,,,,,,
,,,,,,,,,,,,,FF,,,,,,,,1.1528,,,,,,,,,,,,,,,,,,,,,,,1,2021-07-05_14h25.45.752,Simcolourproject_2stim_asymm_v5,2020.2.10,Win32,60,,,,,,,,,3677,-34.39994024,-28.00000685,1,0,0,response5disk,,2,-11.99998873,-9.60000658,1,0,0,rectangle,-11.99998873,-9.60000658,1,0,0,-11.99998873,-9.60000658,1,0,0,0,36,36,75,1,,,,,,,,,,
,,,,,,,,,,,,,FF,,,,,,,,0.7289,,,,,,,,,,,,,,,,,,,,,,,1,2021-07-05_14h25.45.752,Simcolourproject_2stim_asymm_v5,2020.2.10,Win32,60,,,,,,,,,2320,-53.59998935,16.79999381,1,0,0,response7disk,,1,-14.39993994,7.19999367,1,0,0,rectangle,-14.39993994,7.19999367,1,0,0,-14.39993994,7.19999367,1,0,0,0,37,37,143,1,,,,,,,,,,
,,,,,,,,,,,,,FF,,,,,,,,0.7228,,,,,,,,,,,,,,,,,,,,,,,1,2021-07-05_14h25.45.752,Simcolourproject_2stim_asymm_v5,2020.2.10,Win32,60,,,,,,,,,3465,31.20001191,-24.00000679,1,0,0,response3disk,,5,20.80001175,-8.800006568,1,0,0,rectangle,20.80001175,-8.800006568,1,0,0,20.80001175,-8.800006568,1,0,0,0,38,38,0,1,,,,,,,,,,
,,,,,,,,,,,,,FF,,,,,,,,0.4083,,,,,,,,,,,,,,,,,,,,,,,1,2021-07-05_14h25.45.752,Simcolourproject_2stim_asymm_v5,2020.2.10,Win32,60,,,,,,,,,1283,-24.79998893,-36.00000697,1,0,0,response5disk,,3,-27.99998897,-5.600006521,1,0,0,rectangle,-27.99998897,-5.600006521,1,0,0,-27.99998897,-5.600006521,1,0,0,0,39,39,148,1,,,,,,,,,,
,,,,,,,,,,,,,FF,,,,,,,,1.5769,,,,,,,,,,,,,,,,,,,,,,,1,2021-07-05_14h25.45.752,Simcolourproject_2stim_asymm_v5,2020.2.10,Win32,60,,,,,,,,,1077,-43.1999892,-20.80000675,1,0,0,response5disk,,2,-15.19998878,-9.60000658,1,0,0,rectangle,-15.19998878,-9.60000658,1,0,0,-15.19998878,-9.60000658,1,0,0,0,40,40,119,1,,,,,,,,,,
,,,,,,,,,,,,,FF,,,,,,,,1.0694,,,,,,,,,,,,,,,,,,,,,,,1,2021-07-05_14h25.45.752,Simcolourproject_2stim_asymm_v5,2020.2.10,Win32,60,,,,,,,,,462,-27.99998897,17.59999382,1,0,0,response7disk,,1,3.200011492,-0.800006449,1,0,0,rectangle,3.200011492,-0.800006449,1,0,0,3.200011492,-0.800006449,1,0,0,0,41,41,127,1,,,,,,,,,,
,,,,,,,,,,,,,FF,,,,,,,,0.8684,,,,,,,,,,,,,,,,,,,,,,,1,2021-07-05_14h25.45.752,Simcolourproject_2stim_asymm_v5,2020.2.10,Win32,60,,,,,,,,,939,37.60006083,-36.00000697,1,0,0,response3disk,,5,-16.79998881,1.599993587,1,0,0,rectangle,-16.79998881,1.599993587,1,0,0,-16.79998881,1.599993587,1,0,0,0,42,42,79,1,,,,,,,,,,
,,,,,,,,,,,,,FF,,,,,,,,0.7086,,,,,,,,,,,,,,,,,,,,,,,1,2021-07-05_14h25.45.752,Simcolourproject_2stim_asymm_v5,2020.2.10,Win32,60,,,,,,,,,2062,-33.59998906,-18.40000671,1,0,0,response5disk,,2,-21.59998888,-4.000006497,1,0,0,rectangle,-21.59998888,-4.000006497,1,0,0,-21.59998888,-4.000006497,1,0,0,0,43,43,114,1,,,,,,,,,,
,,,,,,,,,,,,,FF,,,,,,,,0.9098,,,,,,,,,,,,,,,,,,,,,,,1,2021-07-05_14h25.45.752,Simcolourproject_2stim_asymm_v5,2020.2.10,Win32,60,,,,,,,,,242,22.40001178,-33.60000694,1,0,0,response3disk,,4,8.000011563,-11.2000066,1,0,0,rectangle,8.000011563,-11.2000066,1,0,0,8.000011563,-11.2000066,1,0,0,0,44,44,113,1,,,,,,,,,,
,,,,,,,,,,,,,FF,,,,,,,,0.9926,,,,,,,,,,,,,,,,,,,,,,,1,2021-07-05_14h25.45.752,Simcolourproject_2stim_asymm_v5,2020.2.10,Win32,60,,,,,,,,,1977,-59.19998944,-17.6000067,1,0,0,response5disk,,2,-29.599989,-4.000006497,1,0,0,rectangle,-29.599989,-4.000006497,1,0,0,-29.599989,-4.000006497,1,0,0,0,45,45,2,1,,,,,,,,,,
,,,,,,,,,,,,,FF,,,,,,,,2.1527,,,,,,,,,,,,,,,,,,,,,,,1,2021-07-05_14h25.45.752,Simcolourproject_2stim_asymm_v5,2020.2.10,Win32,60,,,,,,,,,269,-15.99998879,-61.60000736,1,0,0,response5disk,,3,-7.199988663,-8.000006557,1,0,0,rectangle,-7.199988663,-8.000006557,1,0,0,-7.199988663,-8.000006557,1,0,0,0,46,46,17,1,,,,,,,,,,
,,,,,,,,,,,,,FF,,,,,,,,1.1742,,,,,,,,,,,,,,,,,,,,,,,1,2021-07-05_14h25.45.752,Simcolourproject_2stim_asymm_v5,2020.2.10,Win32,60,,,,,,,,,3921,-15.99998879,-54.40000725,1,0,0,response5disk,,3,-8.799988687,-9.60000658,1,0,0,rectangle,-8.799988687,-9.60000658,1,0,0,-8.799988687,-9.60000658,1,0,0,0,47,47,115,1,,,,,,,,,,
,,,,,,,,,,,,,FF,,,,,,,,1.2989,,,,,,,,,,,,,,,,,,,,,,,1,2021-07-05_14h25.45.752,Simcolourproject_2stim_asymm_v5,2020.2.10,Win32,60,,,,,,,,,740,-42.39994036,18.39999384,1,0,0,response7disk,,1,-37.59998912,16.79999381,1,0,0,rectangle,-37.59998912,16.79999381,1,0,0,-37.59998912,16.79999381,1,0,0,0,48,48,3,1,,,,,,,,,,
,,,,,,,,,,,,,FF,,,,,,,,1.0625,,,,,,,,,,,,,,,,,,,,,,,1,2021-07-05_14h25.45.752,Simcolourproject_2stim_asymm_v5,2020.2.10,Win32,60,,,,,,,,,3086,24.0000118,-40.00000703,1,0,0,response3disk,,4,0.800011456,-3.200006485,1,0,0,rectangle,0.800011456,-3.200006485,1,0,0,0.800011456,-3.200006485,1,0,0,0,49,49,146,1,,,,,,,,,,
,,,,,,,,,,,,,FF,,,,,,,,1.7572,,,,,,,,,,,,,,,,,,,,,,,1,2021-07-05_14h25.45.752,Simcolourproject_2stim_asymm_v5,2020.2.10,Win32,60,,,,,,,,,1118,29.60006071,-14.40000665,1,0,0,response3disk,,5,29.60006071,-14.40000665,1,0,0,rectangle,29.60006071,-14.40000665,1,0,0,29.60006071,-14.40000665,1,0,0,0,50,50,156,1,,,,,,,,,,
,,,,,,,,,,,,,FF,,,,,,,,0.7008,,,,,,,,,,,,,,,,,,,,,,,1,2021-07-05_14h25.45.752,Simcolourproject_2stim_asymm_v5,2020.2.10,Win32,60,,,,,,,,,1452,-46.39994042,50.39999431,1,0,0,response7disk,,0,-11.99998873,7.999993682,1,0,0,rectangle,-11.99998873,7.999993682,1,0,0,-11.99998873,7.999993682,1,0,0,0,51,51,142,1,,,,,,,,,,
,,,,,,,,,,,,,FF,,,,,,,,0.9064,,,,,,,,,,,,,,,,,,,,,,,1,2021-07-05_14h25.45.752,Simcolourproject_2stim_asymm_v5,2020.2.10,Win32,60,,,,,,,,,3295,-61.59998947,19.19999385,1,0,0,response7disk,,1,-13.59998876,-2.400006473,1,0,0,rectangle,-13.59998876,-2.400006473,1,0,0,-13.59998876,-2.400006473,1,0,0,0,52,52,147,1,,,,,,,,,,
,,,,,,,,,,,,,FF,,,,,,,,0.7779,,,,,,,,,,,,,,,,,,,,,,,1,2021-07-05_14h25.45.752,Simcolourproject_2stim_asymm_v5,2020.2.10,Win32,60,,,,,,,,,1320,-25.59998894,-36.00000697,1,0,0,response5disk,,3,-10.39993988,-7.200006545,1,0,0,rectangle,-10.39993988,-7.200006545,1,0,0,-10.39993988,-7.200006545,1,0,0,0,53,53,44,1,,,,,,,,,,
,,,,,,,,,,,,,FF,,,,,,,,5.1089,,,,,,,,,,,,,,,,,,,,,,,1,2021-07-05_14h25.45.752,Simcolourproject_2stim_asymm_v5,2020.2.10,Win32,60,,,,,,,,,3406,40.80001205,28.79999399,1,0,0,response1disk,,6,-7.199988663,7.999993682,1,0,0,rectangle,-51.19998932,-72.80000752,1,0,0,14.40001166,-5.600006521,1,0,0,0,54,54,124,1,,response5disk_3,TRUE,3,3,"[21,309,118,265,116,296,246,55,29,240,62,304,16,177,91,258,185,62,33,136]",9.6828,rectangle,,
,,,,,,,,,,,,,FF,,,,,,,,0.8821,,,,,,,,,,,,,,,,,,,,,,,1,2021-07-05_14h25.45.752,Simcolourproject_2stim_asymm_v5,2020.2.10,Win32,60,,,,,,,,,2288,-55.19998938,-31.2000069,1,0,0,response5disk,,2,10.4000116,7.999993682,1,0,0,rectangle,10.4000116,7.999993682,1,0,0,10.4000116,7.999993682,1,0,0,0,55,55,103,1,,,,,,,,,,
,,,,,,,,,,,,,FF,,,,,,,,0.6945,,,,,,,,,,,,,,,,,,,,,,,1,2021-07-05_14h25.45.752,Simcolourproject_2stim_asymm_v5,2020.2.10,Win32,60,,,,,,,,,1290,-51.19998932,73.59999466,1,0,0,response7disk,,0,-7.199988663,7.19999367,1,0,0,rectangle,-7.199988663,7.19999367,1,0,0,-7.199988663,7.19999367,1,0,0,0,56,56,125,1,,,,,,,,,,
,,,,,,,,,,,,,FF,,,,,,,,0.5045,,,,,,,,,,,,,,,,,,,,,,,1,2021-07-05_14h25.45.752,Simcolourproject_2stim_asymm_v5,2020.2.10,Win32,60,,,,,,,,,4107,-53.59998935,25.59999394,1,0,0,response7disk,,1,-7.999988675,0.799993575,1,0,0,rectangle,-7.999988675,0.799993575,1,0,0,-7.999988675,0.799993575,1,0,0,0,57,57,35,1,,,,,,,,,,
,,,,,,,,,,,,,FF,,,,,,,,0.4031,,,,,,,,,,,,,,,,,,,,,,,1,2021-07-05_14h25.45.752,Simcolourproject_2stim_asymm_v5,2020.2.10,Win32,60,,,,,,,,,1036,-38.3999403,-32.80000693,1,0,0,response5disk,,2,-23.99998891,-7.200006545,1,0,0,rectangle,-23.99998891,-7.200006545,1,0,0,-23.99998891,-7.200006545,1,0,0,0,58,58,102,1,,,,,,,,,,
,,,,,,,,,,,,,FF,,,,,,,,0.4557,,,,,,,,,,,,,,,,,,,,,,,1,2021-07-05_14h25.45.752,Simcolourproject_2stim_asymm_v5,2020.2.10,Win32,60,,,,,,,,,555,-30.39994018,-52.00000721,1,0,0,response5disk,,3,-7.999988675,3.999993622,1,0,0,rectangle,-7.999988675,3.999993622,1,0,0,-7.999988675,3.999993622,1,0,0,0,59,59,60,1,,,,,,,,,,
,,,,,,,,,,,,,FF,,,,,,,,0.6495,,,,,,,,,,,,,,,,,,,,,,,1,2021-07-05_14h25.45.752,Simcolourproject_2stim_asymm_v5,2020.2.10,Win32,60,,,,,,,,,1508,27.20001185,-33.60000694,1,0,0,response3disk,,4,15.20001167,4.799993634,1,0,0,rectangle,15.20001167,4.799993634,1,0,0,15.20001167,4.799993634,1,0,0,0,60,60,42,1,,,,,,,,,,
,,,,,,,,,,,,,FF,,,,,,,,1.5644,,,,,,,,,,,,,,,,,,,,,,,1,2021-07-05_14h25.45.752,Simcolourproject_2stim_asymm_v5,2020.2.10,Win32,60,,,,,,,,,1648,21.60006059,54.39999437,1,0,0,response1disk,,7,13.60006047,-4.000006497,1,0,0,rectangle,55.20001227,22.3999939,1,0,0,30.4000119,-8.000006557,1,0,0,0,61,61,16,1,,response1disk_3,TRUE,6,6,"[21,309,118,265,116,296,246,55,29,240,62,304,16,177,91,258,185,62,33,136]",1.0961,rectangle,,
,,,,,,,,,,,,,FF,,,,,,,,0.9863,,,,,,,,,,,,,,,,,,,,,,,1,2021-07-05_14h25.45.752,Simcolourproject_2stim_asymm_v5,2020.2.10,Win32,60,,,,,,,,,4323,51.20001221,-24.00000679,1,0,0,response3disk,,5,19.20001173,-7.200006545,1,0,0,rectangle,19.20001173,-7.200006545,1,0,0,19.20001173,-7.200006545,1,0,0,0,62,62,126,1,,,,,,,,,,
,,,,,,,,,,,,,FF,,,,,,,,0.5943,,,,,,,,,,,,,,,,,,,,,,,1,2021-07-05_14h25.45.752,Simcolourproject_2stim_asymm_v5,2020.2.10,Win32,60,,,,,,,,,3381,-77.59998971,91.19997051,1,0,0,response7disk,,0,12.00001162,-5.600006521,1,0,0,rectangle,12.00001162,-5.600006521,1,0,0,12.00001162,-5.600006521,1,0,0,0,63,63,87,1,,,,,,,,,,
,,,,,,,,,,,,,FF,,,,,,,,0.4725,,,,,,,,,,,,,,,,,,,,,,,1,2021-07-05_14h25.45.752,Simcolourproject_2stim_asymm_v5,2020.2.10,Win32,60,,,,,,,,,2524,-95.19998997,33.59999406,1,0,0,response7disk,,1,8.800011575,-9.60000658,1,0,0,rectangle,8.800011575,-9.60000658,1,0,0,8.800011575,-9.60000658,1,0,0,0,64,64,22,1,,,,,,,,,,
,,,,,,,,,,,,,FF,,,,,,,,0.3679,,,,,,,,,,,,,,,,,,,,,,,1,2021-07-05_14h25.45.752,Simcolourproject_2stim_asymm_v5,2020.2.10,Win32,60,,,,,,,,,2846,-30.39994018,-28.80000687,1,0,0,response5disk,,2,-15.99998879,-6.400006533,1,0,0,rectangle,-15.99998879,-6.400006533,1,0,0,-15.99998879,-6.400006533,1,0,0,0,65,65,121,1,,,,,,,,,,
,,,,,,,,,,,,,FF,,,,,,,,0.3963,,,,,,,,,,,,,,,,,,,,,,,1,2021-07-05_14h25.45.752,Simcolourproject_2stim_asymm_v5,2020.2.10,Win32,60,,,,,,,,,1695,60.00001234,-29.60000688,1,0,0,response3disk,,5,8.800011575,2.399993598,1,0,0,rectangle,8.800011575,2.399993598,1,0,0,8.800011575,2.399993598,1,0,0,0,66,66,15,1,,,,,,,,,,
,,,,,,,,,,,,,FF,,,,,,,,1.3547,,,,,,,,,,,,,,,,,,,,,,,1,2021-07-05_14h25.45.752,Simcolourproject_2stim_asymm_v5,2020.2.10,Win32,60,,,,,,,,,4217,32.80001193,60.79999447,1,0,0,response1disk,,7,8.800011575,-4.800006509,1,0,0,rectangle,8.800011575,-4.800006509,1,0,0,8.800011575,-4.800006509,1,0,0,0,67,67,26,1,,,,,,,,,,
,,,,,,,,,,,,,FF,,,,,,,,0.7708,,,,,,,,,,,,,,,,,,,,,,,1,2021-07-05_14h25.45.752,Simcolourproject_2stim_asymm_v5,2020.2.10,Win32,60,,,,,,,,,3493,-68.79998958,31.99999404,1,0,0,response7disk,,1,-3.999988616,-5.600006521,1,0,0,rectangle,-3.999988616,-5.600006521,1,0,0,-3.999988616,-5.600006521,1,0,0,0,68,68,140,1,,,,,,,,,,
,,,,,,,,,,,,,FF,,,,,,,,0.4441,,,,,,,,,,,,,,,,,,,,,,,1,2021-07-05_14h25.45.752,Simcolourproject_2stim_asymm_v5,2020.2.10,Win32,60,,,,,,,,,1588,63.20001239,27.19996955,1,0,0,response1disk,,6,2.40001148,-7.200006545,1,0,0,rectangle,2.40001148,-7.200006545,1,0,0,2.40001148,-7.200006545,1,0,0,0,69,69,95,1,,,,,,,,,,
,,,,,,,,,,,,,FF,,,,,,,,1.7776,,,,,,,,,,,,,,,,,,,,,,,1,2021-07-05_14h25.45.752,Simcolourproject_2stim_asymm_v5,2020.2.10,Win32,60,,,,,,,,,1944,-23.99998891,-56.80000728,1,0,0,response5disk,,3,-24.79998893,-6.44E-06,1,0,0,rectangle,-24.79998893,-6.44E-06,1,0,0,-24.79998893,-6.44E-06,1,0,0,0,70,70,117,1,,,,,,,,,,
,,,,,,,,,,,,,FF,,,,,,,,0.6253,,,,,,,,,,,,,,,,,,,,,,,1,2021-07-05_14h25.45.752,Simcolourproject_2stim_asymm_v5,2020.2.10,Win32,60,,,,,,,,,1743,-44.79998922,76.79999471,1,0,0,response7disk,,0,-3.999988616,-5.600006521,1,0,0,rectangle,-3.999988616,-5.600006521,1,0,0,-3.999988616,-5.600006521,1,0,0,0,71,71,58,1,,,,,,,,,,
,,,,,,,,,,,,,FF,,,,,,,,1.5347,,,,,,,,,,,,,,,,,,,,,,,1,2021-07-05_14h25.45.752,Simcolourproject_2stim_asymm_v5,2020.2.10,Win32,60,,,,,,,,,3805,20.80001175,-38.40000701,1,0,0,response3disk,,4,6.400011539,-8.800006568,1,0,0,rectangle,6.400011539,-8.800006568,1,0,0,6.400011539,-8.800006568,1,0,0,0,72,72,153,1,,,,,,,,,,
,,,,,,,,,,,,,FF,,,,,,,,2.4793,,,,,,,,,,,,,,,,,,,,,,,1,2021-07-05_14h25.45.752,Simcolourproject_2stim_asymm_v5,2020.2.10,Win32,60,,,,,,,,,3871,39.20001203,-29.60000688,1,0,0,response3disk,,5,10.4000116,-12.80000663,1,0,0,rectangle,10.4000116,-12.80000663,1,0,0,10.4000116,-12.80000663,1,0,0,0,73,73,130,1,,,,,,,,,,
,,,,,,,,,,,,,FF,,,,,,,,0.9516,,,,,,,,,,,,,,,,,,,,,,,1,2021-07-05_14h25.45.752,Simcolourproject_2stim_asymm_v5,2020.2.10,Win32,60,,,,,,,,,228,-28.79998899,-47.20000714,1,0,0,response5disk,,3,-14.39993994,9.599993706,1,0,0,rectangle,-14.39993994,9.599993706,1,0,0,-14.39993994,9.599993706,1,0,0,0,74,74,53,1,,,,,,,,,,
,,,,,,,,,,,,,FF,,,,,,,,1.2254,,,,,,,,,,,,,,,,,,,,,,,1,2021-07-05_14h25.45.752,Simcolourproject_2stim_asymm_v5,2020.2.10,Win32,60,,,,,,,,,3139,-53.59998935,-16.80000669,1,0,0,response5disk,,2,-34.39994024,2.399993598,1,0,0,rectangle,-34.39994024,2.399993598,1,0,0,-34.39994024,2.399993598,1,0,0,0,75,75,67,1,,,,,,,,,,
,,,,,,,,,,,,,FF,,,,,,,,0.8196,,,,,,,,,,,,,,,,,,,,,,,1,2021-07-05_14h25.45.752,Simcolourproject_2stim_asymm_v5,2020.2.10,Win32,60,,,,,,,,,604,28.80001187,-59.20000732,1,0,0,response3disk,,4,-13.59998876,-6.400006533,1,0,0,rectangle,-13.59998876,-6.400006533,1,0,0,-13.59998876,-6.400006533,1,0,0,0,76,76,134,1,,,,,,,,,,
,,,,,,,,,,,,,FF,,,,,,,,0.5692,,,,,,,,,,,,,,,,,,,,,,,1,2021-07-05_14h25.45.752,Simcolourproject_2stim_asymm_v5,2020.2.10,Win32,60,,,,,,,,,2672,-45.59998924,-63.20000738,1,0,0,response5disk,,3,-27.19998896,-16.00000668,1,0,0,rectangle,-27.19998896,-16.00000668,1,0,0,-27.19998896,-16.00000668,1,0,0,0,77,77,19,1,,,,,,,,,,
,,,,,,,,,,,,,FF,,,,,,,,1.4377,,,,,,,,,,,,,,,,,,,,,,,1,2021-07-05_14h25.45.752,Simcolourproject_2stim_asymm_v5,2020.2.10,Win32,60,,,,,,,,,1104,36.80001199,47.99999428,1,0,0,response1disk,,7,14.40001166,-1.600006461,1,0,0,rectangle,14.40001166,-1.600006461,1,0,0,14.40001166,-1.600006461,1,0,0,0,78,78,14,1,,,,,,,,,,
,,,,,,,,,,,,,FF,,,,,,,,1.2849,,,,,,,,,,,,,,,,,,,,,,,1,2021-07-05_14h25.45.752,Simcolourproject_2stim_asymm_v5,2020.2.10,Win32,60,,,,,,,,,3679,-19.19998884,-55.20000726,1,0,0,response5disk,,3,-11.19998872,-12.80000663,1,0,0,rectangle,-11.19998872,-12.80000663,1,0,0,-11.19998872,-12.80000663,1,0,0,0,79,79,68,1,,,,,,,,,,
,,,,,,,,,,,,,FF,,,,,,,,1.285,,,,,,,,,,,,,,,,,,,,,,,1,2021-07-05_14h25.45.752,Simcolourproject_2stim_asymm_v5,2020.2.10,Win32,60,,,,,,,,,3616,21.60006059,-36.00000697,1,0,0,response3disk,,4,18.40001172,1.599993587,1,0,0,rectangle,18.40001172,1.599993587,1,0,0,18.40001172,1.599993587,1,0,0,0,80,80,104,1,,,,,,,,,,
,,,,,,,,,,,,,FF,,,,,,,,0.9582,,,,,,,,,,,,,,,,,,,,,,,1,2021-07-05_14h25.45.752,Simcolourproject_2stim_asymm_v5,2020.2.10,Win32,60,,,,,,,,,4170,-58.3999406,-22.40000677,1,0,0,response5disk,,2,-30.39994018,10.39999372,1,0,0,rectangle,-30.39994018,10.39999372,1,0,0,-30.39994018,10.39999372,1,0,0,0,81,81,84,1,,,,,,,,,,
,,,,,,,,,,,,,FF,,,,,,,,0.6425,,,,,,,,,,,,,,,,,,,,,,,1,2021-07-05_14h25.45.752,Simcolourproject_2stim_asymm_v5,2020.2.10,Win32,60,,,,,,,,,1226,-35.99998909,-24.00000679,1,0,0,response5disk,,2,-11.99998873,-7.200006545,1,0,0,rectangle,-11.99998873,-7.200006545,1,0,0,-11.99998873,-7.200006545,1,0,0,0,82,82,90,1,,,,,,,,,,
,,,,,,,,,,,,,FF,,,,,,,,1.5836,,,,,,,,,,,,,,,,,,,,,,,1,2021-07-05_14h25.45.752,Simcolourproject_2stim_asymm_v5,2020.2.10,Win32,60,,,,,,,,,1881,-84.79998982,-31.2000069,1,0,0,response5disk,,2,-3.199988604,1.599993587,1,0,0,rectangle,-3.199988604,1.599993587,1,0,0,-3.199988604,1.599993587,1,0,0,0,83,83,34,1,,,,,,,,,,
,,,,,,,,,,,,,FF,,,,,,,,0.6535,,,,,,,,,,,,,,,,,,,,,,,1,2021-07-05_14h25.45.752,Simcolourproject_2stim_asymm_v5,2020.2.10,Win32,60,,,,,,,,,1651,14.40001166,-51.2000072,1,0,0,response3disk,,4,2.40001148,-7.200006545,1,0,0,rectangle,2.40001148,-7.200006545,1,0,0,2.40001148,-7.200006545,1,0,0,0,84,84,29,1,,,,,,,,,,
,,,,,,,,,,,,,FF,,,,,,,,0.9241,,,,,,,,,,,,,,,,,,,,,,,1,2021-07-05_14h25.45.752,Simcolourproject_2stim_asymm_v5,2020.2.10,Win32,60,,,,,,,,,3575,-23.1999889,-51.2000072,1,0,0,response5disk,,3,-23.1999889,-16.80000669,1,0,0,rectangle,-23.1999889,-16.80000669,1,0,0,-23.1999889,-16.80000669,1,0,0,0,85,85,155,1,,,,,,,,,,
,,,,,,,,,,,,,FF,,,,,,,,1.3404,,,,,,,,,,,,,,,,,,,,,,,1,2021-07-05_14h25.45.752,Simcolourproject_2stim_asymm_v5,2020.2.10,Win32,60,,,,,,,,,3197,-46.39994042,-13.60000664,1,0,0,response5disk,,2,-23.1999889,6.399993658,1,0,0,rectangle,-23.1999889,6.399993658,1,0,0,-23.1999889,6.399993658,1,0,0,0,86,86,54,1,,,,,,,,,,
,,,,,,,,,,,,,FF,,,,,,,,0.7363,,,,,,,,,,,,,,,,,,,,,,,1,2021-07-05_14h25.45.752,Simcolourproject_2stim_asymm_v5,2020.2.10,Win32,60,,,,,,,,,3287,-34.39994024,16.79999381,1,0,0,response7disk,,1,-16.79998881,8.799993694,1,0,0,rectangle,-16.79998881,8.799993694,1,0,0,-16.79998881,8.799993694,1,0,0,0,87,87,57,1,,,,,,,,,,
,,,,,,,,,,,,,FF,,,,,,,,1.632,,,,,,,,,,,,,,,,,,,,,,,1,2021-07-05_14h25.45.752,Simcolourproject_2stim_asymm_v5,2020.2.10,Win32,60,,,,,,,,,3863,-28.79998899,-44.00000709,1,0,0,response5disk,,3,-26.39994012,-12.80000663,1,0,0,rectangle,-26.39994012,-12.80000663,1,0,0,-26.39994012,-12.80000663,1,0,0,0,88,88,89,1,,,,,,,,,,
,,,,,,,,,,,,,FF,,,,,,,,0.6806,,,,,,,,,,,,,,,,,,,,,,,1,2021-07-05_14h25.45.752,Simcolourproject_2stim_asymm_v5,2020.2.10,Win32,60,,,,,,,,,2711,-35.19998908,-24.00000679,1,0,0,response5disk,,2,-23.99998891,-13.60000664,1,0,0,rectangle,-23.99998891,-13.60000664,1,0,0,-23.99998891,-13.60000664,1,0,0,0,89,89,41,1,,,,,,,,,,
,,,,,,,,,,,,,FF,,,,,,,,0.8751,,,,,,,,,,,,,,,,,,,,,,,1,2021-07-05_14h25.45.752,Simcolourproject_2stim_asymm_v5,2020.2.10,Win32,60,,,,,,,,,873,-15.99998879,-31.2000069,1,0,0,response5disk,,3,-15.19998878,-12.80000663,1,0,0,rectangle,23.20001179,-52.80000722,1,0,0,8.000011563,-16.80000669,1,0,0,0,90,90,149,1,,response3disk_3,TRUE,4,4,"[21,309,118,265,116,296,246,55,29,240,62,304,16,177,91,258,185,62,33,136]",1.0731,rectangle,,
,,,,,,,,,,,,,FF,,,,,,,,0.5767,,,,,,,,,,,,,,,,,,,,,,,1,2021-07-05_14h25.45.752,Simcolourproject_2stim_asymm_v5,2020.2.10,Win32,60,,,,,,,,,1182,39.20001203,-17.6000067,1,0,0,response3disk,,5,27.20001185,0.799993575,1,0,0,rectangle,27.20001185,0.799993575,1,0,0,27.20001185,0.799993575,1,0,0,0,91,91,133,1,,,,,,,,,,
,,,,,,,,,,,,,FF,,,,,,,,0.7564,,,,,,,,,,,,,,,,,,,,,,,1,2021-07-05_14h25.45.752,Simcolourproject_2stim_asymm_v5,2020.2.10,Win32,60,,,,,,,,,4021,-52.79998934,32.79999405,1,0,0,response7disk,,1,20.00001174,-6.400006533,1,0,0,rectangle,20.00001174,-6.400006533,1,0,0,20.00001174,-6.400006533,1,0,0,0,92,92,66,1,,,,,,,,,,
,,,,,,,,,,,,,FF,,,,,,,,0.694,,,,,,,,,,,,,,,,,,,,,,,1,2021-07-05_14h25.45.752,Simcolourproject_2stim_asymm_v5,2020.2.10,Win32,60,,,,,,,,,3694,42.40001208,-24.00000679,1,0,0,response3disk,,5,19.20001173,-15.20000666,1,0,0,rectangle,19.20001173,-15.20000666,1,0,0,19.20001173,-15.20000666,1,0,0,0,93,93,38,1,,,,,,,,,,
,,,,,,,,,,,,,FF,,,,,,,,0.8685,,,,,,,,,,,,,,,,,,,,,,,1,2021-07-05_14h25.45.752,Simcolourproject_2stim_asymm_v5,2020.2.10,Win32,60,,,,,,,,,1992,36.80001199,16.79999381,1,0,0,response1disk,,6,13.60006047,9.599993706,1,0,0,rectangle,13.60006047,9.599993706,1,0,0,13.60006047,9.599993706,1,0,0,0,94,94,56,1,,,,,,,,,,
,,,,,,,,,,,,,FF,,,,,,,,0.6232,,,,,,,,,,,,,,,,,,,,,,,1,2021-07-05_14h25.45.752,Simcolourproject_2stim_asymm_v5,2020.2.10,Win32,60,,,,,,,,,2168,-17.59998882,-52.80000722,1,0,0,response5disk,,3,-6.399939823,-10.40000659,1,0,0,rectangle,-6.399939823,-10.40000659,1,0,0,-6.399939823,-10.40000659,1,0,0,0,95,95,39,1,,,,,,,,,,
,,,,,,,,,,,,,FF,,,,,,,,0.8895,,,,,,,,,,,,,,,,,,,,,,,1,2021-07-05_14h25.45.752,Simcolourproject_2stim_asymm_v5,2020.2.10,Win32,60,,,,,,,,,4000,-58.3999406,-17.6000067,1,0,0,response5disk,,2,-12.79998875,-2.400006473,1,0,0,rectangle,-12.79998875,-2.400006473,1,0,0,-12.79998875,-2.400006473,1,0,0,0,96,96,80,1,,,,,,,,,,
,,,,,,,,,,,,,FF,,,,,,,,0.5839,,,,,,,,,,,,,,,,,,,,,,,1,2021-07-05_14h25.45.752,Simcolourproject_2stim_asymm_v5,2020.2.10,Win32,60,,,,,,,,,2647,47.20001215,-56.80000728,1,0,0,response3disk,,4,20.00001174,-14.40000665,1,0,0,rectangle,20.00001174,-14.40000665,1,0,0,20.00001174,-14.40000665,1,0,0,0,97,97,13,1,,,,,,,,,,
,,,,,,,,,,,,,FF,,,,,,,,0.9936,,,,,,,,,,,,,,,,,,,,,,,1,2021-07-05_14h25.45.752,Simcolourproject_2stim_asymm_v5,2020.2.10,Win32,60,,,,,,,,,1237,-61.59998947,-31.2000069,1,0,0,response5disk,,2,-23.99998891,-8.800006568,1,0,0,rectangle,-23.99998891,-8.800006568,1,0,0,-23.99998891,-8.800006568,1,0,0,0,98,98,28,1,,,,,,,,,,
,,,,,,,,,,,,,FF,,,,,,,,0.861,,,,,,,,,,,,,,,,,,,,,,,1,2021-07-05_14h25.45.752,Simcolourproject_2stim_asymm_v5,2020.2.10,Win32,60,,,,,,,,,3522,-52.79998934,-36.00000697,1,0,0,response5disk,,2,31.20001191,3.19999361,1,0,0,rectangle,31.20001191,3.19999361,1,0,0,31.20001191,3.19999361,1,0,0,0,99,99,141,1,,,,,,,,,,
,,,,,,,,,,,,,FF,,,,,,,,0.5499,,,,,,,,,,,,,,,,,,,,,,,1,2021-07-05_14h25.45.752,Simcolourproject_2stim_asymm_v5,2020.2.10,Win32,60,,,,,,,,,861,-19.19998884,-61.60000736,1,0,0,response5disk,,3,-7.199988663,-16.00000668,1,0,0,rectangle,-7.199988663,-16.00000668,1,0,0,-7.199988663,-16.00000668,1,0,0,0,100,100,45,1,,,,,,,,,,
,,,,,,,,,,,,,FF,,,,,,,,0.5701,,,,,,,,,,,,,,,,,,,,,,,1,2021-07-05_14h25.45.752,Simcolourproject_2stim_asymm_v5,2020.2.10,Win32,60,,,,,,,,,2355,-43.1999892,78.39999473,1,0,0,response7disk,,0,6.400011539,-1.600006461,1,0,0,rectangle,6.400011539,-1.600006461,1,0,0,6.400011539,-1.600006461,1,0,0,0,101,101,96,1,,,,,,,,,,
,,,,,,,,,,,,,FF,,,,,,,,0.4271,,,,,,,,,,,,,,,,,,,,,,,1,2021-07-05_14h25.45.752,Simcolourproject_2stim_asymm_v5,2020.2.10,Win32,60,,,,,,,,,612,-64.79998952,27.99999398,1,0,0,response7disk,,1,8.000011563,-8.000006557,1,0,0,rectangle,8.000011563,-8.000006557,1,0,0,8.000011563,-8.000006557,1,0,0,0,102,102,131,1,,,,,,,,,,
,,,,,,,,,,,,,FF,,,,,,,,1.5664,,,,,,,,,,,,,,,,,,,,,,,1,2021-07-05_14h25.45.752,Simcolourproject_2stim_asymm_v5,2020.2.10,Win32,60,,,,,,,,,2299,-43.99998921,-29.60000688,1,0,0,response5disk,,2,-9.599988699,-13.60000664,1,0,0,rectangle,-9.599988699,-13.60000664,1,0,0,-9.599988699,-13.60000664,1,0,0,0,103,103,111,1,,,,,,,,,,
,,,,,,,,,,,,,FF,,,,,,,,0.7151,,,,,,,,,,,,,,,,,,,,,,,1,2021-07-05_14h25.45.752,Simcolourproject_2stim_asymm_v5,2020.2.10,Win32,60,,,,,,,,,2001,-31.19998902,-58.40000731,1,0,0,response5disk,,3,-7.199988663,-12.00000662,1,0,0,rectangle,-7.199988663,-12.00000662,1,0,0,-7.199988663,-12.00000662,1,0,0,0,104,104,107,1,,,,,,,,,,
,,,,,,,,,,,,,FF,,,,,,,,0.6109,,,,,,,,,,,,,,,,,,,,,,,1,2021-07-05_14h25.45.752,Simcolourproject_2stim_asymm_v5,2020.2.10,Win32,60,,,,,,,,,1673,-39.99998915,-22.40000677,1,0,0,response5disk,,2,1.14E-05,4.799993634,1,0,0,rectangle,1.14E-05,4.799993634,1,0,0,1.14E-05,4.799993634,1,0,0,0,105,105,76,1,,,,,,,,,,
,,,,,,,,,,,,,FF,,,,,,,,0.4862,,,,,,,,,,,,,,,,,,,,,,,1,2021-07-05_14h25.45.752,Simcolourproject_2stim_asymm_v5,2020.2.10,Win32,60,,,,,,,,,2053,-51.19998932,34.39999408,1,0,0,response7disk,,1,5.600060356,8.799993694,1,0,0,rectangle,5.600060356,8.799993694,1,0,0,5.600060356,8.799993694,1,0,0,0,106,106,72,1,,,,,,,,,,
,,,,,,,,,,,,,FF,,,,,,,,0.4306,,,,,,,,,,,,,,,,,,,,,,,1,2021-07-05_14h25.45.752,Simcolourproject_2stim_asymm_v5,2020.2.10,Win32,60,,,,,,,,,2427,-29.599989,-24.00000679,1,0,0,response5disk,,2,-3.999988616,4.799993634,1,0,0,rectangle,-3.999988616,4.799993634,1,0,0,-3.999988616,4.799993634,1,0,0,0,107,107,1,1,,,,,,,,,,
,,,,,,,,,,,,,FF,,,,,,,,0.4794,,,,,,,,,,,,,,,,,,,,,,,1,2021-07-05_14h25.45.752,Simcolourproject_2stim_asymm_v5,2020.2.10,Win32,60,,,,,,,,,3831,-35.99998909,-16.80000669,1,0,0,response5disk,,2,-3.999988616,3.999993622,1,0,0,rectangle,-3.999988616,3.999993622,1,0,0,-3.999988616,3.999993622,1,0,0,0,108,108,100,1,,,,,,,,,,
,,,,,,,,,,,,,FF,,,,,,,,0.4236,,,,,,,,,,,,,,,,,,,,,,,1,2021-07-05_14h25.45.752,Simcolourproject_2stim_asymm_v5,2020.2.10,Win32,60,,,,,,,,,3484,-28.79998899,-46.40000713,1,0,0,response5disk,,3,-6.399939823,-0.800006449,1,0,0,rectangle,-6.399939823,-0.800006449,1,0,0,-6.399939823,-0.800006449,1,0,0,0,109,109,40,1,,,,,,,,,,
,,,,,,,,,,,,,FF,,,,,,,,0.3404,,,,,,,,,,,,,,,,,,,,,,,1,2021-07-05_14h25.45.752,Simcolourproject_2stim_asymm_v5,2020.2.10,Win32,60,,,,,,,,,3826,-38.3999403,-17.6000067,1,0,0,response5disk,,2,-8.799988687,2.399993598,1,0,0,rectangle,-8.799988687,2.399993598,1,0,0,-8.799988687,2.399993598,1,0,0,0,110,110,9,1,,,,,,,,,,
,,,,,,,,,,,,,FF,,,,,,,,0.3054,,,,,,,,,,,,,,,,,,,,,,,1,2021-07-05_14h25.45.752,Simcolourproject_2stim_asymm_v5,2020.2.10,Win32,60,,,,,,,,,1390,-91.19998991,44.79999423,1,0,0,response7disk,,1,-4.799988627,2.399993598,1,0,0,rectangle,-4.799988627,2.399993598,1,0,0,-4.799988627,2.399993598,1,0,0,0,111,111,122,1,,,,,,,,,,
,,,,,,,,,,,,,FF,,,,,,,,0.9936,,,,,,,,,,,,,,,,,,,,,,,1,2021-07-05_14h25.45.752,Simcolourproject_2stim_asymm_v5,2020.2.10,Win32,60,,,,,,,,,2244,19.20001173,-16.00000668,1,0,0,response3disk,,5,8.000011563,-6.44E-06,1,0,0,rectangle,8.000011563,-6.44E-06,1,0,0,8.000011563,-6.44E-06,1,0,0,0,112,112,25,1,,,,,,,,,,
,,,,,,,,,,,,,FF,,,,,,,,0.914,,,,,,,,,,,,,,,,,,,,,,,1,2021-07-05_14h25.45.752,Simcolourproject_2stim_asymm_v5,2020.2.10,Win32,60,,,,,,,,,3979,-17.59998882,-30.40000689,1,0,0,response5disk,,3,-2.399939764,-4.000006497,1,0,0,rectangle,-2.399939764,-4.000006497,1,0,0,-2.399939764,-4.000006497,1,0,0,0,113,113,20,1,,,,,,,,,,
,,,,,,,,,,,,,FF,,,,,,,,0.3199,,,,,,,,,,,,,,,,,,,,,,,1,2021-07-05_14h25.45.752,Simcolourproject_2stim_asymm_v5,2020.2.10,Win32,60,,,,,,,,,3015,-42.39994036,-19.20000672,1,0,0,response5disk,,2,-14.39993994,-1.600006461,1,0,0,rectangle,-14.39993994,-1.600006461,1,0,0,-14.39993994,-1.600006461,1,0,0,0,114,114,50,1,,,,,,,,,,
,,,,,,,,,,,,,FF,,,,,,,,0.9028,,,,,,,,,,,,,,,,,,,,,,,1,2021-07-05_14h25.45.752,Simcolourproject_2stim_asymm_v5,2020.2.10,Win32,60,,,,,,,,,3580,-39.99998915,20.79999387,1,0,0,response7disk,,1,-10.39993988,-0.800006449,1,0,0,rectangle,-87.19998986,43.19996979,1,0,0,2.40001148,3.19999361,1,0,0,0,115,115,8,1,,response7disk_3,TRUE,1,1,"[21,309,118,265,116,296,246,55,29,240,62,304,16,177,91,258,185,62,33,136]",0.9579,rectangle,,
,,,,,,,,,,,,,FF,,,,,,,,0.8058,,,,,,,,,,,,,,,,,,,,,,,1,2021-07-05_14h25.45.752,Simcolourproject_2stim_asymm_v5,2020.2.10,Win32,60,,,,,,,,,2698,76.00001258,-25.60000682,1,0,0,response3disk,,5,20.80001175,-4.800006509,1,0,0,rectangle,20.80001175,-4.800006509,1,0,0,20.80001175,-4.800006509,1,0,0,0,116,116,82,1,,,,,,,,,,
,,,,,,,,,,,,,FF,,,,,,,,0.9515,,,,,,,,,,,,,,,,,,,,,,,1,2021-07-05_14h25.45.752,Simcolourproject_2stim_asymm_v5,2020.2.10,Win32,60,,,,,,,,,1350,65.60001242,25.59999394,1,0,0,response1disk,,6,37.60006083,5.599993646,1,0,0,rectangle,-45.59998924,77.59999472,1,0,0,8.000011563,7.19999367,1,0,0,0,117,117,11,1,,response7disk_3,TRUE,0,0,"[21,309,118,265,116,296,246,55,29,240,62,304,16,177,91,258,185,62,33,136]",1.0695,rectangle,,
,,,,,,,,,,,,,FF,,,,,,,,1.5767,,,,,,,,,,,,,,,,,,,,,,,1,2021-07-05_14h25.45.752,Simcolourproject_2stim_asymm_v5,2020.2.10,Win32,60,,,,,,,,,1633,64.80001241,-32.80000693,1,0,0,response3disk,,5,7.200011551,0.799993575,1,0,0,rectangle,7.200011551,0.799993575,1,0,0,7.200011551,0.799993575,1,0,0,0,118,118,135,1,,,,,,,,,,
,,,,,,,,,,,,,FF,,,,,,,,1.0348,,,,,,,,,,,,,,,,,,,,,,,1,2021-07-05_14h25.45.752,Simcolourproject_2stim_asymm_v5,2020.2.10,Win32,60,,,,,,,,,520,-20.79998887,-60.00000733,1,0,0,response5disk,,3,12.00001162,-1.600006461,1,0,0,rectangle,12.00001162,-1.600006461,1,0,0,12.00001162,-1.600006461,1,0,0,0,119,119,94,1,,,,,,,,,,
,,,,,,,,,,,,,FF,,,,,,,,1.0278,,,,,,,,,,,,,,,,,,,,,,,1,2021-07-05_14h25.45.752,Simcolourproject_2stim_asymm_v5,2020.2.10,Win32,60,,,,,,,,,112,38.40001202,-59.20000732,1,0,0,response3disk,,4,24.80001181,-2.400006473,1,0,0,rectangle,24.80001181,-2.400006473,1,0,0,24.80001181,-2.400006473,1,0,0,0,120,120,70,1,,,,,,,,,,
,,,,,,,,,,,,,FF,,,,,,,,1.4861,,,,,,,,,,,,,,,,,,,,,,,1,2021-07-05_14h25.45.752,Simcolourproject_2stim_asymm_v5,2020.2.10,Win32,60,,,,,,,,,3702,-23.1999889,-55.20000726,1,0,0,response5disk,,3,11.20001161,-4.000006497,1,0,0,rectangle,11.20001161,-4.000006497,1,0,0,11.20001161,-4.000006497,1,0,0,0,121,121,33,1,,,,,,,,,,
,,,,,,,,,,,,,FF,,,,,,,,0.5837,,,,,,,,,,,,,,,,,,,,,,,1,2021-07-05_14h25.45.752,Simcolourproject_2stim_asymm_v5,2020.2.10,Win32,60,,,,,,,,,2202,-57.59998941,40.79999417,1,0,0,response7disk,,1,3.200011492,9.599993706,1,0,0,rectangle,3.200011492,9.599993706,1,0,0,3.200011492,9.599993706,1,0,0,0,122,122,43,1,,,,,,,,,,
,,,,,,,,,,,,,FF,,,,,,,,1.0486,,,,,,,,,,,,,,,,,,,,,,,1,2021-07-05_14h25.45.752,Simcolourproject_2stim_asymm_v5,2020.2.10,Win32,60,,,,,,,,,225,24.0000118,-44.8000071,1,0,0,response3disk,,4,23.20001179,9.599993706,1,0,0,rectangle,23.20001179,9.599993706,1,0,0,23.20001179,9.599993706,1,0,0,0,123,123,118,1,,,,,,,,,,
,,,,,,,,,,,,,FF,,,,,,,,1.3473,,,,,,,,,,,,,,,,,,,,,,,1,2021-07-05_14h25.45.752,Simcolourproject_2stim_asymm_v5,2020.2.10,Win32,60,,,,,,,,,43,36.00001198,-39.20000702,1,0,0,response3disk,,4,15.20001167,-14.40000665,1,0,0,rectangle,15.20001167,-14.40000665,1,0,0,15.20001167,-14.40000665,1,0,0,0,124,124,101,1,,,,,,,,,,
,,,,,,,,,,,,,FF,,,,,,,,0.917,,,,,,,,,,,,,,,,,,,,,,,1,2021-07-05_14h25.45.752,Simcolourproject_2stim_asymm_v5,2020.2.10,Win32,60,,,,,,,,,2568,34.40001196,14.39999378,1,0,0,response1disk,,6,7.200011551,-3.200006485,1,0,0,rectangle,7.200011551,-3.200006485,1,0,0,7.200011551,-3.200006485,1,0,0,0,125,125,81,1,,,,,,,,,,
,,,,,,,,,,,,,FF,,,,,,,,0.8823,,,,,,,,,,,,,,,,,,,,,,,1,2021-07-05_14h25.45.752,Simcolourproject_2stim_asymm_v5,2020.2.10,Win32,60,,,,,,,,,437,-37.59998912,-21.60000676,1,0,0,response5disk,,2,-12.79998875,8.799993694,1,0,0,rectangle,-12.79998875,8.799993694,1,0,0,-12.79998875,8.799993694,1,0,0,0,126,126,31,1,,,,,,,,,,
,,,,,,,,,,,,,FF,,,,,,,,1.2477,,,,,,,,,,,,,,,,,,,,,,,1,2021-07-05_14h25.45.752,Simcolourproject_2stim_asymm_v5,2020.2.10,Win32,60,,,,,,,,,3412,-35.19998908,22.3999939,1,0,0,response7disk,,1,-9.599988699,11.99999374,1,0,0,rectangle,-9.599988699,11.99999374,1,0,0,-9.599988699,11.99999374,1,0,0,0,127,127,145,1,,,,,,,,,,
,,,,,,,,,,,,,FF,,,,,,,,0.9308,,,,,,,,,,,,,,,,,,,,,,,1,2021-07-05_14h25.45.752,Simcolourproject_2stim_asymm_v5,2020.2.10,Win32,60,,,,,,,,,4369,-17.59998882,59.19997003,1,0,0,response7disk,,0,0.800011456,0.799993575,1,0,0,rectangle,0.800011456,0.799993575,1,0,0,0.800011456,0.799993575,1,0,0,0,128,128,62,1,,,,,,,,,,
,,,,,,,,,,,,,FF,,,,,,,,0.8884,,,,,,,,,,,,,,,,,,,,,,,1,2021-07-05_14h25.45.752,Simcolourproject_2stim_asymm_v5,2020.2.10,Win32,60,,,,,,,,,517,51.20001221,31.19996961,1,0,0,response1disk,,6,19.20001173,5.599993646,1,0,0,rectangle,19.20001173,5.599993646,1,0,0,19.20001173,5.599993646,1,0,0,0,129,129,154,1,,,,,,,,,,
,,,,,,,,,,,,,FF,,,,,,,,0.6177,,,,,,,,,,,,,,,,,,,,,,,1,2021-07-05_14h25.45.752,Simcolourproject_2stim_asymm_v5,2020.2.10,Win32,60,,,,,,,,,1871,26.40001184,28.79999399,1,0,0,response1disk,,7,9.600060415,16.79999381,1,0,0,rectangle,9.600060415,16.79999381,1,0,0,9.600060415,16.79999381,1,0,0,0,130,130,5,1,,,,,,,,,,
,,,,,,,,,,,,,FF,,,,,,,,0.66,,,,,,,,,,,,,,,,,,,,,,,1,2021-07-05_14h25.45.752,Simcolourproject_2stim_asymm_v5,2020.2.10,Win32,60,,,,,,,,,4360,-37.59998912,-27.20000684,1,0,0,response5disk,,2,-8.799988687,2.399993598,1,0,0,rectangle,-8.799988687,2.399993598,1,0,0,-8.799988687,2.399993598,1,0,0,0,131,131,112,1,,,,,,,,,,
,,,,,,,,,,,,,FF,,,,,,,,0.4096,,,,,,,,,,,,,,,,,,,,,,,1,2021-07-05_14h25.45.752,Simcolourproject_2stim_asymm_v5,2020.2.10,Win32,60,,,,,,,,,2523,42.40001208,-59.20000732,1,0,0,response3disk,,4,4.800011516,-4.800006509,1,0,0,rectangle,4.800011516,-4.800006509,1,0,0,4.800011516,-4.800006509,1,0,0,0,132,132,91,1,,,,,,,,,,
,,,,,,,,,,,,,FF,,,,,,,,0.417,,,,,,,,,,,,,,,,,,,,,,,1,2021-07-05_14h25.45.752,Simcolourproject_2stim_asymm_v5,2020.2.10,Win32,60,,,,,,,,,2583,50.4000122,-31.2000069,1,0,0,response3disk,,5,20.80001175,-12.00000662,1,0,0,rectangle,20.80001175,-12.00000662,1,0,0,20.80001175,-12.00000662,1,0,0,0,133,133,69,1,,,,,,,,,,
,,,,,,,,,,,,,FF,,,,,,,,0.6392,,,,,,,,,,,,,,,,,,,,,,,1,2021-07-05_14h25.45.752,Simcolourproject_2stim_asymm_v5,2020.2.10,Win32,60,,,,,,,,,3076,-60.79998946,-33.60000694,1,0,0,response5disk,,2,5.600060356,9.599993706,1,0,0,rectangle,5.600060356,9.599993706,1,0,0,5.600060356,9.599993706,1,0,0,0,134,134,150,1,,,,,,,,,,
,,,,,,,,,,,,,FF,,,,,,,,1.1807,,,,,,,,,,,,,,,,,,,,,,,1,2021-07-05_14h25.45.752,Simcolourproject_2stim_asymm_v5,2020.2.10,Win32,60,,,,,,,,,3434,-58.3999406,32.79999405,1,0,0,response7disk,,1,34.40001196,-0.800006449,1,0,0,rectangle,29.60006071,65.59999454,1,0,0,18.40001172,-3.200006485,1,0,0,0,135,135,6,1,,response1disk_3,TRUE,7,7,"[21,309,118,265,116,296,246,55,29,240,62,304,16,177,91,258,185,62,33,136]",1.0482,rectangle,,
,,,,,,,,,,,,,FF,,,,,,,,1.9176,,,,,,,,,,,,,,,,,,,,,,,1,2021-07-05_14h25.45.752,Simcolourproject_2stim_asymm_v5,2020.2.10,Win32,60,,,,,,,,,2577,35.20001197,13.59999377,1,0,0,response1disk,,6,7.200011551,-3.200006485,1,0,0,rectangle,7.200011551,-3.200006485,1,0,0,7.200011551,-3.200006485,1,0,0,0,136,136,21,1,,,,,,,,,,
,,,,,,,,,,,,,FF,,,,,,,,0.4793,,,,,,,,,,,,,,,,,,,,,,,1,2021-07-05_14h25.45.752,Simcolourproject_2stim_asymm_v5,2020.2.10,Win32,60,,,,,,,,,1175,-24.79998893,-37.600007,1,0,0,response5disk,,3,4.800011516,-5.600006521,1,0,0,rectangle,4.800011516,-5.600006521,1,0,0,4.800011516,-5.600006521,1,0,0,0,137,137,30,1,,,,,,,,,,
,,,,,,,,,,,,,FF,,,,,,,,2.2643,,,,,,,,,,,,,,,,,,,,,,,1,2021-07-05_14h25.45.752,Simcolourproject_2stim_asymm_v5,2020.2.10,Win32,60,,,,,,,,,3277,88.80001277,36.79999411,1,0,0,response1disk,,6,2.40001148,-12.00000662,1,0,0,rectangle,2.40001148,-12.00000662,1,0,0,2.40001148,-12.00000662,1,0,0,0,138,138,27,1,,,,,,,,,,
,,,,,,,,,,,,,FF,,,,,,,,1.1108,,,,,,,,,,,,,,,,,,,,,,,1,2021-07-05_14h25.45.752,Simcolourproject_2stim_asymm_v5,2020.2.10,Win32,60,,,,,,,,,1689,27.20001185,-68.00000745,1,0,0,response3disk,,4,20.80001175,-16.80000669,1,0,0,rectangle,20.80001175,-16.80000669,1,0,0,20.80001175,-16.80000669,1,0,0,0,139,139,120,1,,,,,,,,,,
,,,,,,,,,,,,,FF,,,,,,,,0.4444,,,,,,,,,,,,,,,,,,,,,,,1,2021-07-05_14h25.45.752,Simcolourproject_2stim_asymm_v5,2020.2.10,Win32,60,,,,,,,,,2983,39.20001203,-31.2000069,1,0,0,response3disk,,5,8.000011563,-12.80000663,1,0,0,rectangle,8.000011563,-12.80000663,1,0,0,8.000011563,-12.80000663,1,0,0,0,140,140,159,1,,,,,,,,,,
,,,,,,,,,,,,,FF,,,,,,,,1.0279,,,,,,,,,,,,,,,,,,,,,,,1,2021-07-05_14h25.45.752,Simcolourproject_2stim_asymm_v5,2020.2.10,Win32,60,,,,,,,,,3856,-27.99998897,-44.00000709,1,0,0,response5disk,,3,-13.59998876,11.99999374,1,0,0,rectangle,-13.59998876,11.99999374,1,0,0,-13.59998876,11.99999374,1,0,0,0,141,141,157,1,,,,,,,,,,
,,,,,,,,,,,,,FF,,,,,,,,0.6043,,,,,,,,,,,,,,,,,,,,,,,1,2021-07-05_14h25.45.752,Simcolourproject_2stim_asymm_v5,2020.2.10,Win32,60,,,,,,,,,2695,-38.3999403,-19.20000672,1,0,0,response5disk,,2,-14.39993994,3.999993622,1,0,0,rectangle,-14.39993994,3.999993622,1,0,0,-14.39993994,3.999993622,1,0,0,0,142,142,71,1,,,,,,,,,,
,,,,,,,,,,,,,FF,,,,,,,,0.4582,,,,,,,,,,,,,,,,,,,,,,,1,2021-07-05_14h25.45.752,Simcolourproject_2stim_asymm_v5,2020.2.10,Win32,60,,,,,,,,,714,-47.19998926,21.59999388,1,0,0,response7disk,,1,-10.39993988,7.999993682,1,0,0,rectangle,-10.39993988,7.999993682,1,0,0,-10.39993988,7.999993682,1,0,0,0,143,143,23,1,,,,,,,,,,
,,,,,,,,,,,,,FF,,,,,,,,1.2357,,,,,,,,,,,,,,,,,,,,,,,1,2021-07-05_14h25.45.752,Simcolourproject_2stim_asymm_v5,2020.2.10,Win32,60,,,,,,,,,2135,47.20001215,16.79999381,1,0,0,response1disk,,6,25.60006065,-11.2000066,1,0,0,rectangle,25.60006065,-11.2000066,1,0,0,25.60006065,-11.2000066,1,0,0,0,144,144,24,1,,,,,,,,,,
,,,,,,,,,,,,,FF,,,,,,,,0.5486,,,,,,,,,,,,,,,,,,,,,,,1,2021-07-05_14h25.45.752,Simcolourproject_2stim_asymm_v5,2020.2.10,Win32,60,,,,,,,,,540,32.80001193,-16.80000669,1,0,0,response3disk,,5,2.40001148,-9.60000658,1,0,0,rectangle,2.40001148,-9.60000658,1,0,0,2.40001148,-9.60000658,1,0,0,0,145,145,93,1,,,,,,,,,,
,,,,,,,,,,,,,FF,,,,,,,,0.9794,,,,,,,,,,,,,,,,,,,,,,,1,2021-07-05_14h25.45.752,Simcolourproject_2stim_asymm_v5,2020.2.10,Win32,60,,,,,,,,,1163,-39.99998915,-30.40000689,1,0,0,response5disk,,2,-14.39993994,-7.200006545,1,0,0,rectangle,-14.39993994,-7.200006545,1,0,0,-14.39993994,-7.200006545,1,0,0,0,146,146,92,1,,,,,,,,,,
,,,,,,,,,,,,,FF,,,,,,,,0.5556,,,,,,,,,,,,,,,,,,,,,,,1,2021-07-05_14h25.45.752,Simcolourproject_2stim_asymm_v5,2020.2.10,Win32,60,,,,,,,,,749,-68.79998958,-28.00000685,1,0,0,response5disk,,2,-17.59998882,3.999993622,1,0,0,rectangle,-17.59998882,3.999993622,1,0,0,-17.59998882,3.999993622,1,0,0,0,147,147,78,1,,,,,,,,,,
,,,,,,,,,,,,,FF,,,,,,,,1.0626,,,,,,,,,,,,,,,,,,,,,,,1,2021-07-05_14h25.45.752,Simcolourproject_2stim_asymm_v5,2020.2.10,Win32,60,,,,,,,,,3113,-99.19999003,34.39999408,1,0,0,response7disk,,1,-24.79998893,-4.800006509,1,0,0,rectangle,-24.79998893,-4.800006509,1,0,0,-24.79998893,-4.800006509,1,0,0,0,148,148,7,1,,,,,,,,,,
,,,,,,,,,,,,,FF,,,,,,,,0.5903,,,,,,,,,,,,,,,,,,,,,,,1,2021-07-05_14h25.45.752,Simcolourproject_2stim_asymm_v5,2020.2.10,Win32,60,,,,,,,,,1397,-28.79998899,-53.60000724,1,0,0,response5disk,,3,-4.799988627,-1.600006461,1,0,0,rectangle,-4.799988627,-1.600006461,1,0,0,-4.799988627,-1.600006461,1,0,0,0,149,149,51,1,,,,,,,,,,
,,,,,,,,,,,,,FF,,,,,,,,0.4308,,,,,,,,,,,,,,,,,,,,,,,1,2021-07-05_14h25.45.752,Simcolourproject_2stim_asymm_v5,2020.2.10,Win32,60,,,,,,,,,1805,22.40001178,-29.60000688,1,0,0,response3disk,,4,3.200011492,-6.400006533,1,0,0,rectangle,3.200011492,-6.400006533,1,0,0,3.200011492,-6.400006533,1,0,0,0,150,150,46,1,,,,,,,,,,
,,,,,,,,,,,,,FF,,,,,,,,0.3959,,,,,,,,,,,,,,,,,,,,,,,1,2021-07-05_14h25.45.752,Simcolourproject_2stim_asymm_v5,2020.2.10,Win32,60,,,,,,,,,1976,28.80001187,-27.20000684,1,0,0,response3disk,,5,10.4000116,-3.200006485,1,0,0,rectangle,10.4000116,-3.200006485,1,0,0,10.4000116,-3.200006485,1,0,0,0,151,151,63,1,,,,,,,,,,
,,,,,,,,,,,,,FF,,,,,,,,1.0626,,,,,,,,,,,,,,,,,,,,,,,1,2021-07-05_14h25.45.752,Simcolourproject_2stim_asymm_v5,2020.2.10,Win32,60,,,,,,,,,4156,28.00001186,19.19999385,1,0,0,response1disk,,6,2.40001148,-4.000006497,1,0,0,rectangle,2.40001148,-4.000006497,1,0,0,2.40001148,-4.000006497,1,0,0,0,152,152,86,1,,,,,,,,,,
,,,,,,,,,,,,,FF,,,,,,,,1.5073,,,,,,,,,,,,,,,,,,,,,,,1,2021-07-05_14h25.45.752,Simcolourproject_2stim_asymm_v5,2020.2.10,Win32,60,,,,,,,,,2840,-47.19998926,-18.40000671,1,0,0,response5disk,,2,-9.599988699,-4.800006509,1,0,0,rectangle,-9.599988699,-4.800006509,1,0,0,-9.599988699,-4.800006509,1,0,0,0,153,153,97,1,,,,,,,,,,
,,,,,,,,,,,,,FF,,,,,,,,0.486,,,,,,,,,,,,,,,,,,,,,,,1,2021-07-05_14h25.45.752,Simcolourproject_2stim_asymm_v5,2020.2.10,Win32,60,,,,,,,,,2387,-27.19998896,-52.80000722,1,0,0,response5disk,,3,-11.19998872,-7.200006545,1,0,0,rectangle,-11.19998872,-7.200006545,1,0,0,-11.19998872,-7.200006545,1,0,0,0,154,154,18,1,,,,,,,,,,
,,,,,,,,,,,,,FF,,,,,,,,0.5558,,,,,,,,,,,,,,,,,,,,,,,1,2021-07-05_14h25.45.752,Simcolourproject_2stim_asymm_v5,2020.2.10,Win32,60,,,,,,,,,4324,-45.59998924,-22.40000677,1,0,0,response5disk,,2,-15.99998879,-6.44E-06,1,0,0,rectangle,-15.99998879,-6.44E-06,1,0,0,-15.99998879,-6.44E-06,1,0,0,0,155,155,61,1,,,,,,,,,,
,,,,,,,,,,,,,FF,,,,,,,,0.5212,,,,,,,,,,,,,,,,,,,,,,,1,2021-07-05_14h25.45.752,Simcolourproject_2stim_asymm_v5,2020.2.10,Win32,60,,,,,,,,,181,-51.99998933,19.99999386,1,0,0,response7disk,,1,-16.79998881,-2.400006473,1,0,0,rectangle,-16.79998881,-2.400006473,1,0,0,-16.79998881,-2.400006473,1,0,0,0,156,156,65,1,,,,,,,,,,
,,,,,,,,,,,,,FF,,,,,,,,0.4068,,,,,,,,,,,,,,,,,,,,,,,1,2021-07-05_14h25.45.752,Simcolourproject_2stim_asymm_v5,2020.2.10,Win32,60,,,,,,,,,3768,30.4000119,-51.2000072,1,0,0,response3disk,,4,16.80001169,-14.40000665,1,0,0,rectangle,16.80001169,-14.40000665,1,0,0,16.80001169,-14.40000665,1,0,0,0,157,157,52,1,,,,,,,,,,
,,,,,,,,,,,,,FF,,,,,,,,0.2643,,,,,,,,,,,,,,,,,,,,,,,1,2021-07-05_14h25.45.752,Simcolourproject_2stim_asymm_v5,2020.2.10,Win32,60,,,,,,,,,3867,42.40001208,-20.80000675,1,0,0,response3disk,,5,18.40001172,-4.800006509,1,0,0,rectangle,18.40001172,-4.800006509,1,0,0,18.40001172,-4.800006509,1,0,0,0,158,158,99,1,,,,,,,,,,
,,,,,,,,,,,,,FF,,,,,,,,0.2778,,,,,,,,,,,,,,,,,,,,,,,1,2021-07-05_14h25.45.752,Simcolourproject_2stim_asymm_v5,2020.2.10,Win32,60,,,,,,,,,512,-99.19999003,-28.00000685,1,0,0,response5disk,,2,8.800011575,-7.200006545,1,0,0,rectangle,8.800011575,-7.200006545,1,0,0,8.800011575,-7.200006545,1,0,0,0,159,159,48,1,,,,,,,,,,
,,,,,,,,,,,,,FF,,,,,,,,0.7671,,,,,,,,,,,,,,,,,,,,,,,1,2021-07-05_14h25.45.752,Simcolourproject_2stim_asymm_v5,2020.2.10,Win32,60,,,,,,,,,1278,-23.1999889,-48.80000716,1,0,0,response5disk,,3,4.800011516,-13.60000664,1,0,0,rectangle,4.800011516,-13.60000664,1,0,0,4.800011516,-13.60000664,1,0,0,1,0,160,149,1,,,,,,,,,,
,,,,,,,,,,,,,FF,,,,,,,,0.9166,,,,,,,,,,,,,,,,,,,,,,,1,2021-07-05_14h25.45.752,Simcolourproject_2stim_asymm_v5,2020.2.10,Win32,60,,,,,,,,,2727,-44.79998922,33.59999406,1,0,0,response7disk,,1,-11.19998872,7.999993682,1,0,0,rectangle,-11.19998872,7.999993682,1,0,0,-11.19998872,7.999993682,1,0,0,1,1,161,91,1,,,,,,,,,,
,,,,,,,,,,,,,FF,,,,,,,,0.5416,,,,,,,,,,,,,,,,,,,,,,,1,2021-07-05_14h25.45.752,Simcolourproject_2stim_asymm_v5,2020.2.10,Win32,60,,,,,,,,,616,33.60006077,-32.00000691,1,0,0,response3disk,,5,17.60006053,-15.20000666,1,0,0,rectangle,17.60006053,-15.20000666,1,0,0,17.60006053,-15.20000666,1,0,0,1,2,162,126,1,,,,,,,,,,
,,,,,,,,,,,,,FF,,,,,,,,0.5005,,,,,,,,,,,,,,,,,,,,,,,1,2021-07-05_14h25.45.752,Simcolourproject_2stim_asymm_v5,2020.2.10,Win32,60,,,,,,,,,152,-80.79998976,-32.80000693,1,0,0,response5disk,,2,6.400011539,0.799993575,1,0,0,rectangle,6.400011539,0.799993575,1,0,0,6.400011539,0.799993575,1,0,0,1,3,163,73,1,,,,,,,,,,
,,,,,,,,,,,,,FF,,,,,,,,0.7363,,,,,,,,,,,,,,,,,,,,,,,1,2021-07-05_14h25.45.752,Simcolourproject_2stim_asymm_v5,2020.2.10,Win32,60,,,,,,,,,79,-51.19998932,97.59999502,1,0,0,response7disk,,0,-7.999988675,-3.200006485,1,0,0,rectangle,-7.999988675,-3.200006485,1,0,0,-7.999988675,-3.200006485,1,0,0,1,4,164,89,1,,,,,,,,,,
,,,,,,,,,,,,,FF,,,,,,,,0.4238,,,,,,,,,,,,,,,,,,,,,,,1,2021-07-05_14h25.45.752,Simcolourproject_2stim_asymm_v5,2020.2.10,Win32,60,,,,,,,,,2534,-39.99998915,22.3999939,1,0,0,response7disk,,1,-5.599988639,9.599993706,1,0,0,rectangle,-5.599988639,9.599993706,1,0,0,-5.599988639,9.599993706,1,0,0,1,5,165,119,1,,,,,,,,,,
,,,,,,,,,,,,,FF,,,,,,,,0.4387,,,,,,,,,,,,,,,,,,,,,,,1,2021-07-05_14h25.45.752,Simcolourproject_2stim_asymm_v5,2020.2.10,Win32,60,,,,,,,,,3697,27.20001185,-23.20000678,1,0,0,response3disk,,5,8.800011575,-10.40000659,1,0,0,rectangle,8.800011575,-10.40000659,1,0,0,8.800011575,-10.40000659,1,0,0,1,6,166,139,1,,,,,,,,,,
,,,,,,,,,,,,,FF,,,,,,,,0.3405,,,,,,,,,,,,,,,,,,,,,,,1,2021-07-05_14h25.45.752,Simcolourproject_2stim_asymm_v5,2020.2.10,Win32,60,,,,,,,,,697,-17.59998882,-47.20000714,1,0,0,response5disk,,3,1.14E-05,-7.200006545,1,0,0,rectangle,1.14E-05,-7.200006545,1,0,0,1.14E-05,-7.200006545,1,0,0,1,7,167,158,1,,,,,,,,,,
,,,,,,,,,,,,,FF,,,,,,,,0.2432,,,,,,,,,,,,,,,,,,,,,,,1,2021-07-05_14h25.45.752,Simcolourproject_2stim_asymm_v5,2020.2.10,Win32,60,,,,,,,,,1285,26.40001184,-35.20000696,1,0,0,response3disk,,4,8.800011575,-5.600006521,1,0,0,rectangle,8.800011575,-5.600006521,1,0,0,8.800011575,-5.600006521,1,0,0,1,8,168,43,1,,,,,,,,,,
,,,,,,,,,,,,,FF,,,,,,,,0.3327,,,,,,,,,,,,,,,,,,,,,,,1,2021-07-05_14h25.45.752,Simcolourproject_2stim_asymm_v5,2020.2.10,Win32,60,,,,,,,,,2438,40.80001205,20.79999387,1,0,0,response1disk,,6,24.0000118,3.19999361,1,0,0,rectangle,24.0000118,3.19999361,1,0,0,24.0000118,3.19999361,1,0,0,1,9,169,95,1,,,,,,,,,,
,,,,,,,,,,,,,FF,,,,,,,,0.4583,,,,,,,,,,,,,,,,,,,,,,,1,2021-07-05_14h25.45.752,Simcolourproject_2stim_asymm_v5,2020.2.10,Win32,60,,,,,,,,,3693,-79.99998975,29.599994,1,0,0,response7disk,,1,-7.999988675,-4.800006509,1,0,0,rectangle,-7.999988675,-4.800006509,1,0,0,-7.999988675,-4.800006509,1,0,0,1,10,170,71,1,,,,,,,,,,
,,,,,,,,,,,,,FF,,,,,,,,1.6945,,,,,,,,,,,,,,,,,,,,,,,1,2021-07-05_14h25.45.752,Simcolourproject_2stim_asymm_v5,2020.2.10,Win32,60,,,,,,,,,165,42.40001208,22.3999939,1,0,0,response1disk,,6,25.60006065,14.39999378,1,0,0,rectangle,25.60006065,14.39999378,1,0,0,25.60006065,14.39999378,1,0,0,1,11,171,60,1,,,,,,,,,,
,,,,,,,,,,,,,FF,,,,,,,,0.4376,,,,,,,,,,,,,,,,,,,,,,,1,2021-07-05_14h25.45.752,Simcolourproject_2stim_asymm_v5,2020.2.10,Win32,60,,,,,,,,,3566,33.60006077,-33.60000694,1,0,0,response3disk,,5,14.40001166,-8.800006568,1,0,0,rectangle,14.40001166,-8.800006568,1,0,0,14.40001166,-8.800006568,1,0,0,1,12,172,34,1,,,,,,,,,,
,,,,,,,,,,,,,FF,,,,,,,,1.1274,,,,,,,,,,,,,,,,,,,,,,,1,2021-07-05_14h25.45.752,Simcolourproject_2stim_asymm_v5,2020.2.10,Win32,60,,,,,,,,,1197,28.00001186,-54.40000725,1,0,0,response3disk,,4,11.20001161,-7.200006545,1,0,0,rectangle,11.20001161,-7.200006545,1,0,0,11.20001161,-7.200006545,1,0,0,1,13,173,155,1,,,,,,,,,,
,,,,,,,,,,,,,FF,,,,,,,,1.0774,,,,,,,,,,,,,,,,,,,,,,,1,2021-07-05_14h25.45.752,Simcolourproject_2stim_asymm_v5,2020.2.10,Win32,60,,,,,,,,,3981,-38.3999403,-36.00000697,1,0,0,response5disk,,2,-8.799988687,-15.20000666,1,0,0,rectangle,-8.799988687,-15.20000666,1,0,0,-8.799988687,-15.20000666,1,0,0,1,14,174,136,1,,,,,,,,,,
,,,,,,,,,,,,,FF,,,,,,,,0.6463,,,,,,,,,,,,,,,,,,,,,,,1,2021-07-05_14h25.45.752,Simcolourproject_2stim_asymm_v5,2020.2.10,Win32,60,,,,,,,,,2894,-34.39994024,25.59999394,1,0,0,response7disk,,1,3.200011492,3.19999361,1,0,0,rectangle,3.200011492,3.19999361,1,0,0,3.200011492,3.19999361,1,0,0,1,15,175,101,1,,,,,,,,,,
,,,,,,,,,,,,,FF,,,,,,,,0.5485,,,,,,,,,,,,,,,,,,,,,,,1,2021-07-05_14h25.45.752,Simcolourproject_2stim_asymm_v5,2020.2.10,Win32,60,,,,,,,,,1373,-33.59998906,22.3999939,1,0,0,response7disk,,1,-3.199988604,13.59999377,1,0,0,rectangle,36.80001199,55.19996997,1,0,0,14.40001166,-8.800006568,1,0,0,1,16,176,154,1,,response1disk_3,TRUE,7,7,"[21,309,118,265,116,296,246,55,29,240,62,304,16,177,91,258,185,62,33,136]",0.8826,rectangle,,
,,,,,,,,,,,,,FF,,,,,,,,2.2713,,,,,,,,,,,,,,,,,,,,,,,1,2021-07-05_14h25.45.752,Simcolourproject_2stim_asymm_v5,2020.2.10,Win32,60,,,,,,,,,2741,44.0000121,-18.40000671,1,0,0,response3disk,,5,14.40001166,-12.00000662,1,0,0,rectangle,14.40001166,-12.00000662,1,0,0,14.40001166,-12.00000662,1,0,0,1,17,177,82,1,,,,,,,,,,
,,,,,,,,,,,,,FF,,,,,,,,1.4933,,,,,,,,,,,,,,,,,,,,,,,1,2021-07-05_14h25.45.752,Simcolourproject_2stim_asymm_v5,2020.2.10,Win32,60,,,,,,,,,766,69.60001248,-45.60000712,1,0,0,response3disk,,5,8.800011575,-8.800006568,1,0,0,rectangle,8.800011575,-8.800006568,1,0,0,8.800011575,-8.800006568,1,0,0,1,18,178,35,1,,,,,,,,,,
,,,,,,,,,,,,,FF,,,,,,,,0.6107,,,,,,,,,,,,,,,,,,,,,,,1,2021-07-05_14h25.45.752,Simcolourproject_2stim_asymm_v5,2020.2.10,Win32,60,,,,,,,,,1677,-25.59998894,56.79999441,1,0,0,response7disk,,0,-2.399939764,8.799993694,1,0,0,rectangle,-2.399939764,8.799993694,1,0,0,-2.399939764,8.799993694,1,0,0,1,19,179,96,1,,,,,,,,,,
,,,,,,,,,,,,,FF,,,,,,,,1.2427,,,,,,,,,,,,,,,,,,,,,,,1,2021-07-05_14h25.45.752,Simcolourproject_2stim_asymm_v5,2020.2.10,Win32,60,,,,,,,,,2279,78.40001261,62.39999449,1,0,0,response1disk,,6,15.20001167,-1.600006461,1,0,0,rectangle,15.20001167,-1.600006461,1,0,0,15.20001167,-1.600006461,1,0,0,1,20,180,11,1,,,,,,,,,,
,,,,,,,,,,,,,FF,,,,,,,,1.3964,,,,,,,,,,,,,,,,,,,,,,,1,2021-07-05_14h25.45.752,Simcolourproject_2stim_asymm_v5,2020.2.10,Win32,60,,,,,,,,,3185,-13.59998876,-41.60000706,1,0,0,response5disk,,3,-0.799988568,-2.400006473,1,0,0,rectangle,-0.799988568,-2.400006473,1,0,0,-0.799988568,-2.400006473,1,0,0,1,21,181,28,1,,,,,,,,,,
,,,,,,,,,,,,,FF,,,,,,,,0.6181,,,,,,,,,,,,,,,,,,,,,,,1,2021-07-05_14h25.45.752,Simcolourproject_2stim_asymm_v5,2020.2.10,Win32,60,,,,,,,,,1916,-53.59998935,-36.00000697,1,0,0,response5disk,,2,-11.19998872,-12.00000662,1,0,0,rectangle,-11.19998872,-12.00000662,1,0,0,-11.19998872,-12.00000662,1,0,0,1,22,182,44,1,,,,,,,,,,
,,,,,,,,,,,,,FF,,,,,,,,0.8263,,,,,,,,,,,,,,,,,,,,,,,1,2021-07-05_14h25.45.752,Simcolourproject_2stim_asymm_v5,2020.2.10,Win32,60,,,,,,,,,1122,-65.59998953,22.3999939,1,0,0,response7disk,,1,-24.79998893,11.19999373,1,0,0,rectangle,-24.79998893,11.19999373,1,0,0,-24.79998893,11.19999373,1,0,0,1,23,183,118,1,,,,,,,,,,
,,,,,,,,,,,,,FF,,,,,,,,0.5559,,,,,,,,,,,,,,,,,,,,,,,1,2021-07-05_14h25.45.752,Simcolourproject_2stim_asymm_v5,2020.2.10,Win32,60,,,,,,,,,405,50.4000122,-26.40000683,1,0,0,response3disk,,5,9.600060415,-7.200006545,1,0,0,rectangle,-55.19998938,-39.20000702,1,0,0,-0.799988568,-3.200006485,1,0,0,1,24,184,22,1,,response5disk_3,TRUE,2,2,"[21,309,118,265,116,296,246,55,29,240,62,304,16,177,91,258,185,62,33,136]",1.6522,rectangle,,
,,,,,,,,,,,,,FF,,,,,,,,0.7017,,,,,,,,,,,,,,,,,,,,,,,1,2021-07-05_14h25.45.752,Simcolourproject_2stim_asymm_v5,2020.2.10,Win32,60,,,,,,,,,3864,-19.19998884,-53.60000724,1,0,0,response5disk,,3,-7.999988675,-3.200006485,1,0,0,rectangle,-7.999988675,-3.200006485,1,0,0,-7.999988675,-3.200006485,1,0,0,1,25,185,100,1,,,,,,,,,,
,,,,,,,,,,,,,FF,,,,,,,,0.5179,,,,,,,,,,,,,,,,,,,,,,,1,2021-07-05_14h25.45.752,Simcolourproject_2stim_asymm_v5,2020.2.10,Win32,60,,,,,,,,,3257,-36.7999891,-43.20000708,1,0,0,response5disk,,3,-7.199988663,-2.400006473,1,0,0,rectangle,-7.199988663,-2.400006473,1,0,0,-7.199988663,-2.400006473,1,0,0,1,26,186,70,1,,,,,,,,,,
,,,,,,,,,,,,,FF,,,,,,,,0.8886,,,,,,,,,,,,,,,,,,,,,,,1,2021-07-05_14h25.45.752,Simcolourproject_2stim_asymm_v5,2020.2.10,Win32,60,,,,,,,,,210,16.00001168,-57.6000073,1,0,0,response3disk,,4,20.80001175,-3.200006485,1,0,0,rectangle,20.80001175,-3.200006485,1,0,0,20.80001175,-3.200006485,1,0,0,1,27,187,20,1,,,,,,,,,,
,,,,,,,,,,,,,FF,,,,,,,,0.7364,,,,,,,,,,,,,,,,,,,,,,,1,2021-07-05_14h25.45.752,Simcolourproject_2stim_asymm_v5,2020.2.10,Win32,60,,,,,,,,,3623,-48.79998928,-24.80000681,1,0,0,response5disk,,2,-5.599988639,-4.800006509,1,0,0,rectangle,-5.599988639,-4.800006509,1,0,0,-5.599988639,-4.800006509,1,0,0,1,28,188,67,1,,,,,,,,,,
,,,,,,,,,,,,,FF,,,,,,,,0.7638,,,,,,,,,,,,,,,,,,,,,,,1,2021-07-05_14h25.45.752,Simcolourproject_2stim_asymm_v5,2020.2.10,Win32,60,,,,,,,,,1243,-52.79998934,17.59999382,1,0,0,response7disk,,1,-19.99998885,7.999993682,1,0,0,rectangle,-19.99998885,7.999993682,1,0,0,-19.99998885,7.999993682,1,0,0,1,29,189,49,1,,,,,,,,,,
,,,,,,,,,,,,,FF,,,,,,,,0.5628,,,,,,,,,,,,,,,,,,,,,,,1,2021-07-05_14h25.45.752,Simcolourproject_2stim_asymm_v5,2020.2.10,Win32,60,,,,,,,,,1368,-31.99998903,69.5999946,1,0,0,response7disk,,0,-5.599988639,5.599993646,1,0,0,rectangle,-5.599988639,5.599993646,1,0,0,-5.599988639,5.599993646,1,0,0,1,30,190,133,1,,,,,,,,,,
,,,,,,,,,,,,,FF,,,,,,,,0.5625,,,,,,,,,,,,,,,,,,,,,,,1,2021-07-05_14h25.45.752,Simcolourproject_2stim_asymm_v5,2020.2.10,Win32,60,,,,,,,,,2343,-28.79998899,15.19999379,1,0,0,response7disk,,1,-12.79998875,13.59999377,1,0,0,rectangle,-12.79998875,13.59999377,1,0,0,-12.79998875,13.59999377,1,0,0,1,31,191,111,1,,,,,,,,,,
,,,,,,,,,,,,,FF,,,,,,,,0.667,,,,,,,,,,,,,,,,,,,,,,,1,2021-07-05_14h25.45.752,Simcolourproject_2stim_asymm_v5,2020.2.10,Win32,60,,,,,,,,,2180,32.00001192,-60.00000733,1,0,0,response3disk,,4,-1.59998858,-15.20000666,1,0,0,rectangle,-1.59998858,-15.20000666,1,0,0,-1.59998858,-15.20000666,1,0,0,1,32,192,9,1,,,,,,,,,,
,,,,,,,,,,,,,FF,,,,,,,,0.5273,,,,,,,,,,,,,,,,,,,,,,,1,2021-07-05_14h25.45.752,Simcolourproject_2stim_asymm_v5,2020.2.10,Win32,60,,,,,,,,,2398,-16.79998881,-52.00000721,1,0,0,response5disk,,3,-8.799988687,-1.600006461,1,0,0,rectangle,-8.799988687,-1.600006461,1,0,0,-8.799988687,-1.600006461,1,0,0,1,33,193,24,1,,,,,,,,,,
,,,,,,,,,,,,,FF,,,,,,,,0.3682,,,,,,,,,,,,,,,,,,,,,,,1,2021-07-05_14h25.45.752,Simcolourproject_2stim_asymm_v5,2020.2.10,Win32,60,,,,,,,,,2399,-59.19998944,-21.60000676,1,0,0,response5disk,,2,-18.39994,0.799993575,1,0,0,rectangle,-18.39994,0.799993575,1,0,0,-18.39994,0.799993575,1,0,0,1,34,194,85,1,,,,,,,,,,
,,,,,,,,,,,,,FF,,,,,,,,0.3553,,,,,,,,,,,,,,,,,,,,,,,1,2021-07-05_14h25.45.752,Simcolourproject_2stim_asymm_v5,2020.2.10,Win32,60,,,,,,,,,3832,39.20001203,-30.40000689,1,0,0,response3disk,,5,-2.399939764,3.999993622,1,0,0,rectangle,-2.399939764,3.999993622,1,0,0,-2.399939764,3.999993622,1,0,0,1,35,195,102,1,,,,,,,,,,
,,,,,,,,,,,,,FF,,,,,,,,0.3398,,,,,,,,,,,,,,,,,,,,,,,1,2021-07-05_14h25.45.752,Simcolourproject_2stim_asymm_v5,2020.2.10,Win32,60,,,,,,,,,3677,-19.99998885,-52.00000721,1,0,0,response5disk,,3,-3.999988616,8.799993694,1,0,0,rectangle,-3.999988616,8.799993694,1,0,0,-3.999988616,8.799993694,1,0,0,1,36,196,68,1,,,,,,,,,,
,,,,,,,,,,,,,FF,,,,,,,,0.2756,,,,,,,,,,,,,,,,,,,,,,,1,2021-07-05_14h25.45.752,Simcolourproject_2stim_asymm_v5,2020.2.10,Win32,60,,,,,,,,,2320,-31.19998902,41.59999418,1,0,0,response7disk,,0,-0.799988568,-0.800006449,1,0,0,rectangle,-0.799988568,-0.800006449,1,0,0,-0.799988568,-0.800006449,1,0,0,1,37,197,65,1,,,,,,,,,,
,,,,,,,,,,,,,FF,,,,,,,,0.2852,,,,,,,,,,,,,,,,,,,,,,,1,2021-07-05_14h25.45.752,Simcolourproject_2stim_asymm_v5,2020.2.10,Win32,60,,,,,,,,,3465,45.60006095,20.79999387,1,0,0,response1disk,,6,17.60006053,-0.800006449,1,0,0,rectangle,17.60006053,-0.800006449,1,0,0,17.60006053,-0.800006449,1,0,0,1,38,198,113,1,,,,,,,,,,
,,,,,,,,,,,,,FF,,,,,,,,0.2957,,,,,,,,,,,,,,,,,,,,,,,1,2021-07-05_14h25.45.752,Simcolourproject_2stim_asymm_v5,2020.2.10,Win32,60,,,,,,,,,1283,38.40001202,-15.20000666,1,0,0,response3disk,,5,3.200011492,-8.800006568,1,0,0,rectangle,3.200011492,-8.800006568,1,0,0,3.200011492,-8.800006568,1,0,0,1,39,199,48,1,,,,,,,,,,
,,,,,,,,,,,,,FF,,,,,,,,0.1701,,,,,,,,,,,,,,,,,,,,,,,1,2021-07-05_14h25.45.752,Simcolourproject_2stim_asymm_v5,2020.2.10,Win32,60,,,,,,,,,1077,-24.79998893,-49.60000718,1,0,0,response5disk,,3,1.600060296,-6.400006533,1,0,0,rectangle,1.600060296,-6.400006533,1,0,0,1.600060296,-6.400006533,1,0,0,1,40,200,72,1,,,,,,,,,,
,,,,,,,,,,,,,FF,,,,,,,,0.1895,,,,,,,,,,,,,,,,,,,,,,,1,2021-07-05_14h25.45.752,Simcolourproject_2stim_asymm_v5,2020.2.10,Win32,60,,,,,,,,,462,24.0000118,-52.80000722,1,0,0,response3disk,,4,1.14E-05,-5.600006521,1,0,0,rectangle,1.14E-05,-5.600006521,1,0,0,1.14E-05,-5.600006521,1,0,0,1,41,201,105,1,,,,,,,,,,
,,,,,,,,,,,,,FF,,,,,,,,0.9408,,,,,,,,,,,,,,,,,,,,,,,1,2021-07-05_14h25.45.752,Simcolourproject_2stim_asymm_v5,2020.2.10,Win32,60,,,,,,,,,939,37.60006083,33.59999406,1,0,0,response1disk,,6,6.400011539,-12.80000663,1,0,0,rectangle,6.400011539,-12.80000663,1,0,0,6.400011539,-12.80000663,1,0,0,1,42,202,129,1,,,,,,,,,,
,,,,,,,,,,,,,FF,,,,,,,,0.6917,,,,,,,,,,,,,,,,,,,,,,,1,2021-07-05_14h25.45.752,Simcolourproject_2stim_asymm_v5,2020.2.10,Win32,60,,,,,,,,,2062,-51.19998932,33.59999406,1,0,0,response7disk,,1,-13.59998876,-4.000006497,1,0,0,rectangle,-13.59998876,-4.000006497,1,0,0,-13.59998876,-4.000006497,1,0,0,1,43,203,58,1,,,,,,,,,,
,,,,,,,,,,,,,FF,,,,,,,,0.7566,,,,,,,,,,,,,,,,,,,,,,,1,2021-07-05_14h25.45.752,Simcolourproject_2stim_asymm_v5,2020.2.10,Win32,60,,,,,,,,,242,-35.19998908,-42.40000707,1,0,0,response5disk,,3,-3.199988604,-2.400006473,1,0,0,rectangle,-3.199988604,-2.400006473,1,0,0,-3.199988604,-2.400006473,1,0,0,1,44,204,138,1,,,,,,,,,,
,,,,,,,,,,,,,FF,,,,,,,,0.559,,,,,,,,,,,,,,,,,,,,,,,1,2021-07-05_14h25.45.752,Simcolourproject_2stim_asymm_v5,2020.2.10,Win32,60,,,,,,,,,1977,-37.59998912,-28.00000685,1,0,0,response5disk,,2,-15.99998879,-9.60000658,1,0,0,rectangle,-15.99998879,-9.60000658,1,0,0,-15.99998879,-9.60000658,1,0,0,1,45,205,88,1,,,,,,,,,,
,,,,,,,,,,,,,FF,,,,,,,,1.0276,,,,,,,,,,,,,,,,,,,,,,,1,2021-07-05_14h25.45.752,Simcolourproject_2stim_asymm_v5,2020.2.10,Win32,60,,,,,,,,,269,-37.59998912,23.19996949,1,0,0,response7disk,,1,-13.59998876,14.39999378,1,0,0,rectangle,-13.59998876,14.39999378,1,0,0,-13.59998876,14.39999378,1,0,0,1,46,206,107,1,,,,,,,,,,
,,,,,,,,,,,,,FF,,,,,,,,0.6105,,,,,,,,,,,,,,,,,,,,,,,1,2021-07-05_14h25.45.752,Simcolourproject_2stim_asymm_v5,2020.2.10,Win32,60,,,,,,,,,3921,36.80001199,-50.40000719,1,0,0,response3disk,,4,11.20001161,-12.80000663,1,0,0,rectangle,11.20001161,-12.80000663,1,0,0,11.20001161,-12.80000663,1,0,0,1,47,207,59,1,,,,,,,,,,
,,,,,,,,,,,,,FF,,,,,,,,0.4309,,,,,,,,,,,,,,,,,,,,,,,1,2021-07-05_14h25.45.752,Simcolourproject_2stim_asymm_v5,2020.2.10,Win32,60,,,,,,,,,740,-35.99998909,-54.40000725,1,0,0,response5disk,,3,-19.19998884,3.999993622,1,0,0,rectangle,-19.19998884,3.999993622,1,0,0,-19.19998884,3.999993622,1,0,0,1,48,208,94,1,,,,,,,,,,
,,,,,,,,,,,,,FF,,,,,,,,0.4861,,,,,,,,,,,,,,,,,,,,,,,1,2021-07-05_14h25.45.752,Simcolourproject_2stim_asymm_v5,2020.2.10,Win32,60,,,,,,,,,3086,62.40001237,-32.00000691,1,0,0,response3disk,,5,-0.799988568,9.599993706,1,0,0,rectangle,-0.799988568,9.599993706,1,0,0,-0.799988568,9.599993706,1,0,0,1,49,209,46,1,,,,,,,,,,
,,,,,,,,,,,,,FF,,,,,,,,0.7501,,,,,,,,,,,,,,,,,,,,,,,1,2021-07-05_14h25.45.752,Simcolourproject_2stim_asymm_v5,2020.2.10,Win32,60,,,,,,,,,1118,-42.39994036,-18.40000671,1,0,0,response5disk,,2,-20.79998887,-1.600006461,1,0,0,rectangle,-20.79998887,-1.600006461,1,0,0,-20.79998887,-1.600006461,1,0,0,1,50,210,142,1,,,,,,,,,,
,,,,,,,,,,,,,FF,,,,,,,,0.5979,,,,,,,,,,,,,,,,,,,,,,,1,2021-07-05_14h25.45.752,Simcolourproject_2stim_asymm_v5,2020.2.10,Win32,60,,,,,,,,,1452,-25.59998894,77.59999472,1,0,0,response7disk,,0,0.800011456,11.99999374,1,0,0,rectangle,0.800011456,11.99999374,1,0,0,0.800011456,11.99999374,1,0,0,1,51,211,66,1,,,,,,,,,,
,,,,,,,,,,,,,FF,,,,,,,,0.5276,,,,,,,,,,,,,,,,,,,,,,,1,2021-07-05_14h25.45.752,Simcolourproject_2stim_asymm_v5,2020.2.10,Win32,60,,,,,,,,,3295,-67.19998956,35.9999941,1,0,0,response7disk,,1,-23.1999889,0.799993575,1,0,0,rectangle,-23.1999889,0.799993575,1,0,0,-23.1999889,0.799993575,1,0,0,1,52,212,141,1,,,,,,,,,,
,,,,,,,,,,,,,FF,,,,,,,,0.4609,,,,,,,,,,,,,,,,,,,,,,,1,2021-07-05_14h25.45.752,Simcolourproject_2stim_asymm_v5,2020.2.10,Win32,60,,,,,,,,,1320,-45.59998924,-35.20000696,1,0,0,response5disk,,2,-1.59998858,-8.800006568,1,0,0,rectangle,-1.59998858,-8.800006568,1,0,0,-1.59998858,-8.800006568,1,0,0,1,53,213,0,1,,,,,,,,,,
,,,,,,,,,,,,,FF,,,,,,,,0.2916,,,,,,,,,,,,,,,,,,,,,,,1,2021-07-05_14h25.45.752,Simcolourproject_2stim_asymm_v5,2020.2.10,Win32,60,,,,,,,,,3406,-25.59998894,-63.20000738,1,0,0,response5disk,,3,-2.399939764,-5.600006521,1,0,0,rectangle,-2.399939764,-5.600006521,1,0,0,-2.399939764,-5.600006521,1,0,0,1,54,214,8,1,,,,,,,,,,
,,,,,,,,,,,,,FF,,,,,,,,0.2987,,,,,,,,,,,,,,,,,,,,,,,1,2021-07-05_14h25.45.752,Simcolourproject_2stim_asymm_v5,2020.2.10,Win32,60,,,,,,,,,2288,14.40001166,-40.00000703,1,0,0,response3disk,,4,8.000011563,-10.40000659,1,0,0,rectangle,8.000011563,-10.40000659,1,0,0,8.000011563,-10.40000659,1,0,0,1,55,215,125,1,,,,,,,,,,
,,,,,,,,,,,,,FF,,,,,,,,0.7652,,,,,,,,,,,,,,,,,,,,,,,1,2021-07-05_14h25.45.752,Simcolourproject_2stim_asymm_v5,2020.2.10,Win32,60,,,,,,,,,1290,-44.79998922,54.39999437,1,0,0,response7disk,,0,-0.799988568,1.599993587,1,0,0,rectangle,-0.799988568,1.599993587,1,0,0,-0.799988568,1.599993587,1,0,0,1,56,216,144,1,,,,,,,,,,
,,,,,,,,,,,,,FF,,,,,,,,0.5622,,,,,,,,,,,,,,,,,,,,,,,1,2021-07-05_14h25.45.752,Simcolourproject_2stim_asymm_v5,2020.2.10,Win32,60,,,,,,,,,4107,-52.79998934,22.3999939,1,0,0,response7disk,,1,-23.1999889,-6.44E-06,1,0,0,rectangle,-23.1999889,-6.44E-06,1,0,0,-23.1999889,-6.44E-06,1,0,0,1,57,217,117,1,,,,,,,,,,
,,,,,,,,,,,,,FF,,,,,,,,0.4394,,,,,,,,,,,,,,,,,,,,,,,1,2021-07-05_14h25.45.752,Simcolourproject_2stim_asymm_v5,2020.2.10,Win32,60,,,,,,,,,1036,39.20001203,-27.20000684,1,0,0,response3disk,,5,-7.999988675,3.19999361,1,0,0,rectangle,-7.999988675,3.19999361,1,0,0,-7.999988675,3.19999361,1,0,0,1,58,218,104,1,,,,,,,,,,
,,,,,,,,,,,,,FF,,,,,,,,0.4582,,,,,,,,,,,,,,,,,,,,,,,1,2021-07-05_14h25.45.752,Simcolourproject_2stim_asymm_v5,2020.2.10,Win32,60,,,,,,,,,555,-33.59998906,-31.2000069,1,0,0,response5disk,,2,-8.799988687,-7.200006545,1,0,0,rectangle,-8.799988687,-7.200006545,1,0,0,-8.799988687,-7.200006545,1,0,0,1,59,219,38,1,,,,,,,,,,
,,,,,,,,,,,,,FF,,,,,,,,0.3262,,,,,,,,,,,,,,,,,,,,,,,1,2021-07-05_14h25.45.752,Simcolourproject_2stim_asymm_v5,2020.2.10,Win32,60,,,,,,,,,1508,77.6000126,-28.80000687,1,0,0,response3disk,,5,-29.599989,3.999993622,1,0,0,rectangle,-29.599989,3.999993622,1,0,0,-29.599989,3.999993622,1,0,0,1,60,220,36,1,,,,,,,,,,
,,,,,,,,,,,,,FF,,,,,,,,0.2663,,,,,,,,,,,,,,,,,,,,,,,1,2021-07-05_14h25.45.752,Simcolourproject_2stim_asymm_v5,2020.2.10,Win32,60,,,,,,,,,1648,-55.19998938,-29.60000688,1,0,0,response5disk,,2,-3.199988604,-4.000006497,1,0,0,rectangle,-3.199988604,-4.000006497,1,0,0,-3.199988604,-4.000006497,1,0,0,1,61,221,83,1,,,,,,,,,,
,,,,,,,,,,,,,FF,,,,,,,,0.6979,,,,,,,,,,,,,,,,,,,,,,,1,2021-07-05_14h25.45.752,Simcolourproject_2stim_asymm_v5,2020.2.10,Win32,60,,,,,,,,,4323,-28.79998899,-62.40000737,1,0,0,response5disk,,3,0.800011456,4.799993634,1,0,0,rectangle,0.800011456,4.799993634,1,0,0,0.800011456,4.799993634,1,0,0,1,62,222,124,1,,,,,,,,,,
,,,,,,,,,,,,,FF,,,,,,,,0.5684,,,,,,,,,,,,,,,,,,,,,,,1,2021-07-05_14h25.45.752,Simcolourproject_2stim_asymm_v5,2020.2.10,Win32,60,,,,,,,,,3381,-55.99998939,61.59999448,1,0,0,response7disk,,0,-20.79998887,-0.800006449,1,0,0,rectangle,-20.79998887,-0.800006449,1,0,0,-20.79998887,-0.800006449,1,0,0,1,63,223,80,1,,,,,,,,,,
,,,,,,,,,,,,,FF,,,,,,,,0.4862,,,,,,,,,,,,,,,,,,,,,,,1,2021-07-05_14h25.45.752,Simcolourproject_2stim_asymm_v5,2020.2.10,Win32,60,,,,,,,,,2524,-47.19998926,25.59999394,1,0,0,response7disk,,1,-28.79998899,15.19999379,1,0,0,rectangle,-28.79998899,15.19999379,1,0,0,-28.79998899,15.19999379,1,0,0,1,64,224,115,1,,,,,,,,,,
,,,,,,,,,,,,,FF,,,,,,,,0.4797,,,,,,,,,,,,,,,,,,,,,,,1,2021-07-05_14h25.45.752,Simcolourproject_2stim_asymm_v5,2020.2.10,Win32,60,,,,,,,,,2846,-51.19998932,-28.80000687,1,0,0,response5disk,,2,-15.99998879,-3.200006485,1,0,0,rectangle,-15.99998879,-3.200006485,1,0,0,-15.99998879,-3.200006485,1,0,0,1,65,225,143,1,,,,,,,,,,
,,,,,,,,,,,,,FF,,,,,,,,0.5432,,,,,,,,,,,,,,,,,,,,,,,1,2021-07-05_14h25.45.752,Simcolourproject_2stim_asymm_v5,2020.2.10,Win32,60,,,,,,,,,1695,-23.1999889,-52.80000722,1,0,0,response5disk,,3,-13.59998876,-9.60000658,1,0,0,rectangle,-13.59998876,-9.60000658,1,0,0,-13.59998876,-9.60000658,1,0,0,1,66,226,5,1,,,,,,,,,,
,,,,,,,,,,,,,FF,,,,,,,,0.5562,,,,,,,,,,,,,,,,,,,,,,,1,2021-07-05_14h25.45.752,Simcolourproject_2stim_asymm_v5,2020.2.10,Win32,60,,,,,,,,,4217,-78.3999409,31.19996961,1,0,0,response7disk,,1,-31.99998903,1.599993587,1,0,0,rectangle,-31.99998903,1.599993587,1,0,0,-31.99998903,1.599993587,1,0,0,1,67,227,127,1,,,,,,,,,,
,,,,,,,,,,,,,FF,,,,,,,,0.5413,,,,,,,,,,,,,,,,,,,,,,,1,2021-07-05_14h25.45.752,Simcolourproject_2stim_asymm_v5,2020.2.10,Win32,60,,,,,,,,,3493,80.00001264,-41.60000706,1,0,0,response3disk,,5,-7.199988663,-4.000006497,1,0,0,rectangle,-7.199988663,-4.000006497,1,0,0,-7.199988663,-4.000006497,1,0,0,1,68,228,110,1,,,,,,,,,,
,,,,,,,,,,,,,FF,,,,,,,,0.5838,,,,,,,,,,,,,,,,,,,,,,,1,2021-07-05_14h25.45.752,Simcolourproject_2stim_asymm_v5,2020.2.10,Win32,60,,,,,,,,,1588,-51.19998932,42.39999419,1,0,0,response7disk,,1,-8.799988687,6.399993658,1,0,0,rectangle,-8.799988687,6.399993658,1,0,0,-8.799988687,6.399993658,1,0,0,1,69,229,45,1,,,,,,,,,,
,,,,,,,,,,,,,FF,,,,,,,,0.9516,,,,,,,,,,,,,,,,,,,,,,,1,2021-07-05_14h25.45.752,Simcolourproject_2stim_asymm_v5,2020.2.10,Win32,60,,,,,,,,,1944,20.00001174,-70.40000749,1,0,0,response3disk,,4,-10.39993988,-13.60000664,1,0,0,rectangle,-10.39993988,-13.60000664,1,0,0,-10.39993988,-13.60000664,1,0,0,1,70,230,112,1,,,,,,,,,,
,,,,,,,,,,,,,FF,,,,,,,,0.7401,,,,,,,,,,,,,,,,,,,,,,,1,2021-07-05_14h25.45.752,Simcolourproject_2stim_asymm_v5,2020.2.10,Win32,60,,,,,,,,,1743,-44.79998922,56.79999441,1,0,0,response7disk,,0,-20.79998887,-4.800006509,1,0,0,rectangle,-20.79998887,-4.800006509,1,0,0,-20.79998887,-4.800006509,1,0,0,1,71,231,14,1,,,,,,,,,,
,,,,,,,,,,,,,FF,,,,,,,,0.8538,,,,,,,,,,,,,,,,,,,,,,,1,2021-07-05_14h25.45.752,Simcolourproject_2stim_asymm_v5,2020.2.10,Win32,60,,,,,,,,,3805,-29.599989,-45.60000712,1,0,0,response5disk,,3,-22.39994006,2.399993598,1,0,0,rectangle,-22.39994006,2.399993598,1,0,0,-22.39994006,2.399993598,1,0,0,1,72,232,1,1,,,,,,,,,,
,,,,,,,,,,,,,FF,,,,,,,,0.4061,,,,,,,,,,,,,,,,,,,,,,,1,2021-07-05_14h25.45.752,Simcolourproject_2stim_asymm_v5,2020.2.10,Win32,60,,,,,,,,,3871,-46.39994042,-26.40000683,1,0,0,response5disk,,2,-33.59998906,-4.000006497,1,0,0,rectangle,-33.59998906,-4.000006497,1,0,0,-33.59998906,-4.000006497,1,0,0,1,73,233,106,1,,,,,,,,,,
,,,,,,,,,,,,,FF,,,,,,,,0.653,,,,,,,,,,,,,,,,,,,,,,,1,2021-07-05_14h25.45.752,Simcolourproject_2stim_asymm_v5,2020.2.10,Win32,60,,,,,,,,,228,-42.39994036,23.99999392,1,0,0,response7disk,,1,-25.59998894,3.19999361,1,0,0,rectangle,-25.59998894,3.19999361,1,0,0,-25.59998894,3.19999361,1,0,0,1,74,234,63,1,,,,,,,,,,
,,,,,,,,,,,,,FF,,,,,,,,0.2576,,,,,,,,,,,,,,,,,,,,,,,1,2021-07-05_14h25.45.752,Simcolourproject_2stim_asymm_v5,2020.2.10,Win32,60,,,,,,,,,3139,-48.79998928,-24.80000681,1,0,0,response5disk,,2,-27.99998897,-9.60000658,1,0,0,rectangle,-27.99998897,-9.60000658,1,0,0,-27.99998897,-9.60000658,1,0,0,1,75,235,42,1,,,,,,,,,,
,,,,,,,,,,,,,FF,,,,,,,,0.783,,,,,,,,,,,,,,,,,,,,,,,1,2021-07-05_14h25.45.752,Simcolourproject_2stim_asymm_v5,2020.2.10,Win32,60,,,,,,,,,604,-48.79998928,-16.00000668,1,0,0,response5disk,,2,-8.799988687,-1.600006461,1,0,0,rectangle,-8.799988687,-1.600006461,1,0,0,-8.799988687,-1.600006461,1,0,0,1,76,236,148,1,,,,,,,,,,
,,,,,,,,,,,,,FF,,,,,,,,1.3929,,,,,,,,,,,,,,,,,,,,,,,1,2021-07-05_14h25.45.752,Simcolourproject_2stim_asymm_v5,2020.2.10,Win32,60,,,,,,,,,2672,-22.39994006,-50.40000719,1,0,0,response5disk,,3,4.800011516,-16.00000668,1,0,0,rectangle,4.800011516,-16.00000668,1,0,0,4.800011516,-16.00000668,1,0,0,1,77,237,13,1,,,,,,,,,,
,,,,,,,,,,,,,FF,,,,,,,,0.4167,,,,,,,,,,,,,,,,,,,,,,,1,2021-07-05_14h25.45.752,Simcolourproject_2stim_asymm_v5,2020.2.10,Win32,60,,,,,,,,,1104,-71.19998962,28.79999399,1,0,0,response7disk,,1,-30.39994018,-4.000006497,1,0,0,rectangle,-30.39994018,-4.000006497,1,0,0,-30.39994018,-4.000006497,1,0,0,1,78,238,31,1,,,,,,,,,,
,,,,,,,,,,,,,FF,,,,,,,,1.528,,,,,,,,,,,,,,,,,,,,,,,1,2021-07-05_14h25.45.752,Simcolourproject_2stim_asymm_v5,2020.2.10,Win32,60,,,,,,,,,3679,-36.7999891,-36.00000697,1,0,0,response5disk,,2,-15.19998878,-16.80000669,1,0,0,rectangle,-61.59998947,48.79999429,1,0,0,-22.39994006,7.19999367,1,0,0,1,79,239,40,1,,response7disk_3,TRUE,1,1,"[21,309,118,265,116,296,246,55,29,240,62,304,16,177,91,258,185,62,33,136]",1.0144,rectangle,,
,,,,,,,,,,,,,FF,,,,,,,,0.8902,,,,,,,,,,,,,,,,,,,,,,,1,2021-07-05_14h25.45.752,Simcolourproject_2stim_asymm_v5,2020.2.10,Win32,60,,,,,,,,,3616,-27.19998896,-59.20000732,1,0,0,response5disk,,3,17.60006053,6.399993658,1,0,0,rectangle,17.60006053,6.399993658,1,0,0,17.60006053,6.399993658,1,0,0,1,80,240,17,1,,,,,,,,,,
,,,,,,,,,,,,,FF,,,,,,,,0.8544,,,,,,,,,,,,,,,,,,,,,,,1,2021-07-05_14h25.45.752,Simcolourproject_2stim_asymm_v5,2020.2.10,Win32,60,,,,,,,,,4170,-83.1999898,45.59999424,1,0,0,response7disk,,1,-38.3999403,14.39999378,1,0,0,rectangle,-38.3999403,14.39999378,1,0,0,-38.3999403,14.39999378,1,0,0,1,81,241,135,1,,,,,,,,,,
,,,,,,,,,,,,,FF,,,,,,,,0.4101,,,,,,,,,,,,,,,,,,,,,,,1,2021-07-05_14h25.45.752,Simcolourproject_2stim_asymm_v5,2020.2.10,Win32,60,,,,,,,,,1226,-60.79998946,34.39999408,1,0,0,response7disk,,1,-28.79998899,4.799993634,1,0,0,rectangle,-28.79998899,4.799993634,1,0,0,-28.79998899,4.799993634,1,0,0,1,82,242,86,1,,,,,,,,,,
,,,,,,,,,,,,,FF,,,,,,,,0.8745,,,,,,,,,,,,,,,,,,,,,,,1,2021-07-05_14h25.45.752,Simcolourproject_2stim_asymm_v5,2020.2.10,Win32,60,,,,,,,,,1881,51.20001221,-90.40000778,1,0,0,response3disk,,4,-31.19998902,2.399993598,1,0,0,rectangle,-31.19998902,2.399993598,1,0,0,-31.19998902,2.399993598,1,0,0,1,83,243,2,1,,,,,,,,,,
,,,,,,,,,,,,,FF,,,,,,,,0.5416,,,,,,,,,,,,,,,,,,,,,,,1,2021-07-05_14h25.45.752,Simcolourproject_2stim_asymm_v5,2020.2.10,Win32,60,,,,,,,,,1651,-47.19998926,-24.00000679,1,0,0,response5disk,,2,-3.999988616,-3.200006485,1,0,0,rectangle,-3.999988616,-3.200006485,1,0,0,-3.999988616,-3.200006485,1,0,0,1,84,244,7,1,,,,,,,,,,
,,,,,,,,,,,,,FF,,,,,,,,0.7986,,,,,,,,,,,,,,,,,,,,,,,1,2021-07-05_14h25.45.752,Simcolourproject_2stim_asymm_v5,2020.2.10,Win32,60,,,,,,,,,3575,68.00001246,-32.00000691,1,0,0,response3disk,,5,-27.19998896,-4.800006509,1,0,0,rectangle,73.60001254,34.39999408,1,0,0,29.60006071,16.79999381,1,0,0,1,85,245,37,1,,response1disk_3,TRUE,6,6,"[21,309,118,265,116,296,246,55,29,240,62,304,16,177,91,258,185,62,33,136]",1.0481,rectangle,,
,,,,,,,,,,,,,FF,,,,,,,,1.0351,,,,,,,,,,,,,,,,,,,,,,,1,2021-07-05_14h25.45.752,Simcolourproject_2stim_asymm_v5,2020.2.10,Win32,60,,,,,,,,,3197,-57.59998941,28.79999399,1,0,0,response7disk,,1,-20.79998887,-6.44E-06,1,0,0,rectangle,-20.79998887,-6.44E-06,1,0,0,-20.79998887,-6.44E-06,1,0,0,1,86,246,21,1,,,,,,,,,,
,,,,,,,,,,,,,FF,,,,,,,,1.1036,,,,,,,,,,,,,,,,,,,,,,,1,2021-07-05_14h25.45.752,Simcolourproject_2stim_asymm_v5,2020.2.10,Win32,60,,,,,,,,,3287,-54.39994054,-34.40000695,1,0,0,response5disk,,2,12.80001163,4.799993634,1,0,0,rectangle,12.80001163,4.799993634,1,0,0,12.80001163,4.799993634,1,0,0,1,87,247,79,1,,,,,,,,,,
,,,,,,,,,,,,,FF,,,,,,,,0.5416,,,,,,,,,,,,,,,,,,,,,,,1,2021-07-05_14h25.45.752,Simcolourproject_2stim_asymm_v5,2020.2.10,Win32,60,,,,,,,,,3863,36.80001199,-64.00000739,1,0,0,response3disk,,4,-26.39994012,2.399993598,1,0,0,rectangle,-26.39994012,2.399993598,1,0,0,-26.39994012,2.399993598,1,0,0,1,88,248,147,1,,,,,,,,,,
,,,,,,,,,,,,,FF,,,,,,,,0.9693,,,,,,,,,,,,,,,,,,,,,,,1,2021-07-05_14h25.45.752,Simcolourproject_2stim_asymm_v5,2020.2.10,Win32,60,,,,,,,,,2711,68.80001247,23.19996949,1,0,0,response1disk,,6,32.80001193,10.39999372,1,0,0,rectangle,32.80001193,10.39999372,1,0,0,32.80001193,10.39999372,1,0,0,1,89,249,16,1,,,,,,,,,,
,,,,,,,,,,,,,FF,,,,,,,,1.3889,,,,,,,,,,,,,,,,,,,,,,,1,2021-07-05_14h25.45.752,Simcolourproject_2stim_asymm_v5,2020.2.10,Win32,60,,,,,,,,,873,-56.7999894,-41.60000706,1,0,0,response5disk,,2,-11.99998873,-10.40000659,1,0,0,rectangle,-11.99998873,-10.40000659,1,0,0,-11.99998873,-10.40000659,1,0,0,1,90,250,12,1,,,,,,,,,,
,,,,,,,,,,,,,FF,,,,,,,,0.6041,,,,,,,,,,,,,,,,,,,,,,,1,2021-07-05_14h25.45.752,Simcolourproject_2stim_asymm_v5,2020.2.10,Win32,60,,,,,,,,,1182,56.80001229,-22.40000677,1,0,0,response3disk,,5,20.00001174,6.399993658,1,0,0,rectangle,20.00001174,6.399993658,1,0,0,20.00001174,6.399993658,1,0,0,1,91,251,99,1,,,,,,,,,,
,,,,,,,,,,,,,FF,,,,,,,,0.5834,,,,,,,,,,,,,,,,,,,,,,,1,2021-07-05_14h25.45.752,Simcolourproject_2stim_asymm_v5,2020.2.10,Win32,60,,,,,,,,,4021,-66.39994072,24.79999393,1,0,0,response7disk,,1,-15.19998878,3.999993622,1,0,0,rectangle,-15.19998878,3.999993622,1,0,0,-15.19998878,3.999993622,1,0,0,1,92,252,98,1,,,,,,,,,,
,,,,,,,,,,,,,FF,,,,,,,,0.9515,,,,,,,,,,,,,,,,,,,,,,,1,2021-07-05_14h25.45.752,Simcolourproject_2stim_asymm_v5,2020.2.10,Win32,60,,,,,,,,,3694,-36.7999891,-73.60000753,1,0,0,response5disk,,3,-15.99998879,-9.60000658,1,0,0,rectangle,-15.99998879,-9.60000658,1,0,0,-15.99998879,-9.60000658,1,0,0,1,93,253,74,1,,,,,,,,,,
,,,,,,,,,,,,,FF,,,,,,,,1.0679,,,,,,,,,,,,,,,,,,,,,,,1,2021-07-05_14h25.45.752,Simcolourproject_2stim_asymm_v5,2020.2.10,Win32,60,,,,,,,,,1992,19.20001173,-89.6000566,1,0,0,response3disk,,4,-2.399939764,3.999993622,1,0,0,rectangle,-2.399939764,3.999993622,1,0,0,-2.399939764,3.999993622,1,0,0,1,94,254,6,1,,,,,,,,,,
,,,,,,,,,,,,,FF,,,,,,,,1.7821,,,,,,,,,,,,,,,,,,,,,,,1,2021-07-05_14h25.45.752,Simcolourproject_2stim_asymm_v5,2020.2.10,Win32,60,,,,,,,,,2168,92.00001281,-42.40000707,1,0,0,response3disk,,5,4.800011516,-3.200006485,1,0,0,rectangle,4.800011516,-3.200006485,1,0,0,4.800011516,-3.200006485,1,0,0,1,95,255,75,1,,,,,,,,,,
,,,,,,,,,,,,,FF,,,,,,,,0.9654,,,,,,,,,,,,,,,,,,,,,,,1,2021-07-05_14h25.45.752,Simcolourproject_2stim_asymm_v5,2020.2.10,Win32,60,,,,,,,,,4000,-66.39994072,-36.80000699,1,0,0,response5disk,,2,-15.19998878,-3.200006485,1,0,0,rectangle,-15.19998878,-3.200006485,1,0,0,-15.19998878,-3.200006485,1,0,0,1,96,256,51,1,,,,,,,,,,
,,,,,,,,,,,,,FF,,,,,,,,0.9653,,,,,,,,,,,,,,,,,,,,,,,1,2021-07-05_14h25.45.752,Simcolourproject_2stim_asymm_v5,2020.2.10,Win32,60,,,,,,,,,2647,-69.59998959,15.19999379,1,0,0,response7disk,,1,-37.59998912,-4.000006497,1,0,0,rectangle,-35.99998909,-80.00000763,1,0,0,-10.39993988,-9.60000658,1,0,0,1,97,257,150,1,,response5disk_3,TRUE,3,3,"[21,309,118,265,116,296,246,55,29,240,62,304,16,177,91,258,185,62,33,136]",1.3402,rectangle,,
,,,,,,,,,,,,,FF,,,,,,,,0.4589,,,,,,,,,,,,,,,,,,,,,,,1,2021-07-05_14h25.45.752,Simcolourproject_2stim_asymm_v5,2020.2.10,Win32,60,,,,,,,,,1237,39.20001203,-56.00000727,1,0,0,response3disk,,4,16.80001169,-6.44E-06,1,0,0,rectangle,16.80001169,-6.44E-06,1,0,0,16.80001169,-6.44E-06,1,0,0,1,98,258,54,1,,,,,,,,,,
,,,,,,,,,,,,,FF,,,,,,,,2.5016,,,,,,,,,,,,,,,,,,,,,,,1,2021-07-05_14h25.45.752,Simcolourproject_2stim_asymm_v5,2020.2.10,Win32,60,,,,,,,,,3522,-57.59998941,-60.00000733,1,0,0,response5disk,,3,1.14E-05,7.999993682,1,0,0,rectangle,1.14E-05,7.999993682,1,0,0,1.14E-05,7.999993682,1,0,0,1,99,259,122,1,,,,,,,,,,
,,,,,,,,,,,,,FF,,,,,,,,0.7494,,,,,,,,,,,,,,,,,,,,,,,1,2021-07-05_14h25.45.752,Simcolourproject_2stim_asymm_v5,2020.2.10,Win32,60,,,,,,,,,861,-49.5999893,-42.40000707,1,0,0,response5disk,,2,-4.799988627,-14.40000665,1,0,0,rectangle,-4.799988627,-14.40000665,1,0,0,-4.799988627,-14.40000665,1,0,0,1,100,260,131,1,,,,,,,,,,
,,,,,,,,,,,,,FF,,,,,,,,0.599,,,,,,,,,,,,,,,,,,,,,,,1,2021-07-05_14h25.45.752,Simcolourproject_2stim_asymm_v5,2020.2.10,Win32,60,,,,,,,,,2355,-47.99998927,72.79999465,1,0,0,response7disk,,0,-18.39994,15.9999938,1,0,0,rectangle,-18.39994,15.9999938,1,0,0,-18.39994,15.9999938,1,0,0,1,101,261,140,1,,,,,,,,,,
,,,,,,,,,,,,,FF,,,,,,,,1.012,,,,,,,,,,,,,,,,,,,,,,,1,2021-07-05_14h25.45.752,Simcolourproject_2stim_asymm_v5,2020.2.10,Win32,60,,,,,,,,,612,26.40001184,-67.20000744,1,0,0,response3disk,,4,20.80001175,-11.2000066,1,0,0,rectangle,20.80001175,-11.2000066,1,0,0,20.80001175,-11.2000066,1,0,0,1,102,262,33,1,,,,,,,,,,
,,,,,,,,,,,,,FF,,,,,,,,0.9303,,,,,,,,,,,,,,,,,,,,,,,1,2021-07-05_14h25.45.752,Simcolourproject_2stim_asymm_v5,2020.2.10,Win32,60,,,,,,,,,2299,-73.59998965,-30.40000689,1,0,0,response5disk,,2,-5.599988639,-3.200006485,1,0,0,rectangle,-5.599988639,-3.200006485,1,0,0,-5.599988639,-3.200006485,1,0,0,1,103,263,10,1,,,,,,,,,,
,,,,,,,,,,,,,FF,,,,,,,,1.0661,,,,,,,,,,,,,,,,,,,,,,,1,2021-07-05_14h25.45.752,Simcolourproject_2stim_asymm_v5,2020.2.10,Win32,60,,,,,,,,,2001,34.40001196,-56.80000728,1,0,0,response3disk,,4,15.20001167,-12.80000663,1,0,0,rectangle,-58.3999406,-33.60000694,1,0,0,-15.99998879,-12.00000662,1,0,0,1,104,264,123,1,,response5disk_3,TRUE,2,2,"[21,309,118,265,116,296,246,55,29,240,62,304,16,177,91,258,185,62,33,136]",1.105,rectangle,,
,,,,,,,,,,,,,FF,,,,,,,,1.3473,,,,,,,,,,,,,,,,,,,,,,,1,2021-07-05_14h25.45.752,Simcolourproject_2stim_asymm_v5,2020.2.10,Win32,60,,,,,,,,,1673,28.00001186,-52.00000721,1,0,0,response3disk,,4,11.20001161,-16.00000668,1,0,0,rectangle,11.20001161,-16.00000668,1,0,0,11.20001161,-16.00000668,1,0,0,1,105,265,114,1,,,,,,,,,,
,,,,,,,,,,,,,FF,,,,,,,,0.7221,,,,,,,,,,,,,,,,,,,,,,,1,2021-07-05_14h25.45.752,Simcolourproject_2stim_asymm_v5,2020.2.10,Win32,60,,,,,,,,,2053,-38.3999403,23.19996949,1,0,0,response7disk,,1,-20.79998887,6.399993658,1,0,0,rectangle,-20.79998887,6.399993658,1,0,0,-20.79998887,6.399993658,1,0,0,1,106,266,61,1,,,,,,,,,,
,,,,,,,,,,,,,FF,,,,,,,,0.6947,,,,,,,,,,,,,,,,,,,,,,,1,2021-07-05_14h25.45.752,Simcolourproject_2stim_asymm_v5,2020.2.10,Win32,60,,,,,,,,,2427,-43.1999892,-18.40000671,1,0,0,response5disk,,2,-20.79998887,-2.400006473,1,0,0,rectangle,-20.79998887,-2.400006473,1,0,0,-20.79998887,-2.400006473,1,0,0,1,107,267,25,1,,,,,,,,,,
,,,,,,,,,,,,,FF,,,,,,,,0.5417,,,,,,,,,,,,,,,,,,,,,,,1,2021-07-05_14h25.45.752,Simcolourproject_2stim_asymm_v5,2020.2.10,Win32,60,,,,,,,,,3831,46.40001214,-68.80000746,1,0,0,response3disk,,4,-7.999988675,-5.600006521,1,0,0,rectangle,-7.999988675,-5.600006521,1,0,0,-7.999988675,-5.600006521,1,0,0,1,108,268,23,1,,,,,,,,,,
,,,,,,,,,,,,,FF,,,,,,,,0.3723,,,,,,,,,,,,,,,,,,,,,,,1,2021-07-05_14h25.45.752,Simcolourproject_2stim_asymm_v5,2020.2.10,Win32,60,,,,,,,,,3484,-35.99998909,-35.20000696,1,0,0,response5disk,,2,-0.799988568,-5.600006521,1,0,0,rectangle,-0.799988568,-5.600006521,1,0,0,-0.799988568,-5.600006521,1,0,0,1,109,269,151,1,,,,,,,,,,
,,,,,,,,,,,,,FF,,,,,,,,0.8748,,,,,,,,,,,,,,,,,,,,,,,1,2021-07-05_14h25.45.752,Simcolourproject_2stim_asymm_v5,2020.2.10,Win32,60,,,,,,,,,3826,56.80001229,-34.40000695,1,0,0,response3disk,,5,11.20001161,8.799993694,1,0,0,rectangle,11.20001161,8.799993694,1,0,0,11.20001161,8.799993694,1,0,0,1,110,270,32,1,,,,,,,,,,
,,,,,,,,,,,,,FF,,,,,,,,0.6807,,,,,,,,,,,,,,,,,,,,,,,1,2021-07-05_14h25.45.752,Simcolourproject_2stim_asymm_v5,2020.2.10,Win32,60,,,,,,,,,1390,-57.59998941,28.79999399,1,0,0,response7disk,,1,-8.799988687,-16.00000668,1,0,0,rectangle,-8.799988687,-16.00000668,1,0,0,-8.799988687,-16.00000668,1,0,0,1,111,271,62,1,,,,,,,,,,
,,,,,,,,,,,,,FF,,,,,,,,0.4999,,,,,,,,,,,,,,,,,,,,,,,1,2021-07-05_14h25.45.752,Simcolourproject_2stim_asymm_v5,2020.2.10,Win32,60,,,,,,,,,2244,-40.79998916,-27.20000684,1,0,0,response5disk,,2,-3.999988616,-10.40000659,1,0,0,rectangle,-3.999988616,-10.40000659,1,0,0,-3.999988616,-10.40000659,1,0,0,1,112,272,92,1,,,,,,,,,,
,,,,,,,,,,,,,FF,,,,,,,,1.1114,,,,,,,,,,,,,,,,,,,,,,,1,2021-07-05_14h25.45.752,Simcolourproject_2stim_asymm_v5,2020.2.10,Win32,60,,,,,,,,,3979,-64.79998952,-25.60000682,1,0,0,response5disk,,2,-34.39994024,-8.800006568,1,0,0,rectangle,-34.39994024,-8.800006568,1,0,0,-34.39994024,-8.800006568,1,0,0,1,113,273,87,1,,,,,,,,,,
,,,,,,,,,,,,,FF,,,,,,,,0.7086,,,,,,,,,,,,,,,,,,,,,,,1,2021-07-05_14h25.45.752,Simcolourproject_2stim_asymm_v5,2020.2.10,Win32,60,,,,,,,,,3015,49.60006101,-80.00000763,1,0,0,response3disk,,4,3.200011492,-8.800006568,1,0,0,rectangle,3.200011492,-8.800006568,1,0,0,3.200011492,-8.800006568,1,0,0,1,114,274,3,1,,,,,,,,,,
,,,,,,,,,,,,,FF,,,,,,,,1.1459,,,,,,,,,,,,,,,,,,,,,,,1,2021-07-05_14h25.45.752,Simcolourproject_2stim_asymm_v5,2020.2.10,Win32,60,,,,,,,,,3580,63.20001239,22.3999939,1,0,0,response1disk,,6,28.80001187,1.599993587,1,0,0,rectangle,28.80001187,1.599993587,1,0,0,28.80001187,1.599993587,1,0,0,1,115,275,55,1,,,,,,,,,,
,,,,,,,,,,,,,FF,,,,,,,,1.1739,,,,,,,,,,,,,,,,,,,,,,,1,2021-07-05_14h25.45.752,Simcolourproject_2stim_asymm_v5,2020.2.10,Win32,60,,,,,,,,,2698,62.40001237,85.59999484,1,0,0,response1disk,,7,15.20001167,3.999993622,1,0,0,rectangle,15.20001167,3.999993622,1,0,0,15.20001167,3.999993622,1,0,0,1,116,276,64,1,,,,,,,,,,
,,,,,,,,,,,,,FF,,,,,,,,0.521,,,,,,,,,,,,,,,,,,,,,,,1,2021-07-05_14h25.45.752,Simcolourproject_2stim_asymm_v5,2020.2.10,Win32,60,,,,,,,,,1350,32.00001192,61.59999448,1,0,0,response1disk,,7,16.80001169,10.39999372,1,0,0,rectangle,16.80001169,10.39999372,1,0,0,16.80001169,10.39999372,1,0,0,1,117,277,52,1,,,,,,,,,,
,,,,,,,,,,,,,FF,,,,,,,,1.0322,,,,,,,,,,,,,,,,,,,,,,,1,2021-07-05_14h25.45.752,Simcolourproject_2stim_asymm_v5,2020.2.10,Win32,60,,,,,,,,,1633,24.0000118,-48.00000715,1,0,0,response3disk,,4,12.80001163,-10.40000659,1,0,0,rectangle,12.80001163,-10.40000659,1,0,0,12.80001163,-10.40000659,1,0,0,1,118,278,84,1,,,,,,,,,,
,,,,,,,,,,,,,FF,,,,,,,,0.7983,,,,,,,,,,,,,,,,,,,,,,,1,2021-07-05_14h25.45.752,Simcolourproject_2stim_asymm_v5,2020.2.10,Win32,60,,,,,,,,,520,-25.59998894,-44.8000071,1,0,0,response5disk,,3,4.000011504,-16.00000668,1,0,0,rectangle,4.000011504,-16.00000668,1,0,0,4.000011504,-16.00000668,1,0,0,1,119,279,18,1,,,,,,,,,,
,,,,,,,,,,,,,FF,,,,,,,,0.5623,,,,,,,,,,,,,,,,,,,,,,,1,2021-07-05_14h25.45.752,Simcolourproject_2stim_asymm_v5,2020.2.10,Win32,60,,,,,,,,,112,97.6000129,-29.60000688,1,0,0,response3disk,,5,36.80001199,-3.200006485,1,0,0,rectangle,36.80001199,-3.200006485,1,0,0,36.80001199,-3.200006485,1,0,0,1,120,280,157,1,,,,,,,,,,
,,,,,,,,,,,,,FF,,,,,,,,1.2023,,,,,,,,,,,,,,,,,,,,,,,1,2021-07-05_14h25.45.752,Simcolourproject_2stim_asymm_v5,2020.2.10,Win32,60,,,,,,,,,3702,-39.99998915,-56.80000728,1,0,0,response5disk,,3,-6.399939823,-6.44E-06,1,0,0,rectangle,-6.399939823,-6.44E-06,1,0,0,-6.399939823,-6.44E-06,1,0,0,1,121,281,134,1,,,,,,,,,,
,,,,,,,,,,,,,FF,,,,,,,,0.3859,,,,,,,,,,,,,,,,,,,,,,,1,2021-07-05_14h25.45.752,Simcolourproject_2stim_asymm_v5,2020.2.10,Win32,60,,,,,,,,,2202,-48.79998928,-16.00000668,1,0,0,response5disk,,2,-3.999988616,13.59999377,1,0,0,rectangle,-3.999988616,13.59999377,1,0,0,-3.999988616,13.59999377,1,0,0,1,122,282,109,1,,,,,,,,,,
,,,,,,,,,,,,,FF,,,,,,,,0.7573,,,,,,,,,,,,,,,,,,,,,,,1,2021-07-05_14h25.45.752,Simcolourproject_2stim_asymm_v5,2020.2.10,Win32,60,,,,,,,,,225,107.200013,-52.00000721,1,0,0,response3disk,,5,32.80001193,-5.600006521,1,0,0,rectangle,32.80001193,-5.600006521,1,0,0,32.80001193,-5.600006521,1,0,0,1,123,283,81,1,,,,,,,,,,
,,,,,,,,,,,,,FF,,,,,,,,0.4726,,,,,,,,,,,,,,,,,,,,,,,1,2021-07-05_14h25.45.752,Simcolourproject_2stim_asymm_v5,2020.2.10,Win32,60,,,,,,,,,43,61.60001236,33.59999406,1,0,0,response1disk,,6,20.80001175,2.399993598,1,0,0,rectangle,20.80001175,2.399993598,1,0,0,20.80001175,2.399993598,1,0,0,1,124,284,53,1,,,,,,,,,,
,,,,,,,,,,,,,FF,,,,,,,,0.9237,,,,,,,,,,,,,,,,,,,,,,,1,2021-07-05_14h25.45.752,Simcolourproject_2stim_asymm_v5,2020.2.10,Win32,60,,,,,,,,,2568,26.40001184,-46.40000713,1,0,0,response3disk,,4,12.80001163,4.799993634,1,0,0,rectangle,12.80001163,4.799993634,1,0,0,12.80001163,4.799993634,1,0,0,1,125,285,15,1,,,,,,,,,,
,,,,,,,,,,,,,FF,,,,,,,,1.0985,,,,,,,,,,,,,,,,,,,,,,,1,2021-07-05_14h25.45.752,Simcolourproject_2stim_asymm_v5,2020.2.10,Win32,60,,,,,,,,,437,-38.3999403,-63.20000738,1,0,0,response5disk,,3,-19.19998884,16.79999381,1,0,0,rectangle,-19.19998884,16.79999381,1,0,0,-19.19998884,16.79999381,1,0,0,1,126,286,145,1,,,,,,,,,,
,,,,,,,,,,,,,FF,,,,,,,,0.7016,,,,,,,,,,,,,,,,,,,,,,,1,2021-07-05_14h25.45.752,Simcolourproject_2stim_asymm_v5,2020.2.10,Win32,60,,,,,,,,,3412,49.60006101,-33.60000694,1,0,0,response3disk,,5,16.80001169,-5.600006521,1,0,0,rectangle,16.80001169,-5.600006521,1,0,0,16.80001169,-5.600006521,1,0,0,1,127,287,30,1,,,,,,,,,,
,,,,,,,,,,,,,FF,,,,,,,,0.6732,,,,,,,,,,,,,,,,,,,,,,,1,2021-07-05_14h25.45.752,Simcolourproject_2stim_asymm_v5,2020.2.10,Win32,60,,,,,,,,,4369,-20.79998887,56.79999441,1,0,0,response7disk,,0,-14.39993994,2.399993598,1,0,0,rectangle,-14.39993994,2.399993598,1,0,0,-14.39993994,2.399993598,1,0,0,1,128,288,26,1,,,,,,,,,,
,,,,,,,,,,,,,FF,,,,,,,,0.5349,,,,,,,,,,,,,,,,,,,,,,,1,2021-07-05_14h25.45.752,Simcolourproject_2stim_asymm_v5,2020.2.10,Win32,60,,,,,,,,,517,-72.79998964,-35.20000696,1,0,0,response5disk,,2,-31.99998903,-16.00000668,1,0,0,rectangle,-31.99998903,-16.00000668,1,0,0,-31.99998903,-16.00000668,1,0,0,1,129,289,56,1,,,,,,,,,,
,,,,,,,,,,,,,FF,,,,,,,,1.2361,,,,,,,,,,,,,,,,,,,,,,,1,2021-07-05_14h25.45.752,Simcolourproject_2stim_asymm_v5,2020.2.10,Win32,60,,,,,,,,,1871,36.80001199,66.39999455,1,0,0,response1disk,,7,31.20001191,13.59999377,1,0,0,rectangle,31.20001191,13.59999377,1,0,0,31.20001191,13.59999377,1,0,0,1,130,290,29,1,,,,,,,,,,
,,,,,,,,,,,,,FF,,,,,,,,1.1532,,,,,,,,,,,,,,,,,,,,,,,1,2021-07-05_14h25.45.752,Simcolourproject_2stim_asymm_v5,2020.2.10,Win32,60,,,,,,,,,4360,-43.1999892,-32.80000693,1,0,0,response5disk,,2,2.40001148,-3.200006485,1,0,0,rectangle,2.40001148,-3.200006485,1,0,0,2.40001148,-3.200006485,1,0,0,1,131,291,120,1,,,,,,,,,,
,,,,,,,,,,,,,FF,,,,,,,,0.7575,,,,,,,,,,,,,,,,,,,,,,,1,2021-07-05_14h25.45.752,Simcolourproject_2stim_asymm_v5,2020.2.10,Win32,60,,,,,,,,,2523,70.40001249,35.19996967,1,0,0,response1disk,,6,34.40001196,7.19999367,1,0,0,rectangle,34.40001196,7.19999367,1,0,0,34.40001196,7.19999367,1,0,0,1,132,292,76,1,,,,,,,,,,
,,,,,,,,,,,,,FF,,,,,,,,0.7291,,,,,,,,,,,,,,,,,,,,,,,1,2021-07-05_14h25.45.752,Simcolourproject_2stim_asymm_v5,2020.2.10,Win32,60,,,,,,,,,2583,59.20001233,23.99999392,1,0,0,response1disk,,6,6.400011539,1.599993587,1,0,0,rectangle,6.400011539,1.599993587,1,0,0,6.400011539,1.599993587,1,0,0,1,133,293,159,1,,,,,,,,,,
,,,,,,,,,,,,,FF,,,,,,,,1.0002,,,,,,,,,,,,,,,,,,,,,,,1,2021-07-05_14h25.45.752,Simcolourproject_2stim_asymm_v5,2020.2.10,Win32,60,,,,,,,,,3076,40.80001205,59.19997003,1,0,0,response1disk,,7,27.20001185,-3.200006485,1,0,0,rectangle,27.20001185,-3.200006485,1,0,0,27.20001185,-3.200006485,1,0,0,1,134,294,156,1,,,,,,,,,,
,,,,,,,,,,,,,FF,,,,,,,,0.5836,,,,,,,,,,,,,,,,,,,,,,,1,2021-07-05_14h25.45.752,Simcolourproject_2stim_asymm_v5,2020.2.10,Win32,60,,,,,,,,,3434,-73.59998965,29.599994,1,0,0,response7disk,,1,9.600060415,-8.800006568,1,0,0,rectangle,57.6000123,35.9999941,1,0,0,24.0000118,-13.60000664,1,0,0,1,135,295,57,1,,response1disk_3,TRUE,6,6,"[21,309,118,265,116,296,246,55,29,240,62,304,16,177,91,258,185,62,33,136]",0.8086,rectangle,,
,,,,,,,,,,,,,FF,,,,,,,,0.6322,,,,,,,,,,,,,,,,,,,,,,,1,2021-07-05_14h25.45.752,Simcolourproject_2stim_asymm_v5,2020.2.10,Win32,60,,,,,,,,,2577,20.80001175,-63.20000738,1,0,0,response3disk,,4,-13.59998876,-12.00000662,1,0,0,rectangle,-13.59998876,-12.00000662,1,0,0,-13.59998876,-12.00000662,1,0,0,1,136,296,137,1,,,,,,,,,,
