key_resp.keys,key_resp.rt,key_resp_14.keys,key_resp_14.rt,key_resp_15.keys,key_resp_15.rt,key_resp_17.keys,key_resp_17.rt,key_resp_9.keys,key_resp_9.rt,key_resp_10.keys,key_resp_10.rt,practice_comparison,Ecc,mouse_5.x,mouse_5.y,mouse_5.leftButton,mouse_5.midButton,mouse_5.rightButton,mouse_5.clicked_name,pracsimilarity,response_time,mouse_10.x,mouse_10.y,mouse_10.leftButton,mouse_10.midButton,mouse_10.rightButton,mouse_10.clicked_name,mouse_7.x,mouse_7.y,mouse_7.leftButton,mouse_7.midButton,mouse_7.rightButton,catchnumberprac,mouse_6.x,mouse_6.y,mouse_6.leftButton,mouse_6.midButton,mouse_6.rightButton,duringprac.thisRepN,duringprac.thisTrialN,duringprac.thisN,duringprac.thisIndex,duringprac.ran,participant,session,date,expName,psychopyVersion,OS,frameRate,study_id,mouse_7.clicked_name,mouse_6.clicked_name,key_resp_22.keys,key_resp_22.rt,realcomparison,mouse.x,mouse.y,mouse.leftButton,mouse.midButton,mouse.rightButton,mouse.clicked_name,Colour2,similarity,mouse_2.x,mouse_2.y,mouse_2.leftButton,mouse_2.midButton,mouse_2.rightButton,mouse_2.clicked_name,mouse_3.x,mouse_3.y,mouse_3.leftButton,mouse_3.midButton,mouse_3.rightButton,catchnumber,catchtrialorder,mouse_11.x,mouse_11.y,mouse_11.leftButton,mouse_11.midButton,mouse_11.rightButton,trials_2.thisRepN,trials_2.thisTrialN,trials_2.thisN,trials_2.thisIndex,trials_2.ran,Colour1,mouse_3.clicked_name,mouse_11.clicked_name
space,2694.121745,space,51.6437,space,100.321055,space,16.521215,space,7.82132,space,4.97709,14,PF,106.400013,-36.20000592,1,0,0,response3disk_5,5,12.780275,-0.799988568,-5.80002988,1,0,0,rectangle_8,-0.799988568,-5.80002988,1,0,0,4,-0.799988568,-5.80002988,1,0,0,0,0,0,4,1,5c573e54e9813700018acc31,60a7d7fc0ede097370f253f0,2021-05-21_16h56.26.464,Simcolourproject_2stim_asymm_v5,2020.2.10,Win32,60,60a5f9bf14d0aa2821c4bb84,,,,,,,,,,,,,,,,,,,,,,,,,,,,,,,,,,,,,,,
,,,,,,,,,,,,77,FF,68.00001246,-93.80000678,1,0,0,response3disk_5,4,4.715565,20.80001175,-4.200005442,1,0,0,rectangle_8,50.4000122,-93.80000678,1,0,0,4,15.20001167,0.59999463,1,0,0,0,1,1,0,1,5c573e54e9813700018acc31,60a7d7fc0ede097370f253f0,2021-05-21_16h56.26.464,Simcolourproject_2stim_asymm_v5,2020.2.10,Win32,60,60a5f9bf14d0aa2821c4bb84,response3disk_7,rectangle_4,,,,,,,,,,,,,,,,,,,,,,,,,,,,,,,,,,,,,
,,,,,,,,,,,,132,PF,76.80001259,-33.00000587,1,0,0,response3disk_5,5,4.732135,27.20001185,-2.600005418,1,0,0,rectangle_8,27.20001185,-2.600005418,1,0,0,4,27.20001185,-2.600005418,1,0,0,0,2,2,6,1,5c573e54e9813700018acc31,60a7d7fc0ede097370f253f0,2021-05-21_16h56.26.464,Simcolourproject_2stim_asymm_v5,2020.2.10,Win32,60,60a5f9bf14d0aa2821c4bb84,,,,,,,,,,,,,,,,,,,,,,,,,,,,,,,,,,,,,,,
,,,,,,,,,,,,135,PF,-39.99998915,-106.6000558,1,0,0,response5disk_5,3,2.44908,9.600060415,2.999994665,1,0,0,rectangle_8,9.600060415,2.999994665,1,0,0,4,9.600060415,2.999994665,1,0,0,0,3,3,2,1,5c573e54e9813700018acc31,60a7d7fc0ede097370f253f0,2021-05-21_16h56.26.464,Simcolourproject_2stim_asymm_v5,2020.2.10,Win32,60,60a5f9bf14d0aa2821c4bb84,,,,,,,,,,,,,,,,,,,,,,,,,,,,,,,,,,,,,,,
,,,,,,,,,,,,128,FF,83.20001268,-29.80003024,1,0,0,response3disk_5,5,2.782445,12.80001163,-4.200005442,1,0,0,rectangle_8,12.80001163,-4.200005442,1,0,0,4,12.80001163,-4.200005442,1,0,0,0,4,4,3,1,5c573e54e9813700018acc31,60a7d7fc0ede097370f253f0,2021-05-21_16h56.26.464,Simcolourproject_2stim_asymm_v5,2020.2.10,Win32,60,60a5f9bf14d0aa2821c4bb84,,,,,,,,,,,,,,,,,,,,,,,,,,,,,,,,,,,,,,,
,,,,,,,,,,,,143,FF,44.0000121,-87.40000668,1,0,0,response3disk_5,4,2.066075,12.00001162,-5.000005454,1,0,0,rectangle_8,41.60006089,-113.0000071,1,0,0,4,-1.59998858,0.59999463,1,0,0,0,5,5,5,1,5c573e54e9813700018acc31,60a7d7fc0ede097370f253f0,2021-05-21_16h56.26.464,Simcolourproject_2stim_asymm_v5,2020.2.10,Win32,60,60a5f9bf14d0aa2821c4bb84,response3disk_7,rectangle_4,,,,,,,,,,,,,,,,,,,,,,,,,,,,,,,,,,,,,
,,,,,,,,,,,,131,PF,54.40001225,-79.40000656,1,0,0,response3disk_5,4,4.765625,-7.999988675,11.7999948,1,0,0,rectangle_8,-7.999988675,11.7999948,1,0,0,4,-7.999988675,11.7999948,1,0,0,0,6,6,1,1,5c573e54e9813700018acc31,60a7d7fc0ede097370f253f0,2021-05-21_16h56.26.464,Simcolourproject_2stim_asymm_v5,2020.2.10,Win32,60,60a5f9bf14d0aa2821c4bb84,,,,,,,,,,,,,,,,,,,,,,,,,,,,,,,,,,,,,,,
,,,,,,,,,,,,,FF,,,,,,,,1.382735,,,,,,,,,,,,,,,,,,,,,,,5c573e54e9813700018acc31,60a7d7fc0ede097370f253f0,2021-05-21_16h56.26.464,Simcolourproject_2stim_asymm_v5,2020.2.10,Win32,60,60a5f9bf14d0aa2821c4bb84,,,space,29.264375,3408,90.40001279,38.19997078,1,0,0,response1disk,,6,1.14441E-05,2.999994665,1,0,0,rectangle,1.14441E-05,2.999994665,1,0,0,1,"[171,58,186,212,67,243,316,3,74,211,260,187,58,107,106,156,183,199,248,153]",1.14441E-05,2.999994665,1,0,0,0,0,0,151,1,,,
,,,,,,,,,,,,,FF,,,,,,,,6.098375,,,,,,,,,,,,,,,,,,,,,,,5c573e54e9813700018acc31,60a7d7fc0ede097370f253f0,2021-05-21_16h56.26.464,Simcolourproject_2stim_asymm_v5,2020.2.10,Win32,60,60a5f9bf14d0aa2821c4bb84,,,,,1672,84.80001271,-45.00000605,1,0,0,response3disk,,5,4.000011504,5.399994701,1,0,0,rectangle,4.000011504,5.399994701,1,0,0,1,"[171,58,186,212,67,243,316,3,74,211,260,187,58,107,106,156,183,199,248,153]",4.000011504,5.399994701,1,0,0,0,1,1,1,1,,,
,,,,,,,,,,,,,FF,,,,,,,,1.715915,,,,,,,,,,,,,,,,,,,,,,,5c573e54e9813700018acc31,60a7d7fc0ede097370f253f0,2021-05-21_16h56.26.464,Simcolourproject_2stim_asymm_v5,2020.2.10,Win32,60,60a5f9bf14d0aa2821c4bb84,,,,,825,83.20001268,41.39999524,1,0,0,response1disk,,6,24.0000118,-9.800029939,1,0,0,rectangle,46.40001214,-83.40000662,1,0,0,4,"[171,58,186,212,67,243,316,3,74,211,260,187,58,107,106,156,183,199,248,153]",12.00001162,-4.200005442,1,0,0,0,2,2,105,1,,response3disk_3,rectangle
,,,,,,,,,,,,,FF,,,,,,,,1.49966,,,,,,,,,,,,,,,,,,,,,,,5c573e54e9813700018acc31,60a7d7fc0ede097370f253f0,2021-05-21_16h56.26.464,Simcolourproject_2stim_asymm_v5,2020.2.10,Win32,60,60a5f9bf14d0aa2821c4bb84,,,,,372,87.20001274,-53.00000617,1,0,0,response3disk,,5,-6.399939823,2.199970239,1,0,0,rectangle,-6.399939823,2.199970239,1,0,0,2,"[171,58,186,212,67,243,316,3,74,211,260,187,58,107,106,156,183,199,248,153]",-6.399939823,2.199970239,1,0,0,0,3,3,72,1,,,
,,,,,,,,,,,,,FF,,,,,,,,1.216125,,,,,,,,,,,,,,,,,,,,,,,5c573e54e9813700018acc31,60a7d7fc0ede097370f253f0,2021-05-21_16h56.26.464,Simcolourproject_2stim_asymm_v5,2020.2.10,Win32,60,60a5f9bf14d0aa2821c4bb84,,,,,2421,-71.99998963,-48.2000061,1,0,0,response5disk,,5,-18.39994,-5.000005454,1,0,0,rectangle,-18.39994,-5.000005454,1,0,0,0,"[171,58,186,212,67,243,316,3,74,211,260,187,58,107,106,156,183,199,248,153]",-18.39994,-5.000005454,1,0,0,0,4,4,139,1,,,
,,,,,,,,,,,,,FF,,,,,,,,1.216415,,,,,,,,,,,,,,,,,,,,,,,5c573e54e9813700018acc31,60a7d7fc0ede097370f253f0,2021-05-21_16h56.26.464,Simcolourproject_2stim_asymm_v5,2020.2.10,Win32,60,60a5f9bf14d0aa2821c4bb84,,,,,957,82.40001267,41.39999524,1,0,0,response1disk,,6,32.80001193,-1.000005394,1,0,0,rectangle,32.80001193,-1.000005394,1,0,0,1,"[171,58,186,212,67,243,316,3,74,211,260,187,58,107,106,156,183,199,248,153]",32.80001193,-1.000005394,1,0,0,0,5,5,40,1,,,
,,,,,,,,,,,,,FF,,,,,,,,1.26619,,,,,,,,,,,,,,,,,,,,,,,5c573e54e9813700018acc31,60a7d7fc0ede097370f253f0,2021-05-21_16h56.26.464,Simcolourproject_2stim_asymm_v5,2020.2.10,Win32,60,60a5f9bf14d0aa2821c4bb84,,,,,870,103.200013,-50.60005496,1,0,0,response3disk,,5,4.800011516,-1.000005394,1,0,0,rectangle,4.800011516,-1.000005394,1,0,0,4,"[171,58,186,212,67,243,316,3,74,211,260,187,58,107,106,156,183,199,248,153]",4.800011516,-1.000005394,1,0,0,0,6,6,26,1,,,
,,,,,,,,,,,,,FF,,,,,,,,1.216075,,,,,,,,,,,,,,,,,,,,,,,5c573e54e9813700018acc31,60a7d7fc0ede097370f253f0,2021-05-21_16h56.26.464,Simcolourproject_2stim_asymm_v5,2020.2.10,Win32,60,60a5f9bf14d0aa2821c4bb84,,,,,3075,52.80001223,85.39999589,1,0,0,response1disk,,7,4.000011504,2.199970239,1,0,0,rectangle,4.000011504,2.199970239,1,0,0,0,"[171,58,186,212,67,243,316,3,74,211,260,187,58,107,106,156,183,199,248,153]",4.000011504,2.199970239,1,0,0,0,7,7,140,1,,,
,,,,,,,,,,,,,FF,,,,,,,,0.933095,,,,,,,,,,,,,,,,,,,,,,,5c573e54e9813700018acc31,60a7d7fc0ede097370f253f0,2021-05-21_16h56.26.464,Simcolourproject_2stim_asymm_v5,2020.2.10,Win32,60,60a5f9bf14d0aa2821c4bb84,,,,,1622,29.60006071,88.59999594,1,0,0,response1disk,,7,16.00001168,-0.200005382,1,0,0,rectangle,16.00001168,-0.200005382,1,0,0,1,"[171,58,186,212,67,243,316,3,74,211,260,187,58,107,106,156,183,199,248,153]",16.00001168,-0.200005382,1,0,0,0,8,8,131,1,,,
,,,,,,,,,,,,,FF,,,,,,,,1.666005,,,,,,,,,,,,,,,,,,,,,,,5c573e54e9813700018acc31,60a7d7fc0ede097370f253f0,2021-05-21_16h56.26.464,Simcolourproject_2stim_asymm_v5,2020.2.10,Win32,60,60a5f9bf14d0aa2821c4bb84,,,,,2090,90.40001279,33.39999512,1,0,0,response1disk,,6,24.0000118,-5.000005454,1,0,0,rectangle,24.0000118,-5.000005454,1,0,0,0,"[171,58,186,212,67,243,316,3,74,211,260,187,58,107,106,156,183,199,248,153]",24.0000118,-5.000005454,1,0,0,0,9,9,124,1,,,
,,,,,,,,,,,,,FF,,,,,,,,0.949765,,,,,,,,,,,,,,,,,,,,,,,5c573e54e9813700018acc31,60a7d7fc0ede097370f253f0,2021-05-21_16h56.26.464,Simcolourproject_2stim_asymm_v5,2020.2.10,Win32,60,60a5f9bf14d0aa2821c4bb84,,,,,3572,67.20001245,38.19997078,1,0,0,response1disk,,6,10.4000116,-0.200005382,1,0,0,rectangle,10.4000116,-0.200005382,1,0,0,6,"[171,58,186,212,67,243,316,3,74,211,260,187,58,107,106,156,183,199,248,153]",10.4000116,-0.200005382,1,0,0,0,10,10,68,1,,,
,,,,,,,,,,,,,FF,,,,,,,,0.76659,,,,,,,,,,,,,,,,,,,,,,,5c573e54e9813700018acc31,60a7d7fc0ede097370f253f0,2021-05-21_16h56.26.464,Simcolourproject_2stim_asymm_v5,2020.2.10,Win32,60,60a5f9bf14d0aa2821c4bb84,,,,,1096,52.00001222,30.19997066,1,0,0,response1disk,,6,5.600060356,-9.000005513,1,0,0,rectangle,5.600060356,-9.000005513,1,0,0,4,"[171,58,186,212,67,243,316,3,74,211,260,187,58,107,106,156,183,199,248,153]",5.600060356,-9.000005513,1,0,0,0,11,11,154,1,,,
,,,,,,,,,,,,,FF,,,,,,,,1.0666,,,,,,,,,,,,,,,,,,,,,,,5c573e54e9813700018acc31,60a7d7fc0ede097370f253f0,2021-05-21_16h56.26.464,Simcolourproject_2stim_asymm_v5,2020.2.10,Win32,60,60a5f9bf14d0aa2821c4bb84,,,,,2779,-27.99998897,-82.60005544,1,0,0,response5disk,,3,11.20001161,-8.200005502,1,0,0,rectangle,11.20001161,-8.200005502,1,0,0,6,"[171,58,186,212,67,243,316,3,74,211,260,187,58,107,106,156,183,199,248,153]",11.20001161,-8.200005502,1,0,0,0,12,12,52,1,,,
,,,,,,,,,,,,,FF,,,,,,,,1.31614,,,,,,,,,,,,,,,,,,,,,,,5c573e54e9813700018acc31,60a7d7fc0ede097370f253f0,2021-05-21_16h56.26.464,Simcolourproject_2stim_asymm_v5,2020.2.10,Win32,60,60a5f9bf14d0aa2821c4bb84,,,,,2837,100.8000129,-41.80003042,1,0,0,response3disk,,5,28.00001186,4.599994689,1,0,0,rectangle,28.00001186,4.599994689,1,0,0,2,"[171,58,186,212,67,243,316,3,74,211,260,187,58,107,106,156,183,199,248,153]",28.00001186,4.599994689,1,0,0,0,13,13,92,1,,,
,,,,,,,,,,,,,FF,,,,,,,,0.91631,,,,,,,,,,,,,,,,,,,,,,,5c573e54e9813700018acc31,60a7d7fc0ede097370f253f0,2021-05-21_16h56.26.464,Simcolourproject_2stim_asymm_v5,2020.2.10,Win32,60,60a5f9bf14d0aa2821c4bb84,,,,,2230,60.00001234,-36.20000592,1,0,0,response3disk,,5,9.600060415,6.199970299,1,0,0,rectangle,9.600060415,6.199970299,1,0,0,5,"[171,58,186,212,67,243,316,3,74,211,260,187,58,107,106,156,183,199,248,153]",9.600060415,6.199970299,1,0,0,0,14,14,119,1,,,
,,,,,,,,,,,,,FF,,,,,,,,0.699955,,,,,,,,,,,,,,,,,,,,,,,5c573e54e9813700018acc31,60a7d7fc0ede097370f253f0,2021-05-21_16h56.26.464,Simcolourproject_2stim_asymm_v5,2020.2.10,Win32,60,60a5f9bf14d0aa2821c4bb84,,,,,2857,71.20001251,30.19997066,1,0,0,response1disk,,6,16.80001169,-5.80002988,1,0,0,rectangle,16.80001169,-5.80002988,1,0,0,0,"[171,58,186,212,67,243,316,3,74,211,260,187,58,107,106,156,183,199,248,153]",16.80001169,-5.80002988,1,0,0,0,15,15,22,1,,,
,,,,,,,,,,,,,FF,,,,,,,,0.666425,,,,,,,,,,,,,,,,,,,,,,,5c573e54e9813700018acc31,60a7d7fc0ede097370f253f0,2021-05-21_16h56.26.464,Simcolourproject_2stim_asymm_v5,2020.2.10,Win32,60,60a5f9bf14d0aa2821c4bb84,,,,,998,56.80001229,33.39999512,1,0,0,response1disk,,6,18.40001172,3.799994677,1,0,0,rectangle,18.40001172,3.799994677,1,0,0,4,"[171,58,186,212,67,243,316,3,74,211,260,187,58,107,106,156,183,199,248,153]",18.40001172,3.799994677,1,0,0,0,16,16,127,1,,,
,,,,,,,,,,,,,FF,,,,,,,,0.633205,,,,,,,,,,,,,,,,,,,,,,,5c573e54e9813700018acc31,60a7d7fc0ede097370f253f0,2021-05-21_16h56.26.464,Simcolourproject_2stim_asymm_v5,2020.2.10,Win32,60,60a5f9bf14d0aa2821c4bb84,,,,,3457,56.00001228,64.59999558,1,0,0,response1disk,,7,3.200011492,-7.40000549,1,0,0,rectangle,3.200011492,-7.40000549,1,0,0,6,"[171,58,186,212,67,243,316,3,74,211,260,187,58,107,106,156,183,199,248,153]",3.200011492,-7.40000549,1,0,0,0,17,17,86,1,,,
,,,,,,,,,,,,,FF,,,,,,,,1.099395,,,,,,,,,,,,,,,,,,,,,,,5c573e54e9813700018acc31,60a7d7fc0ede097370f253f0,2021-05-21_16h56.26.464,Simcolourproject_2stim_asymm_v5,2020.2.10,Win32,60,60a5f9bf14d0aa2821c4bb84,,,,,3296,-48.79998928,-70.60005526,1,0,0,response5disk,,3,3.200011492,6.999994725,1,0,0,rectangle,3.200011492,6.999994725,1,0,0,4,"[171,58,186,212,67,243,316,3,74,211,260,187,58,107,106,156,183,199,248,153]",3.200011492,6.999994725,1,0,0,0,18,18,38,1,,,
,,,,,,,,,,,,,FF,,,,,,,,1.099935,,,,,,,,,,,,,,,,,,,,,,,5c573e54e9813700018acc31,60a7d7fc0ede097370f253f0,2021-05-21_16h56.26.464,Simcolourproject_2stim_asymm_v5,2020.2.10,Win32,60,60a5f9bf14d0aa2821c4bb84,,,,,1527,78.40001261,-32.20000586,1,0,0,response3disk,,5,30.4000119,-5.80002988,1,0,0,rectangle,30.4000119,-5.80002988,1,0,0,2,"[171,58,186,212,67,243,316,3,74,211,260,187,58,107,106,156,183,199,248,153]",30.4000119,-5.80002988,1,0,0,0,19,19,118,1,,,
,,,,,,,,,,,,,FF,,,,,,,,1.99931,,,,,,,,,,,,,,,,,,,,,,,5c573e54e9813700018acc31,60a7d7fc0ede097370f253f0,2021-05-21_16h56.26.464,Simcolourproject_2stim_asymm_v5,2020.2.10,Win32,60,60a5f9bf14d0aa2821c4bb84,,,,,4158,44.0000121,-91.40000674,1,0,0,response3disk,,4,13.60006047,-0.200005382,1,0,0,rectangle,13.60006047,-0.200005382,1,0,0,5,"[171,58,186,212,67,243,316,3,74,211,260,187,58,107,106,156,183,199,248,153]",13.60006047,-0.200005382,1,0,0,0,20,20,138,1,,,
,,,,,,,,,,,,,FF,,,,,,,,1.61631,,,,,,,,,,,,,,,,,,,,,,,5c573e54e9813700018acc31,60a7d7fc0ede097370f253f0,2021-05-21_16h56.26.464,Simcolourproject_2stim_asymm_v5,2020.2.10,Win32,60,60a5f9bf14d0aa2821c4bb84,,,,,3089,-21.59998888,-109.000007,1,0,0,response5disk,,3,8.000011563,-5.80002988,1,0,0,rectangle,8.000011563,-5.80002988,1,0,0,6,"[171,58,186,212,67,243,316,3,74,211,260,187,58,107,106,156,183,199,248,153]",8.000011563,-5.80002988,1,0,0,0,21,21,143,1,,,
,,,,,,,,,,,,,FF,,,,,,,,0.649615,,,,,,,,,,,,,,,,,,,,,,,5c573e54e9813700018acc31,60a7d7fc0ede097370f253f0,2021-05-21_16h56.26.464,Simcolourproject_2stim_asymm_v5,2020.2.10,Win32,60,60a5f9bf14d0aa2821c4bb84,,,,,1842,91.2000128,-40.20000598,1,0,0,response3disk,,5,15.20001167,-11.40000555,1,0,0,rectangle,15.20001167,-11.40000555,1,0,0,4,"[171,58,186,212,67,243,316,3,74,211,260,187,58,107,106,156,183,199,248,153]",15.20001167,-11.40000555,1,0,0,0,22,22,112,1,,,
,,,,,,,,,,,,,FF,,,,,,,,1.01644,,,,,,,,,,,,,,,,,,,,,,,5c573e54e9813700018acc31,60a7d7fc0ede097370f253f0,2021-05-21_16h56.26.464,Simcolourproject_2stim_asymm_v5,2020.2.10,Win32,60,60a5f9bf14d0aa2821c4bb84,,,,,2926,77.6000126,-36.20000592,1,0,0,response3disk,,5,10.4000116,4.599994689,1,0,0,rectangle,10.4000116,4.599994689,1,0,0,1,"[171,58,186,212,67,243,316,3,74,211,260,187,58,107,106,156,183,199,248,153]",10.4000116,4.599994689,1,0,0,0,23,23,9,1,,,
,,,,,,,,,,,,,FF,,,,,,,,1.166555,,,,,,,,,,,,,,,,,,,,,,,5c573e54e9813700018acc31,60a7d7fc0ede097370f253f0,2021-05-21_16h56.26.464,Simcolourproject_2stim_asymm_v5,2020.2.10,Win32,60,60a5f9bf14d0aa2821c4bb84,,,,,2594,81.60001266,-31.40000585,1,0,0,response3disk,,5,-28.79998899,9.399994761,1,0,0,rectangle,-28.79998899,9.399994761,1,0,0,1,"[171,58,186,212,67,243,316,3,74,211,260,187,58,107,106,156,183,199,248,153]",-28.79998899,9.399994761,1,0,0,0,24,24,101,1,,,
,,,,,,,,,,,,,FF,,,,,,,,0.782615,,,,,,,,,,,,,,,,,,,,,,,5c573e54e9813700018acc31,60a7d7fc0ede097370f253f0,2021-05-21_16h56.26.464,Simcolourproject_2stim_asymm_v5,2020.2.10,Win32,60,60a5f9bf14d0aa2821c4bb84,,,,,18,76.80001259,-43.40003044,1,0,0,response3disk,,5,-11.99998873,-2.600005418,1,0,0,rectangle,-11.99998873,-2.600005418,1,0,0,1,"[171,58,186,212,67,243,316,3,74,211,260,187,58,107,106,156,183,199,248,153]",-11.99998873,-2.600005418,1,0,0,0,25,25,128,1,,,
,,,,,,,,,,,,,FF,,,,,,,,1.032905,,,,,,,,,,,,,,,,,,,,,,,5c573e54e9813700018acc31,60a7d7fc0ede097370f253f0,2021-05-21_16h56.26.464,Simcolourproject_2stim_asymm_v5,2020.2.10,Win32,60,60a5f9bf14d0aa2821c4bb84,,,,,1332,94.40001285,45.3999953,1,0,0,response1disk,,6,14.40001166,6.999994725,1,0,0,rectangle,14.40001166,6.999994725,1,0,0,6,"[171,58,186,212,67,243,316,3,74,211,260,187,58,107,106,156,183,199,248,153]",14.40001166,6.999994725,1,0,0,0,26,26,37,1,,,
,,,,,,,,,,,,,FF,,,,,,,,0.766675,,,,,,,,,,,,,,,,,,,,,,,5c573e54e9813700018acc31,60a7d7fc0ede097370f253f0,2021-05-21_16h56.26.464,Simcolourproject_2stim_asymm_v5,2020.2.10,Win32,60,60a5f9bf14d0aa2821c4bb84,,,,,3921,79.20001262,30.99999508,1,0,0,response1disk,,6,14.40001166,0.59999463,1,0,0,rectangle,14.40001166,0.59999463,1,0,0,0,"[171,58,186,212,67,243,316,3,74,211,260,187,58,107,106,156,183,199,248,153]",14.40001166,0.59999463,1,0,0,0,27,27,120,1,,,
,,,,,,,,,,,,,FF,,,,,,,,0.866595,,,,,,,,,,,,,,,,,,,,,,,5c573e54e9813700018acc31,60a7d7fc0ede097370f253f0,2021-05-21_16h56.26.464,Simcolourproject_2stim_asymm_v5,2020.2.10,Win32,60,60a5f9bf14d0aa2821c4bb84,,,,,2859,78.40001261,-33.00000587,1,0,0,response3disk,,5,-0.799988568,-2.600005418,1,0,0,rectangle,-0.799988568,-2.600005418,1,0,0,2,"[171,58,186,212,67,243,316,3,74,211,260,187,58,107,106,156,183,199,248,153]",-0.799988568,-2.600005418,1,0,0,0,28,28,65,1,,,
,,,,,,,,,,,,,FF,,,,,,,,1.61639,,,,,,,,,,,,,,,,,,,,,,,5c573e54e9813700018acc31,60a7d7fc0ede097370f253f0,2021-05-21_16h56.26.464,Simcolourproject_2stim_asymm_v5,2020.2.10,Win32,60,60a5f9bf14d0aa2821c4bb84,,,,,13,39.20001203,-87.40000668,1,0,0,response3disk,,4,9.600060415,2.199970239,1,0,0,rectangle,9.600060415,2.199970239,1,0,0,2,"[171,58,186,212,67,243,316,3,74,211,260,187,58,107,106,156,183,199,248,153]",9.600060415,2.199970239,1,0,0,0,29,29,146,1,,,
,,,,,,,,,,,,,FF,,,,,,,,0.6993,,,,,,,,,,,,,,,,,,,,,,,5c573e54e9813700018acc31,60a7d7fc0ede097370f253f0,2021-05-21_16h56.26.464,Simcolourproject_2stim_asymm_v5,2020.2.10,Win32,60,60a5f9bf14d0aa2821c4bb84,,,,,1391,60.80001235,-41.00000599,1,0,0,response3disk,,5,12.80001163,-2.600005418,1,0,0,rectangle,12.80001163,-2.600005418,1,0,0,7,"[171,58,186,212,67,243,316,3,74,211,260,187,58,107,106,156,183,199,248,153]",12.80001163,-2.600005418,1,0,0,0,30,30,136,1,,,
,,,,,,,,,,,,,FF,,,,,,,,1.249735,,,,,,,,,,,,,,,,,,,,,,,5c573e54e9813700018acc31,60a7d7fc0ede097370f253f0,2021-05-21_16h56.26.464,Simcolourproject_2stim_asymm_v5,2020.2.10,Win32,60,60a5f9bf14d0aa2821c4bb84,,,,,1804,82.40001267,-51.40000615,1,0,0,response3disk,,5,4.800011516,-3.40000543,1,0,0,rectangle,4.800011516,-3.40000543,1,0,0,5,"[171,58,186,212,67,243,316,3,74,211,260,187,58,107,106,156,183,199,248,153]",4.800011516,-3.40000543,1,0,0,0,31,31,51,1,,,
,,,,,,,,,,,,,FF,,,,,,,,0.966435,,,,,,,,,,,,,,,,,,,,,,,5c573e54e9813700018acc31,60a7d7fc0ede097370f253f0,2021-05-21_16h56.26.464,Simcolourproject_2stim_asymm_v5,2020.2.10,Win32,60,60a5f9bf14d0aa2821c4bb84,,,,,3922,83.20001268,-37.00000593,1,0,0,response3disk,,5,9.600060415,-5.80002988,1,0,0,rectangle,9.600060415,-5.80002988,1,0,0,1,"[171,58,186,212,67,243,316,3,74,211,260,187,58,107,106,156,183,199,248,153]",9.600060415,-5.80002988,1,0,0,0,32,32,35,1,,,
,,,,,,,,,,,,,FF,,,,,,,,0.73283,,,,,,,,,,,,,,,,,,,,,,,5c573e54e9813700018acc31,60a7d7fc0ede097370f253f0,2021-05-21_16h56.26.464,Simcolourproject_2stim_asymm_v5,2020.2.10,Win32,60,60a5f9bf14d0aa2821c4bb84,,,,,1760,64.80001241,-45.80003048,1,0,0,response3disk,,5,9.600060415,-3.40000543,1,0,0,rectangle,9.600060415,-3.40000543,1,0,0,0,"[171,58,186,212,67,243,316,3,74,211,260,187,58,107,106,156,183,199,248,153]",9.600060415,-3.40000543,1,0,0,0,33,33,15,1,,,
,,,,,,,,,,,,,FF,,,,,,,,1.616275,,,,,,,,,,,,,,,,,,,,,,,5c573e54e9813700018acc31,60a7d7fc0ede097370f253f0,2021-05-21_16h56.26.464,Simcolourproject_2stim_asymm_v5,2020.2.10,Win32,60,60a5f9bf14d0aa2821c4bb84,,,,,4304,80.80001265,44.59999529,1,0,0,response1disk,,6,24.0000118,10.99999478,1,0,0,rectangle,24.0000118,10.99999478,1,0,0,1,"[171,58,186,212,67,243,316,3,74,211,260,187,58,107,106,156,183,199,248,153]",24.0000118,10.99999478,1,0,0,0,34,34,57,1,,,
,,,,,,,,,,,,,FF,,,,,,,,0.61648,,,,,,,,,,,,,,,,,,,,,,,5c573e54e9813700018acc31,60a7d7fc0ede097370f253f0,2021-05-21_16h56.26.464,Simcolourproject_2stim_asymm_v5,2020.2.10,Win32,60,60a5f9bf14d0aa2821c4bb84,,,,,1181,72.80001253,39.79999521,1,0,0,response1disk,,6,27.20001185,6.999994725,1,0,0,rectangle,27.20001185,6.999994725,1,0,0,6,"[171,58,186,212,67,243,316,3,74,211,260,187,58,107,106,156,183,199,248,153]",27.20001185,6.999994725,1,0,0,0,35,35,98,1,,,
,,,,,,,,,,,,,FF,,,,,,,,0.94954,,,,,,,,,,,,,,,,,,,,,,,5c573e54e9813700018acc31,60a7d7fc0ede097370f253f0,2021-05-21_16h56.26.464,Simcolourproject_2stim_asymm_v5,2020.2.10,Win32,60,60a5f9bf14d0aa2821c4bb84,,,,,2207,90.40001279,23.79999498,1,0,0,response1disk,,6,21.60006059,2.199970239,1,0,0,rectangle,21.60006059,2.199970239,1,0,0,6,"[171,58,186,212,67,243,316,3,74,211,260,187,58,107,106,156,183,199,248,153]",21.60006059,2.199970239,1,0,0,0,36,36,29,1,,,
,,,,,,,,,,,,,FF,,,,,,,,1.049755,,,,,,,,,,,,,,,,,,,,,,,5c573e54e9813700018acc31,60a7d7fc0ede097370f253f0,2021-05-21_16h56.26.464,Simcolourproject_2stim_asymm_v5,2020.2.10,Win32,60,60a5f9bf14d0aa2821c4bb84,,,,,3978,35.20001197,-104.2000069,1,0,0,response3disk,,4,5.600060356,-10.60000554,1,0,0,rectangle,5.600060356,-10.60000554,1,0,0,1,"[171,58,186,212,67,243,316,3,74,211,260,187,58,107,106,156,183,199,248,153]",5.600060356,-10.60000554,1,0,0,0,37,37,106,1,,,
,,,,,,,,,,,,,FF,,,,,,,,0.76619,,,,,,,,,,,,,,,,,,,,,,,5c573e54e9813700018acc31,60a7d7fc0ede097370f253f0,2021-05-21_16h56.26.464,Simcolourproject_2stim_asymm_v5,2020.2.10,Win32,60,60a5f9bf14d0aa2821c4bb84,,,,,4182,-34.39994024,-83.40000662,1,0,0,response5disk,,3,6.400011539,10.19997036,1,0,0,rectangle,6.400011539,10.19997036,1,0,0,3,"[171,58,186,212,67,243,316,3,74,211,260,187,58,107,106,156,183,199,248,153]",6.400011539,10.19997036,1,0,0,0,38,38,93,1,,,
,,,,,,,,,,,,,FF,,,,,,,,8.46465,,,,,,,,,,,,,,,,,,,,,,,5c573e54e9813700018acc31,60a7d7fc0ede097370f253f0,2021-05-21_16h56.26.464,Simcolourproject_2stim_asymm_v5,2020.2.10,Win32,60,60a5f9bf14d0aa2821c4bb84,,,,,2640,54.40001225,-87.40000668,1,0,0,response3disk,,4,-10.39993988,4.599994689,1,0,0,rectangle,-10.39993988,4.599994689,1,0,0,1,"[171,58,186,212,67,243,316,3,74,211,260,187,58,107,106,156,183,199,248,153]",-10.39993988,4.599994689,1,0,0,0,39,39,41,1,,,
,,,,,,,,,,,,,FF,,,,,,,,1.233175,,,,,,,,,,,,,,,,,,,,,,,5c573e54e9813700018acc31,60a7d7fc0ede097370f253f0,2021-05-21_16h56.26.464,Simcolourproject_2stim_asymm_v5,2020.2.10,Win32,60,60a5f9bf14d0aa2821c4bb84,,,,,3607,92.80001283,-41.00000599,1,0,0,response3disk,,5,-6.399939823,-5.000005454,1,0,0,rectangle,-6.399939823,-5.000005454,1,0,0,6,"[171,58,186,212,67,243,316,3,74,211,260,187,58,107,106,156,183,199,248,153]",-6.399939823,-5.000005454,1,0,0,0,40,40,0,1,,,
,,,,,,,,,,,,,FF,,,,,,,,0.683005,,,,,,,,,,,,,,,,,,,,,,,5c573e54e9813700018acc31,60a7d7fc0ede097370f253f0,2021-05-21_16h56.26.464,Simcolourproject_2stim_asymm_v5,2020.2.10,Win32,60,60a5f9bf14d0aa2821c4bb84,,,,,2971,90.40001279,-49.00000611,1,0,0,response3disk,,5,24.80001181,-5.80002988,1,0,0,rectangle,24.80001181,-5.80002988,1,0,0,3,"[171,58,186,212,67,243,316,3,74,211,260,187,58,107,106,156,183,199,248,153]",24.80001181,-5.80002988,1,0,0,0,41,41,43,1,,,
,,,,,,,,,,,,,FF,,,,,,,,1.466445,,,,,,,,,,,,,,,,,,,,,,,5c573e54e9813700018acc31,60a7d7fc0ede097370f253f0,2021-05-21_16h56.26.464,Simcolourproject_2stim_asymm_v5,2020.2.10,Win32,60,60a5f9bf14d0aa2821c4bb84,,,,,3901,-91.99998993,-63.40000632,1,0,0,response5disk,,5,-28.79998899,-12.20000556,1,0,0,rectangle,-28.79998899,-12.20000556,1,0,0,6,"[171,58,186,212,67,243,316,3,74,211,260,187,58,107,106,156,183,199,248,153]",-28.79998899,-12.20000556,1,0,0,0,42,42,10,1,,,
,,,,,,,,,,,,,FF,,,,,,,,0.866405,,,,,,,,,,,,,,,,,,,,,,,5c573e54e9813700018acc31,60a7d7fc0ede097370f253f0,2021-05-21_16h56.26.464,Simcolourproject_2stim_asymm_v5,2020.2.10,Win32,60,60a5f9bf14d0aa2821c4bb84,,,,,845,80.00001264,-45.00000605,1,0,0,response3disk,,5,16.80001169,-4.200005442,1,0,0,rectangle,16.80001169,-4.200005442,1,0,0,5,"[171,58,186,212,67,243,316,3,74,211,260,187,58,107,106,156,183,199,248,153]",16.80001169,-4.200005442,1,0,0,0,43,43,129,1,,,
,,,,,,,,,,,,,FF,,,,,,,,1.249795,,,,,,,,,,,,,,,,,,,,,,,5c573e54e9813700018acc31,60a7d7fc0ede097370f253f0,2021-05-21_16h56.26.464,Simcolourproject_2stim_asymm_v5,2020.2.10,Win32,60,60a5f9bf14d0aa2821c4bb84,,,,,250,62.40001237,-34.60000589,1,0,0,response3disk,,5,28.80001187,-2.600005418,1,0,0,rectangle,28.80001187,-2.600005418,1,0,0,4,"[171,58,186,212,67,243,316,3,74,211,260,187,58,107,106,156,183,199,248,153]",28.80001187,-2.600005418,1,0,0,0,44,44,80,1,,,
,,,,,,,,,,,,,FF,,,,,,,,0.79932,,,,,,,,,,,,,,,,,,,,,,,5c573e54e9813700018acc31,60a7d7fc0ede097370f253f0,2021-05-21_16h56.26.464,Simcolourproject_2stim_asymm_v5,2020.2.10,Win32,60,60a5f9bf14d0aa2821c4bb84,,,,,3447,43.20001209,-89.00000671,1,0,0,response3disk,,4,16.80001169,-0.200005382,1,0,0,rectangle,16.80001169,-0.200005382,1,0,0,1,"[171,58,186,212,67,243,316,3,74,211,260,187,58,107,106,156,183,199,248,153]",16.80001169,-0.200005382,1,0,0,0,45,45,62,1,,,
,,,,,,,,,,,,,FF,,,,,,,,1.382915,,,,,,,,,,,,,,,,,,,,,,,5c573e54e9813700018acc31,60a7d7fc0ede097370f253f0,2021-05-21_16h56.26.464,Simcolourproject_2stim_asymm_v5,2020.2.10,Win32,60,60a5f9bf14d0aa2821c4bb84,,,,,2471,-90.39994107,34.99999514,1,0,0,response7disk,,1,-22.39994006,9.399994761,1,0,0,rectangle,-22.39994006,9.399994761,1,0,0,4,"[171,58,186,212,67,243,316,3,74,211,260,187,58,107,106,156,183,199,248,153]",-22.39994006,9.399994761,1,0,0,0,46,46,5,1,,,
,,,,,,,,,,,,,FF,,,,,,,,0.966315,,,,,,,,,,,,,,,,,,,,,,,5c573e54e9813700018acc31,60a7d7fc0ede097370f253f0,2021-05-21_16h56.26.464,Simcolourproject_2stim_asymm_v5,2020.2.10,Win32,60,60a5f9bf14d0aa2821c4bb84,,,,,1851,62.40001237,34.19997072,1,0,0,response1disk,,6,13.60006047,6.199970299,1,0,0,rectangle,13.60006047,6.199970299,1,0,0,0,"[171,58,186,212,67,243,316,3,74,211,260,187,58,107,106,156,183,199,248,153]",13.60006047,6.199970299,1,0,0,0,47,47,7,1,,,
,,,,,,,,,,,,,FF,,,,,,,,0.93306,,,,,,,,,,,,,,,,,,,,,,,5c573e54e9813700018acc31,60a7d7fc0ede097370f253f0,2021-05-21_16h56.26.464,Simcolourproject_2stim_asymm_v5,2020.2.10,Win32,60,60a5f9bf14d0aa2821c4bb84,,,,,1199,-63.1999895,-79.40000656,1,0,0,response5disk,,3,-8.799988687,-5.80002988,1,0,0,rectangle,-8.799988687,-5.80002988,1,0,0,0,"[171,58,186,212,67,243,316,3,74,211,260,187,58,107,106,156,183,199,248,153]",-8.799988687,-5.80002988,1,0,0,0,48,48,69,1,,,
,,,,,,,,,,,,,FF,,,,,,,,0.69948,,,,,,,,,,,,,,,,,,,,,,,5c573e54e9813700018acc31,60a7d7fc0ede097370f253f0,2021-05-21_16h56.26.464,Simcolourproject_2stim_asymm_v5,2020.2.10,Win32,60,60a5f9bf14d0aa2821c4bb84,,,,,3795,57.6000123,-77.80000654,1,0,0,response3disk,,4,20.00001174,4.599994689,1,0,0,rectangle,20.00001174,4.599994689,1,0,0,0,"[171,58,186,212,67,243,316,3,74,211,260,187,58,107,106,156,183,199,248,153]",20.00001174,4.599994689,1,0,0,0,49,49,8,1,,,
,,,,,,,,,,,,,FF,,,,,,,,0.58306,,,,,,,,,,,,,,,,,,,,,,,5c573e54e9813700018acc31,60a7d7fc0ede097370f253f0,2021-05-21_16h56.26.464,Simcolourproject_2stim_asymm_v5,2020.2.10,Win32,60,60a5f9bf14d0aa2821c4bb84,,,,,1920,80.00001264,-37.00000593,1,0,0,response3disk,,5,28.80001187,10.99999478,1,0,0,rectangle,28.80001187,10.99999478,1,0,0,0,"[171,58,186,212,67,243,316,3,74,211,260,187,58,107,106,156,183,199,248,153]",28.80001187,10.99999478,1,0,0,0,50,50,89,1,,,
,,,,,,,,,,,,,FF,,,,,,,,0.866425,,,,,,,,,,,,,,,,,,,,,,,5c573e54e9813700018acc31,60a7d7fc0ede097370f253f0,2021-05-21_16h56.26.464,Simcolourproject_2stim_asymm_v5,2020.2.10,Win32,60,60a5f9bf14d0aa2821c4bb84,,,,,2878,69.60001248,-54.60005502,1,0,0,response3disk,,5,8.000011563,12.59999481,1,0,0,rectangle,8.000011563,12.59999481,1,0,0,7,"[171,58,186,212,67,243,316,3,74,211,260,187,58,107,106,156,183,199,248,153]",8.000011563,12.59999481,1,0,0,0,51,51,108,1,,,
,,,,,,,,,,,,,FF,,,,,,,,2.266145,,,,,,,,,,,,,,,,,,,,,,,5c573e54e9813700018acc31,60a7d7fc0ede097370f253f0,2021-05-21_16h56.26.464,Simcolourproject_2stim_asymm_v5,2020.2.10,Win32,60,60a5f9bf14d0aa2821c4bb84,,,,,3711,-76.7999897,-51.40000615,1,0,0,response5disk,,5,3.200011492,1.399994642,1,0,0,rectangle,3.200011492,1.399994642,1,0,0,7,"[171,58,186,212,67,243,316,3,74,211,260,187,58,107,106,156,183,199,248,153]",3.200011492,1.399994642,1,0,0,0,52,52,39,1,,,
,,,,,,,,,,,,,FF,,,,,,,,1.24968,,,,,,,,,,,,,,,,,,,,,,,5c573e54e9813700018acc31,60a7d7fc0ede097370f253f0,2021-05-21_16h56.26.464,Simcolourproject_2stim_asymm_v5,2020.2.10,Win32,60,60a5f9bf14d0aa2821c4bb84,,,,,3563,-39.99998915,-70.60005526,1,0,0,response5disk,,3,-7.199988663,-1.000005394,1,0,0,rectangle,-7.199988663,-1.000005394,1,0,0,0,"[171,58,186,212,67,243,316,3,74,211,260,187,58,107,106,156,183,199,248,153]",-7.199988663,-1.000005394,1,0,0,0,53,53,115,1,,,
,,,,,,,,,,,,,FF,,,,,,,,0.616305,,,,,,,,,,,,,,,,,,,,,,,5c573e54e9813700018acc31,60a7d7fc0ede097370f253f0,2021-05-21_16h56.26.464,Simcolourproject_2stim_asymm_v5,2020.2.10,Win32,60,60a5f9bf14d0aa2821c4bb84,,,,,319,100.8000129,-50.60005496,1,0,0,response3disk,,5,12.80001163,-7.40000549,1,0,0,rectangle,12.80001163,-7.40000549,1,0,0,6,"[171,58,186,212,67,243,316,3,74,211,260,187,58,107,106,156,183,199,248,153]",12.80001163,-7.40000549,1,0,0,0,54,54,137,1,,,
,,,,,,,,,,,,,FF,,,,,,,,0.54969,,,,,,,,,,,,,,,,,,,,,,,5c573e54e9813700018acc31,60a7d7fc0ede097370f253f0,2021-05-21_16h56.26.464,Simcolourproject_2stim_asymm_v5,2020.2.10,Win32,60,60a5f9bf14d0aa2821c4bb84,,,,,4151,55.20001227,-73.80000648,1,0,0,response3disk,,4,16.80001169,-8.200005502,1,0,0,rectangle,16.80001169,-8.200005502,1,0,0,4,"[171,58,186,212,67,243,316,3,74,211,260,187,58,107,106,156,183,199,248,153]",16.80001169,-8.200005502,1,0,0,0,55,55,158,1,,,
,,,,,,,,,,,,,FF,,,,,,,,0.716485,,,,,,,,,,,,,,,,,,,,,,,5c573e54e9813700018acc31,60a7d7fc0ede097370f253f0,2021-05-21_16h56.26.464,Simcolourproject_2stim_asymm_v5,2020.2.10,Win32,60,60a5f9bf14d0aa2821c4bb84,,,,,3836,-65.59998953,-34.60000589,1,0,0,response5disk,,4,1.600060296,2.999994665,1,0,0,rectangle,1.600060296,2.999994665,1,0,0,4,"[171,58,186,212,67,243,316,3,74,211,260,187,58,107,106,156,183,199,248,153]",1.600060296,2.999994665,1,0,0,0,56,56,152,1,,,
,,,,,,,,,,,,,FF,,,,,,,,0.583385,,,,,,,,,,,,,,,,,,,,,,,5c573e54e9813700018acc31,60a7d7fc0ede097370f253f0,2021-05-21_16h56.26.464,Simcolourproject_2stim_asymm_v5,2020.2.10,Win32,60,60a5f9bf14d0aa2821c4bb84,,,,,517,65.60001242,-40.20000598,1,0,0,response3disk,,5,16.00001168,-3.40000543,1,0,0,rectangle,-73.59998965,43.79999527,1,0,0,1,"[171,58,186,212,67,243,316,3,74,211,260,187,58,107,106,156,183,199,248,153]",-3.199988604,-6.600005478,1,0,0,0,57,57,74,1,,response7disk_3,rectangle
,,,,,,,,,,,,,FF,,,,,,,,2.01592,,,,,,,,,,,,,,,,,,,,,,,5c573e54e9813700018acc31,60a7d7fc0ede097370f253f0,2021-05-21_16h56.26.464,Simcolourproject_2stim_asymm_v5,2020.2.10,Win32,60,60a5f9bf14d0aa2821c4bb84,,,,,1444,96.00001287,37.39999518,1,0,0,response1disk,,6,-11.19998872,11.7999948,1,0,0,rectangle,-11.19998872,11.7999948,1,0,0,2,"[171,58,186,212,67,243,316,3,74,211,260,187,58,107,106,156,183,199,248,153]",-11.19998872,11.7999948,1,0,0,0,58,58,117,1,,,
,,,,,,,,,,,,,FF,,,,,,,,1.149645,,,,,,,,,,,,,,,,,,,,,,,5c573e54e9813700018acc31,60a7d7fc0ede097370f253f0,2021-05-21_16h56.26.464,Simcolourproject_2stim_asymm_v5,2020.2.10,Win32,60,60a5f9bf14d0aa2821c4bb84,,,,,1564,82.40001267,-45.00000605,1,0,0,response3disk,,5,12.00001162,4.599994689,1,0,0,rectangle,12.00001162,4.599994689,1,0,0,0,"[171,58,186,212,67,243,316,3,74,211,260,187,58,107,106,156,183,199,248,153]",12.00001162,4.599994689,1,0,0,0,59,59,4,1,,,
,,,,,,,,,,,,,FF,,,,,,,,0.63306,,,,,,,,,,,,,,,,,,,,,,,5c573e54e9813700018acc31,60a7d7fc0ede097370f253f0,2021-05-21_16h56.26.464,Simcolourproject_2stim_asymm_v5,2020.2.10,Win32,60,60a5f9bf14d0aa2821c4bb84,,,,,1030,109.6000131,34.99999514,1,0,0,response1disk,,6,-10.39993988,-3.40000543,1,0,0,rectangle,-10.39993988,-3.40000543,1,0,0,1,"[171,58,186,212,67,243,316,3,74,211,260,187,58,107,106,156,183,199,248,153]",-10.39993988,-3.40000543,1,0,0,0,60,60,47,1,,,
,,,,,,,,,,,,,FF,,,,,,,,1.666185,,,,,,,,,,,,,,,,,,,,,,,5c573e54e9813700018acc31,60a7d7fc0ede097370f253f0,2021-05-21_16h56.26.464,Simcolourproject_2stim_asymm_v5,2020.2.10,Win32,60,60a5f9bf14d0aa2821c4bb84,,,,,3040,-73.59998965,-43.40003044,1,0,0,response5disk,,6,1.14441E-05,-9.800029939,1,0,0,rectangle,1.14441E-05,-9.800029939,1,0,0,7,"[171,58,186,212,67,243,316,3,74,211,260,187,58,107,106,156,183,199,248,153]",1.14441E-05,-9.800029939,1,0,0,0,61,61,28,1,,,
,,,,,,,,,,,,,FF,,,,,,,,0.88303,,,,,,,,,,,,,,,,,,,,,,,5c573e54e9813700018acc31,60a7d7fc0ede097370f253f0,2021-05-21_16h56.26.464,Simcolourproject_2stim_asymm_v5,2020.2.10,Win32,60,60a5f9bf14d0aa2821c4bb84,,,,,325,84.0000127,-40.20000598,1,0,0,response3disk,,5,32.00001192,-0.200005382,1,0,0,rectangle,32.00001192,-0.200005382,1,0,0,3,"[171,58,186,212,67,243,316,3,74,211,260,187,58,107,106,156,183,199,248,153]",32.00001192,-0.200005382,1,0,0,0,62,62,66,1,,,
,,,,,,,,,,,,,FF,,,,,,,,0.916225,,,,,,,,,,,,,,,,,,,,,,,5c573e54e9813700018acc31,60a7d7fc0ede097370f253f0,2021-05-21_16h56.26.464,Simcolourproject_2stim_asymm_v5,2020.2.10,Win32,60,60a5f9bf14d0aa2821c4bb84,,,,,162,-99.99999005,-42.60007926,1,0,0,response5disk,,5,-22.39994006,2.199970239,1,0,0,rectangle,-22.39994006,2.199970239,1,0,0,2,"[171,58,186,212,67,243,316,3,74,211,260,187,58,107,106,156,183,199,248,153]",-22.39994006,2.199970239,1,0,0,0,63,63,134,1,,,
,,,,,,,,,,,,,FF,,,,,,,,1.099955,,,,,,,,,,,,,,,,,,,,,,,5c573e54e9813700018acc31,60a7d7fc0ede097370f253f0,2021-05-21_16h56.26.464,Simcolourproject_2stim_asymm_v5,2020.2.10,Win32,60,60a5f9bf14d0aa2821c4bb84,,,,,3839,-53.59998935,-31.40000585,1,0,0,response5disk,,5,-12.79998875,7.799994737,1,0,0,rectangle,-12.79998875,7.799994737,1,0,0,5,"[171,58,186,212,67,243,316,3,74,211,260,187,58,107,106,156,183,199,248,153]",-12.79998875,7.799994737,1,0,0,0,64,64,64,1,,,
,,,,,,,,,,,,,FF,,,,,,,,1.333015,,,,,,,,,,,,,,,,,,,,,,,5c573e54e9813700018acc31,60a7d7fc0ede097370f253f0,2021-05-21_16h56.26.464,Simcolourproject_2stim_asymm_v5,2020.2.10,Win32,60,60a5f9bf14d0aa2821c4bb84,,,,,3306,-41.59998918,-87.40000668,1,0,0,response5disk,,3,-5.599988639,-0.200005382,1,0,0,rectangle,-5.599988639,-0.200005382,1,0,0,1,"[171,58,186,212,67,243,316,3,74,211,260,187,58,107,106,156,183,199,248,153]",-5.599988639,-0.200005382,1,0,0,0,65,65,21,1,,,
,,,,,,,,,,,,,FF,,,,,,,,0.949835,,,,,,,,,,,,,,,,,,,,,,,5c573e54e9813700018acc31,60a7d7fc0ede097370f253f0,2021-05-21_16h56.26.464,Simcolourproject_2stim_asymm_v5,2020.2.10,Win32,60,60a5f9bf14d0aa2821c4bb84,,,,,3210,-40.79998916,-73.00000647,1,0,0,response5disk,,3,-8.799988687,2.199970239,1,0,0,rectangle,-46.39994042,-99.40000686,1,0,0,3,"[171,58,186,212,67,243,316,3,74,211,260,187,58,107,106,156,183,199,248,153]",2.40001148,-1.80002982,1,0,0,0,66,66,71,1,,response5disk_3,rectangle
,,,,,,,,,,,,,FF,,,,,,,,1.081945,,,,,,,,,,,,,,,,,,,,,,,5c573e54e9813700018acc31,60a7d7fc0ede097370f253f0,2021-05-21_16h56.26.464,Simcolourproject_2stim_asymm_v5,2020.2.10,Win32,60,60a5f9bf14d0aa2821c4bb84,,,,,1960,-74.39994084,38.9999952,1,0,0,response7disk,,1,-8.799988687,-4.200005442,1,0,0,rectangle,-8.799988687,-4.200005442,1,0,0,5,"[171,58,186,212,67,243,316,3,74,211,260,187,58,107,106,156,183,199,248,153]",-8.799988687,-4.200005442,1,0,0,0,67,67,88,1,,,
,,,,,,,,,,,,,FF,,,,,,,,1.41636,,,,,,,,,,,,,,,,,,,,,,,5c573e54e9813700018acc31,60a7d7fc0ede097370f253f0,2021-05-21_16h56.26.464,Simcolourproject_2stim_asymm_v5,2020.2.10,Win32,60,60a5f9bf14d0aa2821c4bb84,,,,,4162,-45.59998924,-93.00000677,1,0,0,response5disk,,3,-15.99998879,-9.000005513,1,0,0,rectangle,-15.99998879,-9.000005513,1,0,0,7,"[171,58,186,212,67,243,316,3,74,211,260,187,58,107,106,156,183,199,248,153]",-15.99998879,-9.000005513,1,0,0,0,68,68,94,1,,,
,,,,,,,,,,,,,FF,,,,,,,,0.88289,,,,,,,,,,,,,,,,,,,,,,,5c573e54e9813700018acc31,60a7d7fc0ede097370f253f0,2021-05-21_16h56.26.464,Simcolourproject_2stim_asymm_v5,2020.2.10,Win32,60,60a5f9bf14d0aa2821c4bb84,,,,,2033,-61.59998947,33.39999512,1,0,0,response7disk,,1,3.200011492,4.599994689,1,0,0,rectangle,3.200011492,4.599994689,1,0,0,1,"[171,58,186,212,67,243,316,3,74,211,260,187,58,107,106,156,183,199,248,153]",3.200011492,4.599994689,1,0,0,0,69,69,83,1,,,
,,,,,,,,,,,,,FF,,,,,,,,1.0496,,,,,,,,,,,,,,,,,,,,,,,5c573e54e9813700018acc31,60a7d7fc0ede097370f253f0,2021-05-21_16h56.26.464,Simcolourproject_2stim_asymm_v5,2020.2.10,Win32,60,60a5f9bf14d0aa2821c4bb84,,,,,2552,88.80001277,-52.20000616,1,0,0,response3disk,,5,15.20001167,-5.80002988,1,0,0,rectangle,15.20001167,-5.80002988,1,0,0,1,"[171,58,186,212,67,243,316,3,74,211,260,187,58,107,106,156,183,199,248,153]",15.20001167,-5.80002988,1,0,0,0,70,70,149,1,,,
,,,,,,,,,,,,,FF,,,,,,,,0.716615,,,,,,,,,,,,,,,,,,,,,,,5c573e54e9813700018acc31,60a7d7fc0ede097370f253f0,2021-05-21_16h56.26.464,Simcolourproject_2stim_asymm_v5,2020.2.10,Win32,60,60a5f9bf14d0aa2821c4bb84,,,,,2520,92.80001283,33.39999512,1,0,0,response1disk,,6,1.600060296,-5.000005454,1,0,0,rectangle,1.600060296,-5.000005454,1,0,0,3,"[171,58,186,212,67,243,316,3,74,211,260,187,58,107,106,156,183,199,248,153]",1.600060296,-5.000005454,1,0,0,0,71,71,48,1,,,
,,,,,,,,,,,,,FF,,,,,,,,0.949465,,,,,,,,,,,,,,,,,,,,,,,5c573e54e9813700018acc31,60a7d7fc0ede097370f253f0,2021-05-21_16h56.26.464,Simcolourproject_2stim_asymm_v5,2020.2.10,Win32,60,60a5f9bf14d0aa2821c4bb84,,,,,3719,-101.5999901,46.1999709,1,0,0,response7disk,,1,1.600060296,1.399994642,1,0,0,rectangle,1.600060296,1.399994642,1,0,0,7,"[171,58,186,212,67,243,316,3,74,211,260,187,58,107,106,156,183,199,248,153]",1.600060296,1.399994642,1,0,0,0,72,72,6,1,,,
,,,,,,,,,,,,,FF,,,,,,,,1.21607,,,,,,,,,,,,,,,,,,,,,,,5c573e54e9813700018acc31,60a7d7fc0ede097370f253f0,2021-05-21_16h56.26.464,Simcolourproject_2stim_asymm_v5,2020.2.10,Win32,60,60a5f9bf14d0aa2821c4bb84,,,,,2704,-36.7999891,-92.20000675,1,0,0,response5disk,,3,-14.39993994,-3.40000543,1,0,0,rectangle,113.6000131,38.9999952,1,0,0,6,"[171,58,186,212,67,243,316,3,74,211,260,187,58,107,106,156,183,199,248,153]",0.800011456,-5.000005454,1,0,0,0,73,73,96,1,,response1disk_3,rectangle
,,,,,,,,,,,,,FF,,,,,,,,1.249465,,,,,,,,,,,,,,,,,,,,,,,5c573e54e9813700018acc31,60a7d7fc0ede097370f253f0,2021-05-21_16h56.26.464,Simcolourproject_2stim_asymm_v5,2020.2.10,Win32,60,60a5f9bf14d0aa2821c4bb84,,,,,2057,95.20001286,35.79999515,1,0,0,response1disk,,6,3.200011492,-13.80003,1,0,0,rectangle,3.200011492,-13.80003,1,0,0,4,"[171,58,186,212,67,243,316,3,74,211,260,187,58,107,106,156,183,199,248,153]",3.200011492,-13.80003,1,0,0,0,74,74,107,1,,,
,,,,,,,,,,,,,FF,,,,,,,,0.799475,,,,,,,,,,,,,,,,,,,,,,,5c573e54e9813700018acc31,60a7d7fc0ede097370f253f0,2021-05-21_16h56.26.464,Simcolourproject_2stim_asymm_v5,2020.2.10,Win32,60,60a5f9bf14d0aa2821c4bb84,,,,,1518,124.0000133,-49.00000611,1,0,0,response3disk,,5,17.60006053,3.799994677,1,0,0,rectangle,17.60006053,3.799994677,1,0,0,2,"[171,58,186,212,67,243,316,3,74,211,260,187,58,107,106,156,183,199,248,153]",17.60006053,3.799994677,1,0,0,0,75,75,54,1,,,
,,,,,,,,,,,,,FF,,,,,,,,0.76622,,,,,,,,,,,,,,,,,,,,,,,5c573e54e9813700018acc31,60a7d7fc0ede097370f253f0,2021-05-21_16h56.26.464,Simcolourproject_2stim_asymm_v5,2020.2.10,Win32,60,60a5f9bf14d0aa2821c4bb84,,,,,3695,98.40001291,26.1999706,1,0,0,response1disk,,6,20.00001174,-4.200005442,1,0,0,rectangle,20.00001174,-4.200005442,1,0,0,1,"[171,58,186,212,67,243,316,3,74,211,260,187,58,107,106,156,183,199,248,153]",20.00001174,-4.200005442,1,0,0,0,76,76,24,1,,,
,,,,,,,,,,,,,FF,,,,,,,,0.682975,,,,,,,,,,,,,,,,,,,,,,,5c573e54e9813700018acc31,60a7d7fc0ede097370f253f0,2021-05-21_16h56.26.464,Simcolourproject_2stim_asymm_v5,2020.2.10,Win32,60,60a5f9bf14d0aa2821c4bb84,,,,,1239,92.80001283,-49.00000611,1,0,0,response3disk,,5,4.800011516,8.599994749,1,0,0,rectangle,4.800011516,8.599994749,1,0,0,0,"[171,58,186,212,67,243,316,3,74,211,260,187,58,107,106,156,183,199,248,153]",4.800011516,8.599994749,1,0,0,0,77,77,147,1,,,
,,,,,,,,,,,,,FF,,,,,,,,0.632895,,,,,,,,,,,,,,,,,,,,,,,5c573e54e9813700018acc31,60a7d7fc0ede097370f253f0,2021-05-21_16h56.26.464,Simcolourproject_2stim_asymm_v5,2020.2.10,Win32,60,60a5f9bf14d0aa2821c4bb84,,,,,3989,91.2000128,-33.00000587,1,0,0,response3disk,,5,-3.199988604,1.399994642,1,0,0,rectangle,-3.199988604,1.399994642,1,0,0,4,"[171,58,186,212,67,243,316,3,74,211,260,187,58,107,106,156,183,199,248,153]",-3.199988604,1.399994642,1,0,0,0,78,78,63,1,,,
,,,,,,,,,,,,,FF,,,,,,,,1.166215,,,,,,,,,,,,,,,,,,,,,,,5c573e54e9813700018acc31,60a7d7fc0ede097370f253f0,2021-05-21_16h56.26.464,Simcolourproject_2stim_asymm_v5,2020.2.10,Win32,60,60a5f9bf14d0aa2821c4bb84,,,,,3435,-39.99998915,-93.80000678,1,0,0,response5disk,,3,-31.19998902,5.399994701,1,0,0,rectangle,-31.19998902,5.399994701,1,0,0,1,"[171,58,186,212,67,243,316,3,74,211,260,187,58,107,106,156,183,199,248,153]",-31.19998902,5.399994701,1,0,0,0,79,79,82,1,,,
,,,,,,,,,,,,,FF,,,,,,,,0.616455,,,,,,,,,,,,,,,,,,,,,,,5c573e54e9813700018acc31,60a7d7fc0ede097370f253f0,2021-05-21_16h56.26.464,Simcolourproject_2stim_asymm_v5,2020.2.10,Win32,60,60a5f9bf14d0aa2821c4bb84,,,,,1571,100.8000129,-37.80003036,1,0,0,response3disk,,5,19.20001173,1.399994642,1,0,0,rectangle,19.20001173,1.399994642,1,0,0,1,"[171,58,186,212,67,243,316,3,74,211,260,187,58,107,106,156,183,199,248,153]",19.20001173,1.399994642,1,0,0,0,80,80,145,1,,,
,,,,,,,,,,,,,FF,,,,,,,,0.649925,,,,,,,,,,,,,,,,,,,,,,,5c573e54e9813700018acc31,60a7d7fc0ede097370f253f0,2021-05-21_16h56.26.464,Simcolourproject_2stim_asymm_v5,2020.2.10,Win32,60,60a5f9bf14d0aa2821c4bb84,,,,,1285,100.8000129,42.19997084,1,0,0,response1disk,,6,-11.99998873,3.799994677,1,0,0,rectangle,-11.99998873,3.799994677,1,0,0,1,"[171,58,186,212,67,243,316,3,74,211,260,187,58,107,106,156,183,199,248,153]",-11.99998873,3.799994677,1,0,0,0,81,81,159,1,,,
,,,,,,,,,,,,,FF,,,,,,,,0.866245,,,,,,,,,,,,,,,,,,,,,,,5c573e54e9813700018acc31,60a7d7fc0ede097370f253f0,2021-05-21_16h56.26.464,Simcolourproject_2stim_asymm_v5,2020.2.10,Win32,60,60a5f9bf14d0aa2821c4bb84,,,,,1020,68.00001246,46.1999709,1,0,0,response1disk,,6,14.40001166,5.399994701,1,0,0,rectangle,14.40001166,5.399994701,1,0,0,7,"[171,58,186,212,67,243,316,3,74,211,260,187,58,107,106,156,183,199,248,153]",14.40001166,5.399994701,1,0,0,0,82,82,130,1,,,
,,,,,,,,,,,,,FF,,,,,,,,1.266155,,,,,,,,,,,,,,,,,,,,,,,5c573e54e9813700018acc31,60a7d7fc0ede097370f253f0,2021-05-21_16h56.26.464,Simcolourproject_2stim_asymm_v5,2020.2.10,Win32,60,60a5f9bf14d0aa2821c4bb84,,,,,222,-37.59998912,-85.80000666,1,0,0,response5disk,,3,-0.799988568,-1.000005394,1,0,0,rectangle,-0.799988568,-1.000005394,1,0,0,1,"[171,58,186,212,67,243,316,3,74,211,260,187,58,107,106,156,183,199,248,153]",-0.799988568,-1.000005394,1,0,0,0,83,83,155,1,,,
,,,,,,,,,,,,,FF,,,,,,,,0.89995,,,,,,,,,,,,,,,,,,,,,,,5c573e54e9813700018acc31,60a7d7fc0ede097370f253f0,2021-05-21_16h56.26.464,Simcolourproject_2stim_asymm_v5,2020.2.10,Win32,60,60a5f9bf14d0aa2821c4bb84,,,,,2951,-75.99998969,37.39999518,1,0,0,response7disk,,1,-27.19998896,9.399994761,1,0,0,rectangle,-27.19998896,9.399994761,1,0,0,0,"[171,58,186,212,67,243,316,3,74,211,260,187,58,107,106,156,183,199,248,153]",-27.19998896,9.399994761,1,0,0,0,84,84,49,1,,,
,,,,,,,,,,,,,FF,,,,,,,,0.69992,,,,,,,,,,,,,,,,,,,,,,,5c573e54e9813700018acc31,60a7d7fc0ede097370f253f0,2021-05-21_16h56.26.464,Simcolourproject_2stim_asymm_v5,2020.2.10,Win32,60,60a5f9bf14d0aa2821c4bb84,,,,,1807,64.80001241,31.79999509,1,0,0,response1disk,,6,-25.59998894,9.399994761,1,0,0,rectangle,-25.59998894,9.399994761,1,0,0,6,"[171,58,186,212,67,243,316,3,74,211,260,187,58,107,106,156,183,199,248,153]",-25.59998894,9.399994761,1,0,0,0,85,85,123,1,,,
,,,,,,,,,,,,,FF,,,,,,,,1.06586,,,,,,,,,,,,,,,,,,,,,,,5c573e54e9813700018acc31,60a7d7fc0ede097370f253f0,2021-05-21_16h56.26.464,Simcolourproject_2stim_asymm_v5,2020.2.10,Win32,60,60a5f9bf14d0aa2821c4bb84,,,,,216,88.80001277,-37.00000593,1,0,0,response3disk,,5,10.4000116,-1.80002982,1,0,0,rectangle,10.4000116,-1.80002982,1,0,0,2,"[171,58,186,212,67,243,316,3,74,211,260,187,58,107,106,156,183,199,248,153]",10.4000116,-1.80002982,1,0,0,0,86,86,58,1,,,
,,,,,,,,,,,,,FF,,,,,,,,0.89923,,,,,,,,,,,,,,,,,,,,,,,5c573e54e9813700018acc31,60a7d7fc0ede097370f253f0,2021-05-21_16h56.26.464,Simcolourproject_2stim_asymm_v5,2020.2.10,Win32,60,60a5f9bf14d0aa2821c4bb84,,,,,4085,-22.39994006,-70.60005526,1,0,0,response5disk,,3,-9.599988699,-9.000005513,1,0,0,rectangle,-9.599988699,-9.000005513,1,0,0,4,"[171,58,186,212,67,243,316,3,74,211,260,187,58,107,106,156,183,199,248,153]",-9.599988699,-9.000005513,1,0,0,0,87,87,12,1,,,
,,,,,,,,,,,,,FF,,,,,,,,0.949685,,,,,,,,,,,,,,,,,,,,,,,5c573e54e9813700018acc31,60a7d7fc0ede097370f253f0,2021-05-21_16h56.26.464,Simcolourproject_2stim_asymm_v5,2020.2.10,Win32,60,60a5f9bf14d0aa2821c4bb84,,,,,936,113.6000131,59.79999551,1,0,0,response1disk,,6,-0.799988568,1.399994642,1,0,0,rectangle,-0.799988568,1.399994642,1,0,0,3,"[171,58,186,212,67,243,316,3,74,211,260,187,58,107,106,156,183,199,248,153]",-0.799988568,1.399994642,1,0,0,0,88,88,153,1,,,
,,,,,,,,,,,,,FF,,,,,,,,0.649865,,,,,,,,,,,,,,,,,,,,,,,5c573e54e9813700018acc31,60a7d7fc0ede097370f253f0,2021-05-21_16h56.26.464,Simcolourproject_2stim_asymm_v5,2020.2.10,Win32,60,60a5f9bf14d0aa2821c4bb84,,,,,836,80.00001264,34.99999514,1,0,0,response1disk,,6,-3.999988616,2.999994665,1,0,0,rectangle,-3.999988616,2.999994665,1,0,0,6,"[171,58,186,212,67,243,316,3,74,211,260,187,58,107,106,156,183,199,248,153]",-3.999988616,2.999994665,1,0,0,0,89,89,104,1,,,
,,,,,,,,,,,,,FF,,,,,,,,0.983025,,,,,,,,,,,,,,,,,,,,,,,5c573e54e9813700018acc31,60a7d7fc0ede097370f253f0,2021-05-21_16h56.26.464,Simcolourproject_2stim_asymm_v5,2020.2.10,Win32,60,60a5f9bf14d0aa2821c4bb84,,,,,3996,44.0000121,-96.20000681,1,0,0,response3disk,,4,4.800011516,-5.000005454,1,0,0,rectangle,4.800011516,-5.000005454,1,0,0,6,"[171,58,186,212,67,243,316,3,74,211,260,187,58,107,106,156,183,199,248,153]",4.800011516,-5.000005454,1,0,0,0,90,90,75,1,,,
,,,,,,,,,,,,,FF,,,,,,,,0.91626,,,,,,,,,,,,,,,,,,,,,,,5c573e54e9813700018acc31,60a7d7fc0ede097370f253f0,2021-05-21_16h56.26.464,Simcolourproject_2stim_asymm_v5,2020.2.10,Win32,60,60a5f9bf14d0aa2821c4bb84,,,,,621,104.000013,48.59999534,1,0,0,response1disk,,6,23.20001179,-5.80002988,1,0,0,rectangle,23.20001179,-5.80002988,1,0,0,4,"[171,58,186,212,67,243,316,3,74,211,260,187,58,107,106,156,183,199,248,153]",23.20001179,-5.80002988,1,0,0,0,91,91,142,1,,,
,,,,,,,,,,,,,FF,,,,,,,,0.79974,,,,,,,,,,,,,,,,,,,,,,,5c573e54e9813700018acc31,60a7d7fc0ede097370f253f0,2021-05-21_16h56.26.464,Simcolourproject_2stim_asymm_v5,2020.2.10,Win32,60,60a5f9bf14d0aa2821c4bb84,,,,,114,63.20001239,-41.00000599,1,0,0,response3disk,,5,-6.399939823,12.59999481,1,0,0,rectangle,-6.399939823,12.59999481,1,0,0,4,"[171,58,186,212,67,243,316,3,74,211,260,187,58,107,106,156,183,199,248,153]",-6.399939823,12.59999481,1,0,0,0,92,92,46,1,,,
,,,,,,,,,,,,,FF,,,,,,,,0.716235,,,,,,,,,,,,,,,,,,,,,,,5c573e54e9813700018acc31,60a7d7fc0ede097370f253f0,2021-05-21_16h56.26.464,Simcolourproject_2stim_asymm_v5,2020.2.10,Win32,60,60a5f9bf14d0aa2821c4bb84,,,,,2077,96.00001287,25.399995,1,0,0,response1disk,,6,-19.19998884,-3.40000543,1,0,0,rectangle,-19.19998884,-3.40000543,1,0,0,2,"[171,58,186,212,67,243,316,3,74,211,260,187,58,107,106,156,183,199,248,153]",-19.19998884,-3.40000543,1,0,0,0,93,93,23,1,,,
,,,,,,,,,,,,,FF,,,,,,,,0.766705,,,,,,,,,,,,,,,,,,,,,,,5c573e54e9813700018acc31,60a7d7fc0ede097370f253f0,2021-05-21_16h56.26.464,Simcolourproject_2stim_asymm_v5,2020.2.10,Win32,60,60a5f9bf14d0aa2821c4bb84,,,,,2119,76.80001259,40.59999523,1,0,0,response1disk,,6,24.0000118,8.599994749,1,0,0,rectangle,24.0000118,8.599994749,1,0,0,2,"[171,58,186,212,67,243,316,3,74,211,260,187,58,107,106,156,183,199,248,153]",24.0000118,8.599994749,1,0,0,0,94,94,99,1,,,
,,,,,,,,,,,,,FF,,,,,,,,1.916505,,,,,,,,,,,,,,,,,,,,,,,5c573e54e9813700018acc31,60a7d7fc0ede097370f253f0,2021-05-21_16h56.26.464,Simcolourproject_2stim_asymm_v5,2020.2.10,Win32,60,60a5f9bf14d0aa2821c4bb84,,,,,1593,106.400013,36.59999517,1,0,0,response1disk,,6,25.60006065,2.199970239,1,0,0,rectangle,25.60006065,2.199970239,1,0,0,7,"[171,58,186,212,67,243,316,3,74,211,260,187,58,107,106,156,183,199,248,153]",25.60006065,2.199970239,1,0,0,0,95,95,125,1,,,
,,,,,,,,,,,,,FF,,,,,,,,0.91945,,,,,,,,,,,,,,,,,,,,,,,5c573e54e9813700018acc31,60a7d7fc0ede097370f253f0,2021-05-21_16h56.26.464,Simcolourproject_2stim_asymm_v5,2020.2.10,Win32,60,60a5f9bf14d0aa2821c4bb84,,,,,359,72.80001253,85.39999589,1,0,0,response1disk,,7,32.00001192,10.99999478,1,0,0,rectangle,32.00001192,10.99999478,1,0,0,4,"[171,58,186,212,67,243,316,3,74,211,260,187,58,107,106,156,183,199,248,153]",32.00001192,10.99999478,1,0,0,0,96,96,156,1,,,
,,,,,,,,,,,,,FF,,,,,,,,1.21654,,,,,,,,,,,,,,,,,,,,,,,5c573e54e9813700018acc31,60a7d7fc0ede097370f253f0,2021-05-21_16h56.26.464,Simcolourproject_2stim_asymm_v5,2020.2.10,Win32,60,60a5f9bf14d0aa2821c4bb84,,,,,2142,61.60001236,81.39999583,1,0,0,response1disk,,7,16.00001168,5.399994701,1,0,0,rectangle,16.00001168,5.399994701,1,0,0,1,"[171,58,186,212,67,243,316,3,74,211,260,187,58,107,106,156,183,199,248,153]",16.00001168,5.399994701,1,0,0,0,97,97,13,1,,,
,,,,,,,,,,,,,FF,,,,,,,,1.61622,,,,,,,,,,,,,,,,,,,,,,,5c573e54e9813700018acc31,60a7d7fc0ede097370f253f0,2021-05-21_16h56.26.464,Simcolourproject_2stim_asymm_v5,2020.2.10,Win32,60,60a5f9bf14d0aa2821c4bb84,,,,,3919,28.80001187,-98.60005568,1,0,0,response3disk,,4,-8.799988687,6.999994725,1,0,0,rectangle,-8.799988687,6.999994725,1,0,0,1,"[171,58,186,212,67,243,316,3,74,211,260,187,58,107,106,156,183,199,248,153]",-8.799988687,6.999994725,1,0,0,0,98,98,56,1,,,
,,,,,,,,,,,,,FF,,,,,,,,0.749795,,,,,,,,,,,,,,,,,,,,,,,5c573e54e9813700018acc31,60a7d7fc0ede097370f253f0,2021-05-21_16h56.26.464,Simcolourproject_2stim_asymm_v5,2020.2.10,Win32,60,60a5f9bf14d0aa2821c4bb84,,,,,1358,84.0000127,44.59999529,1,0,0,response1disk,,6,-20.79998887,-6.600005478,1,0,0,rectangle,-20.79998887,-6.600005478,1,0,0,0,"[171,58,186,212,67,243,316,3,74,211,260,187,58,107,106,156,183,199,248,153]",-20.79998887,-6.600005478,1,0,0,0,99,99,116,1,,,
,,,,,,,,,,,,,FF,,,,,,,,0.51915,,,,,,,,,,,,,,,,,,,,,,,5c573e54e9813700018acc31,60a7d7fc0ede097370f253f0,2021-05-21_16h56.26.464,Simcolourproject_2stim_asymm_v5,2020.2.10,Win32,60,60a5f9bf14d0aa2821c4bb84,,,,,1266,95.20001286,23.79999498,1,0,0,response1disk,,6,-22.39994006,-4.200005442,1,0,0,rectangle,-22.39994006,-4.200005442,1,0,0,1,"[171,58,186,212,67,243,316,3,74,211,260,187,58,107,106,156,183,199,248,153]",-22.39994006,-4.200005442,1,0,0,0,100,100,25,1,,,
,,,,,,,,,,,,,FF,,,,,,,,0.93296,,,,,,,,,,,,,,,,,,,,,,,5c573e54e9813700018acc31,60a7d7fc0ede097370f253f0,2021-05-21_16h56.26.464,Simcolourproject_2stim_asymm_v5,2020.2.10,Win32,60,60a5f9bf14d0aa2821c4bb84,,,,,3873,-73.59998965,-37.80003036,1,0,0,response5disk,,6,-31.99998903,-9.000005513,1,0,0,rectangle,-31.99998903,-9.000005513,1,0,0,3,"[171,58,186,212,67,243,316,3,74,211,260,187,58,107,106,156,183,199,248,153]",-31.99998903,-9.000005513,1,0,0,0,101,101,30,1,,,
,,,,,,,,,,,,,FF,,,,,,,,0.785775,,,,,,,,,,,,,,,,,,,,,,,5c573e54e9813700018acc31,60a7d7fc0ede097370f253f0,2021-05-21_16h56.26.464,Simcolourproject_2stim_asymm_v5,2020.2.10,Win32,60,60a5f9bf14d0aa2821c4bb84,,,,,3211,-68.79998958,23.79999498,1,0,0,response7disk,,1,8.800011575,-13.80003,1,0,0,rectangle,8.800011575,-13.80003,1,0,0,0,"[171,58,186,212,67,243,316,3,74,211,260,187,58,107,106,156,183,199,248,153]",8.800011575,-13.80003,1,0,0,0,102,102,76,1,,,
,,,,,,,,,,,,,FF,,,,,,,,1.866185,,,,,,,,,,,,,,,,,,,,,,,5c573e54e9813700018acc31,60a7d7fc0ede097370f253f0,2021-05-21_16h56.26.464,Simcolourproject_2stim_asymm_v5,2020.2.10,Win32,60,60a5f9bf14d0aa2821c4bb84,,,,,984,-28.79998899,-63.40000632,1,0,0,response5disk,,3,-15.99998879,-6.600005478,1,0,0,rectangle,-15.99998879,-6.600005478,1,0,0,4,"[171,58,186,212,67,243,316,3,74,211,260,187,58,107,106,156,183,199,248,153]",-15.99998879,-6.600005478,1,0,0,0,103,103,91,1,,,
,,,,,,,,,,,,,FF,,,,,,,,0.983025,,,,,,,,,,,,,,,,,,,,,,,5c573e54e9813700018acc31,60a7d7fc0ede097370f253f0,2021-05-21_16h56.26.464,Simcolourproject_2stim_asymm_v5,2020.2.10,Win32,60,60a5f9bf14d0aa2821c4bb84,,,,,1031,25.60006065,-109.000007,1,0,0,response3disk,,4,19.20001173,-8.200005502,1,0,0,rectangle,19.20001173,-8.200005502,1,0,0,2,"[171,58,186,212,67,243,316,3,74,211,260,187,58,107,106,156,183,199,248,153]",19.20001173,-8.200005502,1,0,0,0,104,104,53,1,,,
,,,,,,,,,,,,,FF,,,,,,,,0.850065,,,,,,,,,,,,,,,,,,,,,,,5c573e54e9813700018acc31,60a7d7fc0ede097370f253f0,2021-05-21_16h56.26.464,Simcolourproject_2stim_asymm_v5,2020.2.10,Win32,60,60a5f9bf14d0aa2821c4bb84,,,,,2544,-42.39994036,56.59999546,1,0,0,response7disk,,0,-36.7999891,5.399994701,1,0,0,rectangle,-54.39994054,-99.40000686,1,0,0,3,"[171,58,186,212,67,243,316,3,74,211,260,187,58,107,106,156,183,199,248,153]",10.4000116,-1.000005394,1,0,0,0,105,105,11,1,,response5disk_3,rectangle
,,,,,,,,,,,,,FF,,,,,,,,1.08305,,,,,,,,,,,,,,,,,,,,,,,5c573e54e9813700018acc31,60a7d7fc0ede097370f253f0,2021-05-21_16h56.26.464,Simcolourproject_2stim_asymm_v5,2020.2.10,Win32,60,60a5f9bf14d0aa2821c4bb84,,,,,635,-79.99998975,31.79999509,1,0,0,response7disk,,1,-15.99998879,11.7999948,1,0,0,rectangle,-101.5999901,39.79999521,1,0,0,1,"[171,58,186,212,67,243,316,3,74,211,260,187,58,107,106,156,183,199,248,153]",4.800011516,-1.80002982,1,0,0,0,106,106,100,1,,response7disk_3,rectangle
,,,,,,,,,,,,,FF,,,,,,,,1.882425,,,,,,,,,,,,,,,,,,,,,,,5c573e54e9813700018acc31,60a7d7fc0ede097370f253f0,2021-05-21_16h56.26.464,Simcolourproject_2stim_asymm_v5,2020.2.10,Win32,60,60a5f9bf14d0aa2821c4bb84,,,,,3094,-59.19998944,-91.40000674,1,0,0,response5disk,,3,-8.799988687,-1.80002982,1,0,0,rectangle,-8.799988687,-1.80002982,1,0,0,7,"[171,58,186,212,67,243,316,3,74,211,260,187,58,107,106,156,183,199,248,153]",-8.799988687,-1.80002982,1,0,0,0,107,107,36,1,,,
,,,,,,,,,,,,,FF,,,,,,,,0.799775,,,,,,,,,,,,,,,,,,,,,,,5c573e54e9813700018acc31,60a7d7fc0ede097370f253f0,2021-05-21_16h56.26.464,Simcolourproject_2stim_asymm_v5,2020.2.10,Win32,60,60a5f9bf14d0aa2821c4bb84,,,,,3120,74.40001255,-45.80003048,1,0,0,response3disk,,5,17.60006053,-8.200005502,1,0,0,rectangle,17.60006053,-8.200005502,1,0,0,1,"[171,58,186,212,67,243,316,3,74,211,260,187,58,107,106,156,183,199,248,153]",17.60006053,-8.200005502,1,0,0,0,108,108,14,1,,,
,,,,,,,,,,,,,FF,,,,,,,,0.99975,,,,,,,,,,,,,,,,,,,,,,,5c573e54e9813700018acc31,60a7d7fc0ede097370f253f0,2021-05-21_16h56.26.464,Simcolourproject_2stim_asymm_v5,2020.2.10,Win32,60,60a5f9bf14d0aa2821c4bb84,,,,,3371,106.400013,40.59999523,1,0,0,response1disk,,6,2.40001148,-6.600005478,1,0,0,rectangle,2.40001148,-6.600005478,1,0,0,2,"[171,58,186,212,67,243,316,3,74,211,260,187,58,107,106,156,183,199,248,153]",2.40001148,-6.600005478,1,0,0,0,109,109,141,1,,,
,,,,,,,,,,,,,FF,,,,,,,,0.79984,,,,,,,,,,,,,,,,,,,,,,,5c573e54e9813700018acc31,60a7d7fc0ede097370f253f0,2021-05-21_16h56.26.464,Simcolourproject_2stim_asymm_v5,2020.2.10,Win32,60,60a5f9bf14d0aa2821c4bb84,,,,,4361,-47.99998927,90.99999598,1,0,0,response7disk,,0,-7.999988675,-8.200005502,1,0,0,rectangle,-7.999988675,-8.200005502,1,0,0,3,"[171,58,186,212,67,243,316,3,74,211,260,187,58,107,106,156,183,199,248,153]",-7.999988675,-8.200005502,1,0,0,0,110,110,27,1,,,
,,,,,,,,,,,,,FF,,,,,,,,0.650025,,,,,,,,,,,,,,,,,,,,,,,5c573e54e9813700018acc31,60a7d7fc0ede097370f253f0,2021-05-21_16h56.26.464,Simcolourproject_2stim_asymm_v5,2020.2.10,Win32,60,60a5f9bf14d0aa2821c4bb84,,,,,3244,-44.79998922,80.59999582,1,0,0,response7disk,,0,-11.19998872,-2.600005418,1,0,0,rectangle,-11.19998872,-2.600005418,1,0,0,5,"[171,58,186,212,67,243,316,3,74,211,260,187,58,107,106,156,183,199,248,153]",-11.19998872,-2.600005418,1,0,0,0,111,111,61,1,,,
,,,,,,,,,,,,,FF,,,,,,,,0.916335,,,,,,,,,,,,,,,,,,,,,,,5c573e54e9813700018acc31,60a7d7fc0ede097370f253f0,2021-05-21_16h56.26.464,Simcolourproject_2stim_asymm_v5,2020.2.10,Win32,60,60a5f9bf14d0aa2821c4bb84,,,,,3051,-67.19998956,36.59999517,1,0,0,response7disk,,1,6.400011539,2.999994665,1,0,0,rectangle,6.400011539,2.999994665,1,0,0,5,"[171,58,186,212,67,243,316,3,74,211,260,187,58,107,106,156,183,199,248,153]",6.400011539,2.999994665,1,0,0,0,112,112,144,1,,,
,,,,,,,,,,,,,FF,,,,,,,,0.90037,,,,,,,,,,,,,,,,,,,,,,,5c573e54e9813700018acc31,60a7d7fc0ede097370f253f0,2021-05-21_16h56.26.464,Simcolourproject_2stim_asymm_v5,2020.2.10,Win32,60,60a5f9bf14d0aa2821c4bb84,,,,,4358,-83.1999898,-50.60005496,1,0,0,response5disk,,1,-1.59998858,4.599994689,1,0,0,rectangle,-1.59998858,4.599994689,1,0,0,7,"[171,58,186,212,67,243,316,3,74,211,260,187,58,107,106,156,183,199,248,153]",-1.59998858,4.599994689,1,0,0,0,113,113,102,1,,,
,,,,,,,,,,,,,FF,,,,,,,,0.650065,,,,,,,,,,,,,,,,,,,,,,,5c573e54e9813700018acc31,60a7d7fc0ede097370f253f0,2021-05-21_16h56.26.464,Simcolourproject_2stim_asymm_v5,2020.2.10,Win32,60,60a5f9bf14d0aa2821c4bb84,,,,,207,-43.1999892,-78.60005538,1,0,0,response5disk,,3,-2.399939764,2.199970239,1,0,0,rectangle,-2.399939764,2.199970239,1,0,0,0,"[171,58,186,212,67,243,316,3,74,211,260,187,58,107,106,156,183,199,248,153]",-2.399939764,2.199970239,1,0,0,0,114,114,110,1,,,
,,,,,,,,,,,,,FF,,,,,,,,0.73269,,,,,,,,,,,,,,,,,,,,,,,5c573e54e9813700018acc31,60a7d7fc0ede097370f253f0,2021-05-21_16h56.26.464,Simcolourproject_2stim_asymm_v5,2020.2.10,Win32,60,60a5f9bf14d0aa2821c4bb84,,,,,4048,31.20001191,-66.6000552,1,0,0,response3disk,,4,24.80001181,-3.40000543,1,0,0,rectangle,24.80001181,-3.40000543,1,0,0,7,"[171,58,186,212,67,243,316,3,74,211,260,187,58,107,106,156,183,199,248,153]",24.80001181,-3.40000543,1,0,0,0,115,115,55,1,,,
,,,,,,,,,,,,,FF,,,,,,,,0.783255,,,,,,,,,,,,,,,,,,,,,,,5c573e54e9813700018acc31,60a7d7fc0ede097370f253f0,2021-05-21_16h56.26.464,Simcolourproject_2stim_asymm_v5,2020.2.10,Win32,60,60a5f9bf14d0aa2821c4bb84,,,,,4127,50.4000122,-42.60007926,1,0,0,response3disk,,5,13.60006047,-8.200005502,1,0,0,rectangle,13.60006047,-8.200005502,1,0,0,2,"[171,58,186,212,67,243,316,3,74,211,260,187,58,107,106,156,183,199,248,153]",13.60006047,-8.200005502,1,0,0,0,116,116,111,1,,,
,,,,,,,,,,,,,FF,,,,,,,,0.966365,,,,,,,,,,,,,,,,,,,,,,,5c573e54e9813700018acc31,60a7d7fc0ede097370f253f0,2021-05-21_16h56.26.464,Simcolourproject_2stim_asymm_v5,2020.2.10,Win32,60,60a5f9bf14d0aa2821c4bb84,,,,,1677,-34.39994024,76.59999576,1,0,0,response7disk,,0,21.60006059,-0.200005382,1,0,0,rectangle,21.60006059,-0.200005382,1,0,0,0,"[171,58,186,212,67,243,316,3,74,211,260,187,58,107,106,156,183,199,248,153]",21.60006059,-0.200005382,1,0,0,0,117,117,90,1,,,
,,,,,,,,,,,,,FF,,,,,,,,0.799685,,,,,,,,,,,,,,,,,,,,,,,5c573e54e9813700018acc31,60a7d7fc0ede097370f253f0,2021-05-21_16h56.26.464,Simcolourproject_2stim_asymm_v5,2020.2.10,Win32,60,60a5f9bf14d0aa2821c4bb84,,,,,2337,54.40001225,82.99999586,1,0,0,response1disk,,7,36.80001199,11.7999948,1,0,0,rectangle,36.80001199,11.7999948,1,0,0,0,"[171,58,186,212,67,243,316,3,74,211,260,187,58,107,106,156,183,199,248,153]",36.80001199,11.7999948,1,0,0,0,118,118,18,1,,,
,,,,,,,,,,,,,FF,,,,,,,,1.25305,,,,,,,,,,,,,,,,,,,,,,,5c573e54e9813700018acc31,60a7d7fc0ede097370f253f0,2021-05-21_16h56.26.464,Simcolourproject_2stim_asymm_v5,2020.2.10,Win32,60,60a5f9bf14d0aa2821c4bb84,,,,,2973,60.00001234,78.19997137,1,0,0,response1disk,,7,33.60006077,6.999994725,1,0,0,rectangle,33.60006077,6.999994725,1,0,0,2,"[171,58,186,212,67,243,316,3,74,211,260,187,58,107,106,156,183,199,248,153]",33.60006077,6.999994725,1,0,0,0,119,119,121,1,,,
,,,,,,,,,,,,,FF,,,,,,,,1.21649,,,,,,,,,,,,,,,,,,,,,,,5c573e54e9813700018acc31,60a7d7fc0ede097370f253f0,2021-05-21_16h56.26.464,Simcolourproject_2stim_asymm_v5,2020.2.10,Win32,60,60a5f9bf14d0aa2821c4bb84,,,,,988,79.20001262,-38.60000595,1,0,0,response3disk,,5,-2.399939764,1.399994642,1,0,0,rectangle,-2.399939764,1.399994642,1,0,0,1,"[171,58,186,212,67,243,316,3,74,211,260,187,58,107,106,156,183,199,248,153]",-2.399939764,1.399994642,1,0,0,0,120,120,73,1,,,
,,,,,,,,,,,,,FF,,,,,,,,0.765895,,,,,,,,,,,,,,,,,,,,,,,5c573e54e9813700018acc31,60a7d7fc0ede097370f253f0,2021-05-21_16h56.26.464,Simcolourproject_2stim_asymm_v5,2020.2.10,Win32,60,60a5f9bf14d0aa2821c4bb84,,,,,3029,108.8000131,42.99999526,1,0,0,response1disk,,6,20.00001174,6.199970299,1,0,0,rectangle,20.00001174,6.199970299,1,0,0,0,"[171,58,186,212,67,243,316,3,74,211,260,187,58,107,106,156,183,199,248,153]",20.00001174,6.199970299,1,0,0,0,121,121,85,1,,,
,,,,,,,,,,,,,FF,,,,,,,,0.686315,,,,,,,,,,,,,,,,,,,,,,,5c573e54e9813700018acc31,60a7d7fc0ede097370f253f0,2021-05-21_16h56.26.464,Simcolourproject_2stim_asymm_v5,2020.2.10,Win32,60,60a5f9bf14d0aa2821c4bb84,,,,,2191,99.20001292,35.79999515,1,0,0,response1disk,,6,-13.59998876,0.59999463,1,0,0,rectangle,-13.59998876,0.59999463,1,0,0,5,"[171,58,186,212,67,243,316,3,74,211,260,187,58,107,106,156,183,199,248,153]",-13.59998876,0.59999463,1,0,0,0,122,122,97,1,,,
,,,,,,,,,,,,,FF,,,,,,,,0.749175,,,,,,,,,,,,,,,,,,,,,,,5c573e54e9813700018acc31,60a7d7fc0ede097370f253f0,2021-05-21_16h56.26.464,Simcolourproject_2stim_asymm_v5,2020.2.10,Win32,60,60a5f9bf14d0aa2821c4bb84,,,,,3637,-55.19998938,19.79999492,1,0,0,response7disk,,1,12.80001163,-7.40000549,1,0,0,rectangle,12.80001163,-7.40000549,1,0,0,2,"[171,58,186,212,67,243,316,3,74,211,260,187,58,107,106,156,183,199,248,153]",12.80001163,-7.40000549,1,0,0,0,123,123,79,1,,,
,,,,,,,,,,,,,FF,,,,,,,,0.68367,,,,,,,,,,,,,,,,,,,,,,,5c573e54e9813700018acc31,60a7d7fc0ede097370f253f0,2021-05-21_16h56.26.464,Simcolourproject_2stim_asymm_v5,2020.2.10,Win32,60,60a5f9bf14d0aa2821c4bb84,,,,,3974,-36.7999891,-86.6000555,1,0,0,response5disk,,3,1.600060296,8.599994749,1,0,0,rectangle,1.600060296,8.599994749,1,0,0,6,"[171,58,186,212,67,243,316,3,74,211,260,187,58,107,106,156,183,199,248,153]",1.600060296,8.599994749,1,0,0,0,124,124,81,1,,,
,,,,,,,,,,,,,FF,,,,,,,,0.666565,,,,,,,,,,,,,,,,,,,,,,,5c573e54e9813700018acc31,60a7d7fc0ede097370f253f0,2021-05-21_16h56.26.464,Simcolourproject_2stim_asymm_v5,2020.2.10,Win32,60,60a5f9bf14d0aa2821c4bb84,,,,,3041,-36.7999891,-69.00000641,1,0,0,response5disk,,3,-1.59998858,-6.600005478,1,0,0,rectangle,-1.59998858,-6.600005478,1,0,0,6,"[171,58,186,212,67,243,316,3,74,211,260,187,58,107,106,156,183,199,248,153]",-1.59998858,-6.600005478,1,0,0,0,125,125,50,1,,,
,,,,,,,,,,,,,FF,,,,,,,,0.633115,,,,,,,,,,,,,,,,,,,,,,,5c573e54e9813700018acc31,60a7d7fc0ede097370f253f0,2021-05-21_16h56.26.464,Simcolourproject_2stim_asymm_v5,2020.2.10,Win32,60,60a5f9bf14d0aa2821c4bb84,,,,,2025,-30.39994018,62.19997113,1,0,0,response7disk,,0,13.60006047,2.999994665,1,0,0,rectangle,13.60006047,2.999994665,1,0,0,0,"[171,58,186,212,67,243,316,3,74,211,260,187,58,107,106,156,183,199,248,153]",13.60006047,2.999994665,1,0,0,0,126,126,133,1,,,
,,,,,,,,,,,,,FF,,,,,,,,1.14956,,,,,,,,,,,,,,,,,,,,,,,5c573e54e9813700018acc31,60a7d7fc0ede097370f253f0,2021-05-21_16h56.26.464,Simcolourproject_2stim_asymm_v5,2020.2.10,Win32,60,60a5f9bf14d0aa2821c4bb84,,,,,3231,74.40001255,-32.20000586,1,0,0,response3disk,,5,20.80001175,-1.000005394,1,0,0,rectangle,20.80001175,-1.000005394,1,0,0,3,"[171,58,186,212,67,243,316,3,74,211,260,187,58,107,106,156,183,199,248,153]",20.80001175,-1.000005394,1,0,0,0,127,127,16,1,,,
,,,,,,,,,,,,,FF,,,,,,,,0.649995,,,,,,,,,,,,,,,,,,,,,,,5c573e54e9813700018acc31,60a7d7fc0ede097370f253f0,2021-05-21_16h56.26.464,Simcolourproject_2stim_asymm_v5,2020.2.10,Win32,60,60a5f9bf14d0aa2821c4bb84,,,,,713,43.20001209,-82.60005544,1,0,0,response3disk,,4,23.20001179,-0.200005382,1,0,0,rectangle,23.20001179,-0.200005382,1,0,0,5,"[171,58,186,212,67,243,316,3,74,211,260,187,58,107,106,156,183,199,248,153]",23.20001179,-0.200005382,1,0,0,0,128,128,77,1,,,
,,,,,,,,,,,,,FF,,,,,,,,0.882935,,,,,,,,,,,,,,,,,,,,,,,5c573e54e9813700018acc31,60a7d7fc0ede097370f253f0,2021-05-21_16h56.26.464,Simcolourproject_2stim_asymm_v5,2020.2.10,Win32,60,60a5f9bf14d0aa2821c4bb84,,,,,720,-76.7999897,-58.60005508,1,0,0,response5disk,,4,-22.39994006,9.399994761,1,0,0,rectangle,-22.39994006,9.399994761,1,0,0,6,"[171,58,186,212,67,243,316,3,74,211,260,187,58,107,106,156,183,199,248,153]",-22.39994006,9.399994761,1,0,0,0,129,129,95,1,,,
,,,,,,,,,,,,,FF,,,,,,,,0.75017,,,,,,,,,,,,,,,,,,,,,,,5c573e54e9813700018acc31,60a7d7fc0ede097370f253f0,2021-05-21_16h56.26.464,Simcolourproject_2stim_asymm_v5,2020.2.10,Win32,60,60a5f9bf14d0aa2821c4bb84,,,,,3052,-36.7999891,-83.40000662,1,0,0,response5disk,,3,-12.79998875,0.59999463,1,0,0,rectangle,-12.79998875,0.59999463,1,0,0,3,"[171,58,186,212,67,243,316,3,74,211,260,187,58,107,106,156,183,199,248,153]",-12.79998875,0.59999463,1,0,0,0,130,130,42,1,,,
,,,,,,,,,,,,,FF,,,,,,,,0.58294,,,,,,,,,,,,,,,,,,,,,,,5c573e54e9813700018acc31,60a7d7fc0ede097370f253f0,2021-05-21_16h56.26.464,Simcolourproject_2stim_asymm_v5,2020.2.10,Win32,60,60a5f9bf14d0aa2821c4bb84,,,,,2481,-36.7999891,60.59999552,1,0,0,response7disk,,0,-4.799988627,5.399994701,1,0,0,rectangle,-4.799988627,5.399994701,1,0,0,2,"[171,58,186,212,67,243,316,3,74,211,260,187,58,107,106,156,183,199,248,153]",-4.799988627,5.399994701,1,0,0,0,131,131,70,1,,,
,,,,,,,,,,,,,FF,,,,,,,,1.449495,,,,,,,,,,,,,,,,,,,,,,,5c573e54e9813700018acc31,60a7d7fc0ede097370f253f0,2021-05-21_16h56.26.464,Simcolourproject_2stim_asymm_v5,2020.2.10,Win32,60,60a5f9bf14d0aa2821c4bb84,,,,,2103,-29.599989,-73.80000648,1,0,0,response5disk,,3,16.00001168,2.999994665,1,0,0,rectangle,16.00001168,2.999994665,1,0,0,3,"[171,58,186,212,67,243,316,3,74,211,260,187,58,107,106,156,183,199,248,153]",16.00001168,2.999994665,1,0,0,0,132,132,44,1,,,
,,,,,,,,,,,,,FF,,,,,,,,0.783525,,,,,,,,,,,,,,,,,,,,,,,5c573e54e9813700018acc31,60a7d7fc0ede097370f253f0,2021-05-21_16h56.26.464,Simcolourproject_2stim_asymm_v5,2020.2.10,Win32,60,60a5f9bf14d0aa2821c4bb84,,,,,3672,-39.99998915,-77.00000653,1,0,0,response5disk,,3,-4.799988627,-4.200005442,1,0,0,rectangle,-4.799988627,-4.200005442,1,0,0,6,"[171,58,186,212,67,243,316,3,74,211,260,187,58,107,106,156,183,199,248,153]",-4.799988627,-4.200005442,1,0,0,0,133,133,78,1,,,
,,,,,,,,,,,,,FF,,,,,,,,0.76913,,,,,,,,,,,,,,,,,,,,,,,5c573e54e9813700018acc31,60a7d7fc0ede097370f253f0,2021-05-21_16h56.26.464,Simcolourproject_2stim_asymm_v5,2020.2.10,Win32,60,60a5f9bf14d0aa2821c4bb84,,,,,1284,29.60006071,-75.4000065,1,0,0,response3disk,,4,-7.199988663,10.99999478,1,0,0,rectangle,-7.199988663,10.99999478,1,0,0,2,"[171,58,186,212,67,243,316,3,74,211,260,187,58,107,106,156,183,199,248,153]",-7.199988663,10.99999478,1,0,0,0,134,134,2,1,,,
,,,,,,,,,,,,,FF,,,,,,,,0.600275,,,,,,,,,,,,,,,,,,,,,,,5c573e54e9813700018acc31,60a7d7fc0ede097370f253f0,2021-05-21_16h56.26.464,Simcolourproject_2stim_asymm_v5,2020.2.10,Win32,60,60a5f9bf14d0aa2821c4bb84,,,,,3192,-27.19998896,-69.00000641,1,0,0,response5disk,,3,-18.39994,10.99999478,1,0,0,rectangle,-18.39994,10.99999478,1,0,0,7,"[171,58,186,212,67,243,316,3,74,211,260,187,58,107,106,156,183,199,248,153]",-18.39994,10.99999478,1,0,0,0,135,135,20,1,,,
,,,,,,,,,,,,,FF,,,,,,,,0.833475,,,,,,,,,,,,,,,,,,,,,,,5c573e54e9813700018acc31,60a7d7fc0ede097370f253f0,2021-05-21_16h56.26.464,Simcolourproject_2stim_asymm_v5,2020.2.10,Win32,60,60a5f9bf14d0aa2821c4bb84,,,,,382,52.80001223,-41.80003042,1,0,0,response3disk,,5,-1.59998858,-1.80002982,1,0,0,rectangle,-1.59998858,-1.80002982,1,0,0,2,"[171,58,186,212,67,243,316,3,74,211,260,187,58,107,106,156,183,199,248,153]",-1.59998858,-1.80002982,1,0,0,0,136,136,103,1,,,
,,,,,,,,,,,,,FF,,,,,,,,0.766795,,,,,,,,,,,,,,,,,,,,,,,5c573e54e9813700018acc31,60a7d7fc0ede097370f253f0,2021-05-21_16h56.26.464,Simcolourproject_2stim_asymm_v5,2020.2.10,Win32,60,60a5f9bf14d0aa2821c4bb84,,,,,2785,-43.1999892,-68.2000064,1,0,0,response5disk,,3,-20.79998887,6.999994725,1,0,0,rectangle,-20.79998887,6.999994725,1,0,0,1,"[171,58,186,212,67,243,316,3,74,211,260,187,58,107,106,156,183,199,248,153]",-20.79998887,6.999994725,1,0,0,0,137,137,60,1,,,
,,,,,,,,,,,,,FF,,,,,,,,0.632475,,,,,,,,,,,,,,,,,,,,,,,5c573e54e9813700018acc31,60a7d7fc0ede097370f253f0,2021-05-21_16h56.26.464,Simcolourproject_2stim_asymm_v5,2020.2.10,Win32,60,60a5f9bf14d0aa2821c4bb84,,,,,540,64.80001241,-50.60005496,1,0,0,response3disk,,5,3.200011492,0.59999463,1,0,0,rectangle,3.200011492,0.59999463,1,0,0,2,"[171,58,186,212,67,243,316,3,74,211,260,187,58,107,106,156,183,199,248,153]",3.200011492,0.59999463,1,0,0,0,138,138,122,1,,,
,,,,,,,,,,,,,FF,,,,,,,,0.699925,,,,,,,,,,,,,,,,,,,,,,,5c573e54e9813700018acc31,60a7d7fc0ede097370f253f0,2021-05-21_16h56.26.464,Simcolourproject_2stim_asymm_v5,2020.2.10,Win32,60,60a5f9bf14d0aa2821c4bb84,,,,,3277,76.00001258,58.19997107,1,0,0,response1disk,,6,17.60006053,3.799994677,1,0,0,rectangle,17.60006053,3.799994677,1,0,0,1,"[171,58,186,212,67,243,316,3,74,211,260,187,58,107,106,156,183,199,248,153]",17.60006053,3.799994677,1,0,0,0,139,139,67,1,,,
,,,,,,,,,,,,,FF,,,,,,,,0.716545,,,,,,,,,,,,,,,,,,,,,,,5c573e54e9813700018acc31,60a7d7fc0ede097370f253f0,2021-05-21_16h56.26.464,Simcolourproject_2stim_asymm_v5,2020.2.10,Win32,60,60a5f9bf14d0aa2821c4bb84,,,,,2429,71.20001251,36.59999517,1,0,0,response1disk,,6,20.00001174,8.599994749,1,0,0,rectangle,20.00001174,8.599994749,1,0,0,4,"[171,58,186,212,67,243,316,3,74,211,260,187,58,107,106,156,183,199,248,153]",20.00001174,8.599994749,1,0,0,0,140,140,114,1,,,
,,,,,,,,,,,,,FF,,,,,,,,1.06643,,,,,,,,,,,,,,,,,,,,,,,5c573e54e9813700018acc31,60a7d7fc0ede097370f253f0,2021-05-21_16h56.26.464,Simcolourproject_2stim_asymm_v5,2020.2.10,Win32,60,60a5f9bf14d0aa2821c4bb84,,,,,2894,-75.19998968,28.59999505,1,0,0,response7disk,,1,-17.59998882,5.399994701,1,0,0,rectangle,-17.59998882,5.399994701,1,0,0,5,"[171,58,186,212,67,243,316,3,74,211,260,187,58,107,106,156,183,199,248,153]",-17.59998882,5.399994701,1,0,0,0,141,141,160,1,,,
,,,,,,,,,,,,,FF,,,,,,,,0.847515,,,,,,,,,,,,,,,,,,,,,,,5c573e54e9813700018acc31,60a7d7fc0ede097370f253f0,2021-05-21_16h56.26.464,Simcolourproject_2stim_asymm_v5,2020.2.10,Win32,60,60a5f9bf14d0aa2821c4bb84,,,,,4344,-27.99998897,98.19997167,1,0,0,response7disk,,0,13.60006047,-1.80002982,1,0,0,rectangle,13.60006047,-1.80002982,1,0,0,6,"[171,58,186,212,67,243,316,3,74,211,260,187,58,107,106,156,183,199,248,153]",13.60006047,-1.80002982,1,0,0,0,142,142,113,1,,,
,,,,,,,,,,,,,FF,,,,,,,,1.29955,,,,,,,,,,,,,,,,,,,,,,,5c573e54e9813700018acc31,60a7d7fc0ede097370f253f0,2021-05-21_16h56.26.464,Simcolourproject_2stim_asymm_v5,2020.2.10,Win32,60,60a5f9bf14d0aa2821c4bb84,,,,,260,-21.59998888,-79.40000656,1,0,0,response5disk,,3,0.800011456,6.999994725,1,0,0,rectangle,0.800011456,6.999994725,1,0,0,3,"[171,58,186,212,67,243,316,3,74,211,260,187,58,107,106,156,183,199,248,153]",0.800011456,6.999994725,1,0,0,0,143,143,109,1,,,
,,,,,,,,,,,,,FF,,,,,,,,0.56622,,,,,,,,,,,,,,,,,,,,,,,5c573e54e9813700018acc31,60a7d7fc0ede097370f253f0,2021-05-21_16h56.26.464,Simcolourproject_2stim_asymm_v5,2020.2.10,Win32,60,60a5f9bf14d0aa2821c4bb84,,,,,3781,-46.39994042,-76.20000651,1,0,0,response5disk,,3,-14.39993994,-10.60000554,1,0,0,rectangle,-14.39993994,-10.60000554,1,0,0,0,"[171,58,186,212,67,243,316,3,74,211,260,187,58,107,106,156,183,199,248,153]",-14.39993994,-10.60000554,1,0,0,0,144,144,59,1,,,
,,,,,,,,,,,,,FF,,,,,,,,0.616275,,,,,,,,,,,,,,,,,,,,,,,5c573e54e9813700018acc31,60a7d7fc0ede097370f253f0,2021-05-21_16h56.26.464,Simcolourproject_2stim_asymm_v5,2020.2.10,Win32,60,60a5f9bf14d0aa2821c4bb84,,,,,587,82.40001267,-33.8000303,1,0,0,response3disk,,5,-4.799988627,-0.200005382,1,0,0,rectangle,-4.799988627,-0.200005382,1,0,0,7,"[171,58,186,212,67,243,316,3,74,211,260,187,58,107,106,156,183,199,248,153]",-4.799988627,-0.200005382,1,0,0,0,145,145,45,1,,,
,,,,,,,,,,,,,FF,,,,,,,,0.79993,,,,,,,,,,,,,,,,,,,,,,,5c573e54e9813700018acc31,60a7d7fc0ede097370f253f0,2021-05-21_16h56.26.464,Simcolourproject_2stim_asymm_v5,2020.2.10,Win32,60,60a5f9bf14d0aa2821c4bb84,,,,,1528,-63.1999895,-40.20000598,1,0,0,response5disk,,5,-15.19998878,-4.200005442,1,0,0,rectangle,-15.19998878,-4.200005442,1,0,0,1,"[171,58,186,212,67,243,316,3,74,211,260,187,58,107,106,156,183,199,248,153]",-15.19998878,-4.200005442,1,0,0,0,146,146,84,1,,,
,,,,,,,,,,,,,FF,,,,,,,,0.51699,,,,,,,,,,,,,,,,,,,,,,,5c573e54e9813700018acc31,60a7d7fc0ede097370f253f0,2021-05-21_16h56.26.464,Simcolourproject_2stim_asymm_v5,2020.2.10,Win32,60,60a5f9bf14d0aa2821c4bb84,,,,,772,84.80001271,-31.40000585,1,0,0,response3disk,,5,25.60006065,1.399994642,1,0,0,rectangle,25.60006065,1.399994642,1,0,0,7,"[171,58,186,212,67,243,316,3,74,211,260,187,58,107,106,156,183,199,248,153]",25.60006065,1.399994642,1,0,0,0,147,147,33,1,,,
,,,,,,,,,,,,,FF,,,,,,,,0.54911,,,,,,,,,,,,,,,,,,,,,,,5c573e54e9813700018acc31,60a7d7fc0ede097370f253f0,2021-05-21_16h56.26.464,Simcolourproject_2stim_asymm_v5,2020.2.10,Win32,60,60a5f9bf14d0aa2821c4bb84,,,,,27,84.0000127,-48.2000061,1,0,0,response3disk,,5,1.14441E-05,-4.200005442,1,0,0,rectangle,1.14441E-05,-4.200005442,1,0,0,5,"[171,58,186,212,67,243,316,3,74,211,260,187,58,107,106,156,183,199,248,153]",1.14441E-05,-4.200005442,1,0,0,0,148,148,34,1,,,
,,,,,,,,,,,,,FF,,,,,,,,0.48377,,,,,,,,,,,,,,,,,,,,,,,5c573e54e9813700018acc31,60a7d7fc0ede097370f253f0,2021-05-21_16h56.26.464,Simcolourproject_2stim_asymm_v5,2020.2.10,Win32,60,60a5f9bf14d0aa2821c4bb84,,,,,3865,96.00001287,36.59999517,1,0,0,response1disk,,6,-7.999988675,-6.600005478,1,0,0,rectangle,-7.999988675,-6.600005478,1,0,0,0,"[171,58,186,212,67,243,316,3,74,211,260,187,58,107,106,156,183,199,248,153]",-7.999988675,-6.600005478,1,0,0,0,149,149,157,1,,,
,,,,,,,,,,,,,FF,,,,,,,,1.199315,,,,,,,,,,,,,,,,,,,,,,,5c573e54e9813700018acc31,60a7d7fc0ede097370f253f0,2021-05-21_16h56.26.464,Simcolourproject_2stim_asymm_v5,2020.2.10,Win32,60,60a5f9bf14d0aa2821c4bb84,,,,,1046,38.40001202,-82.60005544,1,0,0,response3disk,,4,-1.59998858,4.599994689,1,0,0,rectangle,-1.59998858,4.599994689,1,0,0,7,"[171,58,186,212,67,243,316,3,74,211,260,187,58,107,106,156,183,199,248,153]",-1.59998858,4.599994689,1,0,0,0,150,150,126,1,,,
,,,,,,,,,,,,,FF,,,,,,,,0.93314,,,,,,,,,,,,,,,,,,,,,,,5c573e54e9813700018acc31,60a7d7fc0ede097370f253f0,2021-05-21_16h56.26.464,Simcolourproject_2stim_asymm_v5,2020.2.10,Win32,60,60a5f9bf14d0aa2821c4bb84,,,,,347,59.20001233,-89.00000671,1,0,0,response3disk,,4,8.800011575,2.199970239,1,0,0,rectangle,8.800011575,2.199970239,1,0,0,1,"[171,58,186,212,67,243,316,3,74,211,260,187,58,107,106,156,183,199,248,153]",8.800011575,2.199970239,1,0,0,0,151,151,135,1,,,
,,,,,,,,,,,,,FF,,,,,,,,0.73565,,,,,,,,,,,,,,,,,,,,,,,5c573e54e9813700018acc31,60a7d7fc0ede097370f253f0,2021-05-21_16h56.26.464,Simcolourproject_2stim_asymm_v5,2020.2.10,Win32,60,60a5f9bf14d0aa2821c4bb84,,,,,3560,-80.79998976,-29.80003024,1,0,0,response5disk,,4,-15.19998878,-4.200005442,1,0,0,rectangle,-40.79998916,101.3999961,1,0,0,0,"[171,58,186,212,67,243,316,3,74,211,260,187,58,107,106,156,183,199,248,153]",6.400011539,-5.000005454,1,0,0,0,152,152,19,1,,response7disk_3,rectangle
,,,,,,,,,,,,,FF,,,,,,,,0.999665,,,,,,,,,,,,,,,,,,,,,,,5c573e54e9813700018acc31,60a7d7fc0ede097370f253f0,2021-05-21_16h56.26.464,Simcolourproject_2stim_asymm_v5,2020.2.10,Win32,60,60a5f9bf14d0aa2821c4bb84,,,,,97,-100.7999901,-47.4000305,1,0,0,response5disk,,0,2.40001148,2.999994665,1,0,0,rectangle,2.40001148,2.999994665,1,0,0,5,"[171,58,186,212,67,243,316,3,74,211,260,187,58,107,106,156,183,199,248,153]",2.40001148,2.999994665,1,0,0,0,153,153,3,1,,,
,,,,,,,,,,,,,FF,,,,,,,,0.499785,,,,,,,,,,,,,,,,,,,,,,,5c573e54e9813700018acc31,60a7d7fc0ede097370f253f0,2021-05-21_16h56.26.464,Simcolourproject_2stim_asymm_v5,2020.2.10,Win32,60,60a5f9bf14d0aa2821c4bb84,,,,,1786,94.40001285,37.39999518,1,0,0,response1disk,,6,1.600060296,1.399994642,1,0,0,rectangle,1.600060296,1.399994642,1,0,0,7,"[171,58,186,212,67,243,316,3,74,211,260,187,58,107,106,156,183,199,248,153]",1.600060296,1.399994642,1,0,0,0,154,154,31,1,,,
,,,,,,,,,,,,,FF,,,,,,,,0.816435,,,,,,,,,,,,,,,,,,,,,,,5c573e54e9813700018acc31,60a7d7fc0ede097370f253f0,2021-05-21_16h56.26.464,Simcolourproject_2stim_asymm_v5,2020.2.10,Win32,60,60a5f9bf14d0aa2821c4bb84,,,,,3500,80.00001264,34.19997072,1,0,0,response1disk,,6,9.600060415,3.799994677,1,0,0,rectangle,-30.39994018,80.59999582,1,0,0,0,"[171,58,186,212,67,243,316,3,74,211,260,187,58,107,106,156,183,199,248,153]",8.000011563,14.19997042,1,0,0,0,155,155,132,1,,response7disk_3,rectangle
,,,,,,,,,,,,,FF,,,,,,,,0.58251,,,,,,,,,,,,,,,,,,,,,,,5c573e54e9813700018acc31,60a7d7fc0ede097370f253f0,2021-05-21_16h56.26.464,Simcolourproject_2stim_asymm_v5,2020.2.10,Win32,60,60a5f9bf14d0aa2821c4bb84,,,,,1028,109.6000131,50.19997095,1,0,0,response1disk,,6,1.600060296,-5.80002988,1,0,0,rectangle,1.600060296,-5.80002988,1,0,0,6,"[171,58,186,212,67,243,316,3,74,211,260,187,58,107,106,156,183,199,248,153]",1.600060296,-5.80002988,1,0,0,0,156,156,17,1,,,
,,,,,,,,,,,,,FF,,,,,,,,0.71655,,,,,,,,,,,,,,,,,,,,,,,5c573e54e9813700018acc31,60a7d7fc0ede097370f253f0,2021-05-21_16h56.26.464,Simcolourproject_2stim_asymm_v5,2020.2.10,Win32,60,60a5f9bf14d0aa2821c4bb84,,,,,1291,-69.59998959,25.399995,1,0,0,response7disk,,1,-27.19998896,2.999994665,1,0,0,rectangle,-27.19998896,2.999994665,1,0,0,0,"[171,58,186,212,67,243,316,3,74,211,260,187,58,107,106,156,183,199,248,153]",-27.19998896,2.999994665,1,0,0,0,157,157,87,1,,,
,,,,,,,,,,,,,FF,,,,,,,,0.68623,,,,,,,,,,,,,,,,,,,,,,,5c573e54e9813700018acc31,60a7d7fc0ede097370f253f0,2021-05-21_16h56.26.464,Simcolourproject_2stim_asymm_v5,2020.2.10,Win32,60,60a5f9bf14d0aa2821c4bb84,,,,,4334,48.80001217,86.19997149,1,0,0,response1disk,,7,1.600060296,6.199970299,1,0,0,rectangle,1.600060296,6.199970299,1,0,0,4,"[171,58,186,212,67,243,316,3,74,211,260,187,58,107,106,156,183,199,248,153]",1.600060296,6.199970299,1,0,0,0,158,158,150,1,,,
,,,,,,,,,,,,,FF,,,,,,,,0.916025,,,,,,,,,,,,,,,,,,,,,,,5c573e54e9813700018acc31,60a7d7fc0ede097370f253f0,2021-05-21_16h56.26.464,Simcolourproject_2stim_asymm_v5,2020.2.10,Win32,60,60a5f9bf14d0aa2821c4bb84,,,,,1711,80.00001264,-33.8000303,1,0,0,response3disk,,5,3.200011492,1.399994642,1,0,0,rectangle,3.200011492,1.399994642,1,0,0,4,"[171,58,186,212,67,243,316,3,74,211,260,187,58,107,106,156,183,199,248,153]",3.200011492,1.399994642,1,0,0,0,159,159,148,1,,,
,,,,,,,,,,,,,FF,,,,,,,,0.74965,,,,,,,,,,,,,,,,,,,,,,,5c573e54e9813700018acc31,60a7d7fc0ede097370f253f0,2021-05-21_16h56.26.464,Simcolourproject_2stim_asymm_v5,2020.2.10,Win32,60,60a5f9bf14d0aa2821c4bb84,,,,,2617,94.40001285,41.39999524,1,0,0,response1disk,,6,14.40001166,-5.000005454,1,0,0,rectangle,14.40001166,-5.000005454,1,0,0,4,"[171,58,186,212,67,243,316,3,74,211,260,187,58,107,106,156,183,199,248,153]",14.40001166,-5.000005454,1,0,0,0,160,160,32,1,,,
,,,,,,,,,,,,,FF,,,,,,,,0.866245,,,,,,,,,,,,,,,,,,,,,,,5c573e54e9813700018acc31,60a7d7fc0ede097370f253f0,2021-05-21_16h56.26.464,Simcolourproject_2stim_asymm_v5,2020.2.10,Win32,60,60a5f9bf14d0aa2821c4bb84,,,,,2950,-59.19998944,-103.4000069,1,0,0,response5disk,,3,-10.39993988,-8.200005502,1,0,0,rectangle,-10.39993988,-8.200005502,1,0,0,2,"[171,58,186,212,67,243,316,3,74,211,260,187,58,107,106,156,183,199,248,153]",-10.39993988,-8.200005502,1,0,0,1,0,161,53,1,,,
,,,,,,,,,,,,,FF,,,,,,,,0.64985,,,,,,,,,,,,,,,,,,,,,,,5c573e54e9813700018acc31,60a7d7fc0ede097370f253f0,2021-05-21_16h56.26.464,Simcolourproject_2stim_asymm_v5,2020.2.10,Win32,60,60a5f9bf14d0aa2821c4bb84,,,,,836,84.0000127,-51.40000615,1,0,0,response3disk,,5,18.40001172,-5.000005454,1,0,0,rectangle,18.40001172,-5.000005454,1,0,0,0,"[171,58,186,212,67,243,316,3,74,211,260,187,58,107,106,156,183,199,248,153]",18.40001172,-5.000005454,1,0,0,1,1,162,0,1,,,
,,,,,,,,,,,,,FF,,,,,,,,0.899945,,,,,,,,,,,,,,,,,,,,,,,5c573e54e9813700018acc31,60a7d7fc0ede097370f253f0,2021-05-21_16h56.26.464,Simcolourproject_2stim_asymm_v5,2020.2.10,Win32,60,60a5f9bf14d0aa2821c4bb84,,,,,4162,59.20001233,-92.20000675,1,0,0,response3disk,,4,18.40001172,2.199970239,1,0,0,rectangle,18.40001172,2.199970239,1,0,0,5,"[171,58,186,212,67,243,316,3,74,211,260,187,58,107,106,156,183,199,248,153]",18.40001172,2.199970239,1,0,0,1,2,163,141,1,,,
,,,,,,,,,,,,,FF,,,,,,,,0.51586,,,,,,,,,,,,,,,,,,,,,,,5c573e54e9813700018acc31,60a7d7fc0ede097370f253f0,2021-05-21_16h56.26.464,Simcolourproject_2stim_asymm_v5,2020.2.10,Win32,60,60a5f9bf14d0aa2821c4bb84,,,,,1564,93.60001284,-41.80003042,1,0,0,response3disk,,5,1.14441E-05,10.19997036,1,0,0,rectangle,1.14441E-05,10.19997036,1,0,0,1,"[171,58,186,212,67,243,316,3,74,211,260,187,58,107,106,156,183,199,248,153]",1.14441E-05,10.19997036,1,0,0,1,3,164,29,1,,,
,,,,,,,,,,,,,FF,,,,,,,,0.699935,,,,,,,,,,,,,,,,,,,,,,,5c573e54e9813700018acc31,60a7d7fc0ede097370f253f0,2021-05-21_16h56.26.464,Simcolourproject_2stim_asymm_v5,2020.2.10,Win32,60,60a5f9bf14d0aa2821c4bb84,,,,,1593,76.80001259,42.99999526,1,0,0,response1disk,,6,15.20001167,0.59999463,1,0,0,rectangle,15.20001167,0.59999463,1,0,0,6,"[171,58,186,212,67,243,316,3,74,211,260,187,58,107,106,156,183,199,248,153]",15.20001167,0.59999463,1,0,0,1,4,165,81,1,,,
,,,,,,,,,,,,,FF,,,,,,,,0.69956,,,,,,,,,,,,,,,,,,,,,,,5c573e54e9813700018acc31,60a7d7fc0ede097370f253f0,2021-05-21_16h56.26.464,Simcolourproject_2stim_asymm_v5,2020.2.10,Win32,60,60a5f9bf14d0aa2821c4bb84,,,,,3996,36.00001198,-103.4000069,1,0,0,response3disk,,4,15.20001167,-1.000005394,1,0,0,rectangle,15.20001167,-1.000005394,1,0,0,6,"[171,58,186,212,67,243,316,3,74,211,260,187,58,107,106,156,183,199,248,153]",15.20001167,-1.000005394,1,0,0,1,5,166,4,1,,,
,,,,,,,,,,,,,FF,,,,,,,,0.749655,,,,,,,,,,,,,,,,,,,,,,,5c573e54e9813700018acc31,60a7d7fc0ede097370f253f0,2021-05-21_16h56.26.464,Simcolourproject_2stim_asymm_v5,2020.2.10,Win32,60,60a5f9bf14d0aa2821c4bb84,,,,,2878,40.00001204,-73.80000648,1,0,0,response3disk,,4,10.4000116,4.599994689,1,0,0,rectangle,10.4000116,4.599994689,1,0,0,2,"[171,58,186,212,67,243,316,3,74,211,260,187,58,107,106,156,183,199,248,153]",10.4000116,4.599994689,1,0,0,1,6,167,5,1,,,
,,,,,,,,,,,,,FF,,,,,,,,0.6996,,,,,,,,,,,,,,,,,,,,,,,5c573e54e9813700018acc31,60a7d7fc0ede097370f253f0,2021-05-21_16h56.26.464,Simcolourproject_2stim_asymm_v5,2020.2.10,Win32,60,60a5f9bf14d0aa2821c4bb84,,,,,4344,-81.59998977,98.9999961,1,0,0,response7disk,,0,22.40001178,-9.800029939,1,0,0,rectangle,22.40001178,-9.800029939,1,0,0,6,"[171,58,186,212,67,243,316,3,74,211,260,187,58,107,106,156,183,199,248,153]",22.40001178,-9.800029939,1,0,0,1,7,168,101,1,,,
,,,,,,,,,,,,,FF,,,,,,,,0.582505,,,,,,,,,,,,,,,,,,,,,,,5c573e54e9813700018acc31,60a7d7fc0ede097370f253f0,2021-05-21_16h56.26.464,Simcolourproject_2stim_asymm_v5,2020.2.10,Win32,60,60a5f9bf14d0aa2821c4bb84,,,,,3192,-67.99998957,39.79999521,1,0,0,response7disk,,1,-3.999988616,3.799994677,1,0,0,rectangle,-3.999988616,3.799994677,1,0,0,6,"[171,58,186,212,67,243,316,3,74,211,260,187,58,107,106,156,183,199,248,153]",-3.999988616,3.799994677,1,0,0,1,8,169,72,1,,,
,,,,,,,,,,,,,FF,,,,,,,,0.68285,,,,,,,,,,,,,,,,,,,,,,,5c573e54e9813700018acc31,60a7d7fc0ede097370f253f0,2021-05-21_16h56.26.464,Simcolourproject_2stim_asymm_v5,2020.2.10,Win32,60,60a5f9bf14d0aa2821c4bb84,,,,,540,61.60001236,-25.00000575,1,0,0,response3disk,,5,-9.599988699,-4.200005442,1,0,0,rectangle,106.400013,44.59999529,1,0,0,6,"[171,58,186,212,67,243,316,3,74,211,260,187,58,107,106,156,183,199,248,153]",12.00001162,3.799994677,1,0,0,1,9,170,155,1,,response1disk_3,rectangle
,,,,,,,,,,,,,FF,,,,,,,,0.59952,,,,,,,,,,,,,,,,,,,,,,,5c573e54e9813700018acc31,60a7d7fc0ede097370f253f0,2021-05-21_16h56.26.464,Simcolourproject_2stim_asymm_v5,2020.2.10,Win32,60,60a5f9bf14d0aa2821c4bb84,,,,,2520,71.20001251,46.99999532,1,0,0,response1disk,,6,3.200011492,-7.40000549,1,0,0,rectangle,3.200011492,-7.40000549,1,0,0,3,"[171,58,186,212,67,243,316,3,74,211,260,187,58,107,106,156,183,199,248,153]",3.200011492,-7.40000549,1,0,0,1,10,171,68,1,,,
,,,,,,,,,,,,,FF,,,,,,,,0.533315,,,,,,,,,,,,,,,,,,,,,,,5c573e54e9813700018acc31,60a7d7fc0ede097370f253f0,2021-05-21_16h56.26.464,Simcolourproject_2stim_asymm_v5,2020.2.10,Win32,60,60a5f9bf14d0aa2821c4bb84,,,,,4334,55.20001227,86.19997149,1,0,0,response1disk,,7,9.600060415,-2.600005418,1,0,0,rectangle,9.600060415,-2.600005418,1,0,0,7,"[171,58,186,212,67,243,316,3,74,211,260,187,58,107,106,156,183,199,248,153]",9.600060415,-2.600005418,1,0,0,1,11,172,77,1,,,
,,,,,,,,,,,,,FF,,,,,,,,0.750115,,,,,,,,,,,,,,,,,,,,,,,5c573e54e9813700018acc31,60a7d7fc0ede097370f253f0,2021-05-21_16h56.26.464,Simcolourproject_2stim_asymm_v5,2020.2.10,Win32,60,60a5f9bf14d0aa2821c4bb84,,,,,1239,85.60001272,46.99999532,1,0,0,response1disk,,6,5.600060356,-5.000005454,1,0,0,rectangle,5.600060356,-5.000005454,1,0,0,4,"[171,58,186,212,67,243,316,3,74,211,260,187,58,107,106,156,183,199,248,153]",5.600060356,-5.000005454,1,0,0,1,12,173,84,1,,,
,,,,,,,,,,,,,FF,,,,,,,,0.83333,,,,,,,,,,,,,,,,,,,,,,,5c573e54e9813700018acc31,60a7d7fc0ede097370f253f0,2021-05-21_16h56.26.464,Simcolourproject_2stim_asymm_v5,2020.2.10,Win32,60,60a5f9bf14d0aa2821c4bb84,,,,,635,48.00001216,-86.6000555,1,0,0,response3disk,,4,-9.599988699,6.199970299,1,0,0,rectangle,-9.599988699,6.199970299,1,0,0,5,"[171,58,186,212,67,243,316,3,74,211,260,187,58,107,106,156,183,199,248,153]",-9.599988699,6.199970299,1,0,0,1,13,174,127,1,,,
,,,,,,,,,,,,,FF,,,,,,,,0.619235,,,,,,,,,,,,,,,,,,,,,,,5c573e54e9813700018acc31,60a7d7fc0ede097370f253f0,2021-05-21_16h56.26.464,Simcolourproject_2stim_asymm_v5,2020.2.10,Win32,60,60a5f9bf14d0aa2821c4bb84,,,,,3711,35.20001197,-77.80000654,1,0,0,response3disk,,4,4.800011516,-9.000005513,1,0,0,rectangle,4.800011516,-9.000005513,1,0,0,7,"[171,58,186,212,67,243,316,3,74,211,260,187,58,107,106,156,183,199,248,153]",4.800011516,-9.000005513,1,0,0,1,14,175,143,1,,,
,,,,,,,,,,,,,FF,,,,,,,,0.565925,,,,,,,,,,,,,,,,,,,,,,,5c573e54e9813700018acc31,60a7d7fc0ede097370f253f0,2021-05-21_16h56.26.464,Simcolourproject_2stim_asymm_v5,2020.2.10,Win32,60,60a5f9bf14d0aa2821c4bb84,,,,,1358,104.800013,-47.4000305,1,0,0,response3disk,,5,36.00001198,4.599994689,1,0,0,rectangle,36.00001198,4.599994689,1,0,0,4,"[171,58,186,212,67,243,316,3,74,211,260,187,58,107,106,156,183,199,248,153]",36.00001198,4.599994689,1,0,0,1,15,176,131,1,,,
,,,,,,,,,,,,,FF,,,,,,,,0.96608,,,,,,,,,,,,,,,,,,,,,,,5c573e54e9813700018acc31,60a7d7fc0ede097370f253f0,2021-05-21_16h56.26.464,Simcolourproject_2stim_asymm_v5,2020.2.10,Win32,60,60a5f9bf14d0aa2821c4bb84,,,,,222,49.60006101,-51.40000615,1,0,0,response3disk,,4,4.800011516,0.59999463,1,0,0,rectangle,4.800011516,0.59999463,1,0,0,7,"[171,58,186,212,67,243,316,3,74,211,260,187,58,107,106,156,183,199,248,153]",4.800011516,0.59999463,1,0,0,1,16,177,17,1,,,
,,,,,,,,,,,,,FF,,,,,,,,0.616875,,,,,,,,,,,,,,,,,,,,,,,5c573e54e9813700018acc31,60a7d7fc0ede097370f253f0,2021-05-21_16h56.26.464,Simcolourproject_2stim_asymm_v5,2020.2.10,Win32,60,60a5f9bf14d0aa2821c4bb84,,,,,3051,48.00001216,-80.20000657,1,0,0,response3disk,,4,11.20001161,-0.200005382,1,0,0,rectangle,11.20001161,-0.200005382,1,0,0,3,"[171,58,186,212,67,243,316,3,74,211,260,187,58,107,106,156,183,199,248,153]",11.20001161,-0.200005382,1,0,0,1,17,178,129,1,,,
,,,,,,,,,,,,,FF,,,,,,,,0.716435,,,,,,,,,,,,,,,,,,,,,,,5c573e54e9813700018acc31,60a7d7fc0ede097370f253f0,2021-05-21_16h56.26.464,Simcolourproject_2stim_asymm_v5,2020.2.10,Win32,60,60a5f9bf14d0aa2821c4bb84,,,,,1332,101.600013,35.79999515,1,0,0,response1disk,,6,8.000011563,-1.80002982,1,0,0,rectangle,8.000011563,-1.80002982,1,0,0,0,"[171,58,186,212,67,243,316,3,74,211,260,187,58,107,106,156,183,199,248,153]",8.000011563,-1.80002982,1,0,0,1,18,179,48,1,,,
,,,,,,,,,,,,,FF,,,,,,,,0.616335,,,,,,,,,,,,,,,,,,,,,,,5c573e54e9813700018acc31,60a7d7fc0ede097370f253f0,2021-05-21_16h56.26.464,Simcolourproject_2stim_asymm_v5,2020.2.10,Win32,60,60a5f9bf14d0aa2821c4bb84,,,,,1760,83.20001268,-61.00000629,1,0,0,response3disk,,5,6.400011539,-0.200005382,1,0,0,rectangle,6.400011539,-0.200005382,1,0,0,6,"[171,58,186,212,67,243,316,3,74,211,260,187,58,107,106,156,183,199,248,153]",6.400011539,-0.200005382,1,0,0,1,19,180,134,1,,,
,,,,,,,,,,,,,FF,,,,,,,,1.019485,,,,,,,,,,,,,,,,,,,,,,,5c573e54e9813700018acc31,60a7d7fc0ede097370f253f0,2021-05-21_16h56.26.464,Simcolourproject_2stim_asymm_v5,2020.2.10,Win32,60,60a5f9bf14d0aa2821c4bb84,,,,,1672,-31.19998902,-77.80000654,1,0,0,response5disk,,3,-6.399939823,2.199970239,1,0,0,rectangle,-6.399939823,2.199970239,1,0,0,7,"[171,58,186,212,67,243,316,3,74,211,260,187,58,107,106,156,183,199,248,153]",-6.399939823,2.199970239,1,0,0,1,20,181,2,1,,,
,,,,,,,,,,,,,FF,,,,,,,,0.735975,,,,,,,,,,,,,,,,,,,,,,,5c573e54e9813700018acc31,60a7d7fc0ede097370f253f0,2021-05-21_16h56.26.464,Simcolourproject_2stim_asymm_v5,2020.2.10,Win32,60,60a5f9bf14d0aa2821c4bb84,,,,,1622,100.8000129,38.19997078,1,0,0,response1disk,,6,5.600060356,-5.000005454,1,0,0,rectangle,-51.19998932,100.5999961,1,0,0,0,"[171,58,186,212,67,243,316,3,74,211,260,187,58,107,106,156,183,199,248,153]",4.800011516,-5.80002988,1,0,0,1,21,182,117,1,,response7disk_3,rectangle
,,,,,,,,,,,,,FF,,,,,,,,0.784625,,,,,,,,,,,,,,,,,,,,,,,5c573e54e9813700018acc31,60a7d7fc0ede097370f253f0,2021-05-21_16h56.26.464,Simcolourproject_2stim_asymm_v5,2020.2.10,Win32,60,60a5f9bf14d0aa2821c4bb84,,,,,988,91.2000128,38.19997078,1,0,0,response1disk,,6,28.80001187,3.799994677,1,0,0,rectangle,28.80001187,3.799994677,1,0,0,6,"[171,58,186,212,67,243,316,3,74,211,260,187,58,107,106,156,183,199,248,153]",28.80001187,3.799994677,1,0,0,1,22,183,132,1,,,
,,,,,,,,,,,,,FF,,,,,,,,0.73628,,,,,,,,,,,,,,,,,,,,,,,5c573e54e9813700018acc31,60a7d7fc0ede097370f253f0,2021-05-21_16h56.26.464,Simcolourproject_2stim_asymm_v5,2020.2.10,Win32,60,60a5f9bf14d0aa2821c4bb84,,,,,3041,-44.79998922,-68.2000064,1,0,0,response5disk,,3,-35.19998908,-5.000005454,1,0,0,rectangle,-35.19998908,-5.000005454,1,0,0,0,"[171,58,186,212,67,243,316,3,74,211,260,187,58,107,106,156,183,199,248,153]",-35.19998908,-5.000005454,1,0,0,1,23,184,76,1,,,
,,,,,,,,,,,,,FF,,,,,,,,0.666085,,,,,,,,,,,,,,,,,,,,,,,5c573e54e9813700018acc31,60a7d7fc0ede097370f253f0,2021-05-21_16h56.26.464,Simcolourproject_2stim_asymm_v5,2020.2.10,Win32,60,60a5f9bf14d0aa2821c4bb84,,,,,1920,99.20001292,44.59999529,1,0,0,response1disk,,6,14.40001166,-1.80002982,1,0,0,rectangle,41.60006089,-105.800007,1,0,0,4,"[171,58,186,212,67,243,316,3,74,211,260,187,58,107,106,156,183,199,248,153]",20.00001174,-5.80002988,1,0,0,1,24,185,25,1,,response3disk_3,rectangle
,,,,,,,,,,,,,FF,,,,,,,,0.833165,,,,,,,,,,,,,,,,,,,,,,,5c573e54e9813700018acc31,60a7d7fc0ede097370f253f0,2021-05-21_16h56.26.464,Simcolourproject_2stim_asymm_v5,2020.2.10,Win32,60,60a5f9bf14d0aa2821c4bb84,,,,,2951,-51.19998932,-85.80000666,1,0,0,response5disk,,3,-15.99998879,-9.800029939,1,0,0,rectangle,87.20001274,-37.00000593,1,0,0,5,"[171,58,186,212,67,243,316,3,74,211,260,187,58,107,106,156,183,199,248,153]",13.60006047,-3.40000543,1,0,0,1,25,186,97,1,,response3disk_3,rectangle
,,,,,,,,,,,,,FF,,,,,,,,0.68284,,,,,,,,,,,,,,,,,,,,,,,5c573e54e9813700018acc31,60a7d7fc0ede097370f253f0,2021-05-21_16h56.26.464,Simcolourproject_2stim_asymm_v5,2020.2.10,Win32,60,60a5f9bf14d0aa2821c4bb84,,,,,2857,119.2000132,62.99999556,1,0,0,response1disk,,6,-0.799988568,-1.000005394,1,0,0,rectangle,-0.799988568,-1.000005394,1,0,0,5,"[171,58,186,212,67,243,316,3,74,211,260,187,58,107,106,156,183,199,248,153]",-0.799988568,-1.000005394,1,0,0,1,26,187,95,1,,,
,,,,,,,,,,,,,FF,,,,,,,,0.70009,,,,,,,,,,,,,,,,,,,,,,,5c573e54e9813700018acc31,60a7d7fc0ede097370f253f0,2021-05-21_16h56.26.464,Simcolourproject_2stim_asymm_v5,2020.2.10,Win32,60,60a5f9bf14d0aa2821c4bb84,,,,,1518,92.80001283,54.19997101,1,0,0,response1disk,,6,16.80001169,-1.80002982,1,0,0,rectangle,16.80001169,-1.80002982,1,0,0,7,"[171,58,186,212,67,243,316,3,74,211,260,187,58,107,106,156,183,199,248,153]",16.80001169,-1.80002982,1,0,0,1,27,188,58,1,,,
,,,,,,,,,,,,,FF,,,,,,,,0.732935,,,,,,,,,,,,,,,,,,,,,,,5c573e54e9813700018acc31,60a7d7fc0ede097370f253f0,2021-05-21_16h56.26.464,Simcolourproject_2stim_asymm_v5,2020.2.10,Win32,60,60a5f9bf14d0aa2821c4bb84,,,,,3572,102.400013,30.19997066,1,0,0,response1disk,,6,18.40001172,1.399994642,1,0,0,rectangle,18.40001172,1.399994642,1,0,0,2,"[171,58,186,212,67,243,316,3,74,211,260,187,58,107,106,156,183,199,248,153]",18.40001172,1.399994642,1,0,0,1,28,189,151,1,,,
,,,,,,,,,,,,,FF,,,,,,,,1.23293,,,,,,,,,,,,,,,,,,,,,,,5c573e54e9813700018acc31,60a7d7fc0ede097370f253f0,2021-05-21_16h56.26.464,Simcolourproject_2stim_asymm_v5,2020.2.10,Win32,60,60a5f9bf14d0aa2821c4bb84,,,,,3974,-35.19998908,-85.80000666,1,0,0,response5disk,,3,6.400011539,0.59999463,1,0,0,rectangle,6.400011539,0.59999463,1,0,0,1,"[171,58,186,212,67,243,316,3,74,211,260,187,58,107,106,156,183,199,248,153]",6.400011539,0.59999463,1,0,0,1,29,190,30,1,,,
,,,,,,,,,,,,,FF,,,,,,,,0.516825,,,,,,,,,,,,,,,,,,,,,,,5c573e54e9813700018acc31,60a7d7fc0ede097370f253f0,2021-05-21_16h56.26.464,Simcolourproject_2stim_asymm_v5,2020.2.10,Win32,60,60a5f9bf14d0aa2821c4bb84,,,,,3500,93.60001284,-37.80003036,1,0,0,response3disk,,5,29.60006071,2.199970239,1,0,0,rectangle,29.60006071,2.199970239,1,0,0,7,"[171,58,186,212,67,243,316,3,74,211,260,187,58,107,106,156,183,199,248,153]",29.60006071,2.199970239,1,0,0,1,30,191,9,1,,,
,,,,,,,,,,,,,FF,,,,,,,,0.58383,,,,,,,,,,,,,,,,,,,,,,,5c573e54e9813700018acc31,60a7d7fc0ede097370f253f0,2021-05-21_16h56.26.464,Simcolourproject_2stim_asymm_v5,2020.2.10,Win32,60,60a5f9bf14d0aa2821c4bb84,,,,,2950,44.80001211,-73.80000648,1,0,0,response3disk,,4,18.40001172,3.799994677,1,0,0,rectangle,18.40001172,3.799994677,1,0,0,1,"[171,58,186,212,67,243,316,3,74,211,260,187,58,107,106,156,183,199,248,153]",18.40001172,3.799994677,1,0,0,1,31,192,91,1,,,
,,,,,,,,,,,,,FF,,,,,,,,0.54984,,,,,,,,,,,,,,,,,,,,,,,5c573e54e9813700018acc31,60a7d7fc0ede097370f253f0,2021-05-21_16h56.26.464,Simcolourproject_2stim_asymm_v5,2020.2.10,Win32,60,60a5f9bf14d0aa2821c4bb84,,,,,3560,48.00001216,-81.8000066,1,0,0,response3disk,,4,23.20001179,2.199970239,1,0,0,rectangle,23.20001179,2.199970239,1,0,0,0,"[171,58,186,212,67,243,316,3,74,211,260,187,58,107,106,156,183,199,248,153]",23.20001179,2.199970239,1,0,0,1,32,193,42,1,,,
,,,,,,,,,,,,,FF,,,,,,,,0.749615,,,,,,,,,,,,,,,,,,,,,,,5c573e54e9813700018acc31,60a7d7fc0ede097370f253f0,2021-05-21_16h56.26.464,Simcolourproject_2stim_asymm_v5,2020.2.10,Win32,60,60a5f9bf14d0aa2821c4bb84,,,,,2552,109.6000131,42.99999526,1,0,0,response1disk,,6,-8.799988687,-2.600005418,1,0,0,rectangle,-8.799988687,-2.600005418,1,0,0,6,"[171,58,186,212,67,243,316,3,74,211,260,187,58,107,106,156,183,199,248,153]",-8.799988687,-2.600005418,1,0,0,1,33,194,41,1,,,
,,,,,,,,,,,,,FF,,,,,,,,0.566215,,,,,,,,,,,,,,,,,,,,,,,5c573e54e9813700018acc31,60a7d7fc0ede097370f253f0,2021-05-21_16h56.26.464,Simcolourproject_2stim_asymm_v5,2020.2.10,Win32,60,60a5f9bf14d0aa2821c4bb84,,,,,2640,59.20001233,94.99999604,1,0,0,response1disk,,7,-11.19998872,4.599994689,1,0,0,rectangle,-11.19998872,4.599994689,1,0,0,2,"[171,58,186,212,67,243,316,3,74,211,260,187,58,107,106,156,183,199,248,153]",-11.19998872,4.599994689,1,0,0,1,34,195,40,1,,,
,,,,,,,,,,,,,FF,,,,,,,,0.583145,,,,,,,,,,,,,,,,,,,,,,,5c573e54e9813700018acc31,60a7d7fc0ede097370f253f0,2021-05-21_16h56.26.464,Simcolourproject_2stim_asymm_v5,2020.2.10,Win32,60,60a5f9bf14d0aa2821c4bb84,,,,,1711,81.60001266,38.9999952,1,0,0,response1disk,,6,-25.59998894,-0.200005382,1,0,0,rectangle,-25.59998894,-0.200005382,1,0,0,3,"[171,58,186,212,67,243,316,3,74,211,260,187,58,107,106,156,183,199,248,153]",-25.59998894,-0.200005382,1,0,0,1,35,196,66,1,,,
,,,,,,,,,,,,,FF,,,,,,,,0.866545,,,,,,,,,,,,,,,,,,,,,,,5c573e54e9813700018acc31,60a7d7fc0ede097370f253f0,2021-05-21_16h56.26.464,Simcolourproject_2stim_asymm_v5,2020.2.10,Win32,60,60a5f9bf14d0aa2821c4bb84,,,,,3978,51.20001221,-81.8000066,1,0,0,response3disk,,4,15.20001167,-6.600005478,1,0,0,rectangle,15.20001167,-6.600005478,1,0,0,1,"[171,58,186,212,67,243,316,3,74,211,260,187,58,107,106,156,183,199,248,153]",15.20001167,-6.600005478,1,0,0,1,36,197,111,1,,,
,,,,,,,,,,,,,FF,,,,,,,,0.616535,,,,,,,,,,,,,,,,,,,,,,,5c573e54e9813700018acc31,60a7d7fc0ede097370f253f0,2021-05-21_16h56.26.464,Simcolourproject_2stim_asymm_v5,2020.2.10,Win32,60,60a5f9bf14d0aa2821c4bb84,,,,,1528,-41.59998918,-78.60005538,1,0,0,response5disk,,3,-18.39994,-8.200005502,1,0,0,rectangle,-31.99998903,109.3999963,1,0,0,0,"[171,58,186,212,67,243,316,3,74,211,260,187,58,107,106,156,183,199,248,153]",4.800011516,10.19997036,1,0,0,1,37,198,124,1,,response7disk_3,rectangle
,,,,,,,,,,,,,FF,,,,,,,,1.016065,,,,,,,,,,,,,,,,,,,,,,,5c573e54e9813700018acc31,60a7d7fc0ede097370f253f0,2021-05-21_16h56.26.464,Simcolourproject_2stim_asymm_v5,2020.2.10,Win32,60,60a5f9bf14d0aa2821c4bb84,,,,,3781,-28.79998899,-77.00000653,1,0,0,response5disk,,3,-7.199988663,-9.000005513,1,0,0,rectangle,-7.199988663,-9.000005513,1,0,0,2,"[171,58,186,212,67,243,316,3,74,211,260,187,58,107,106,156,183,199,248,153]",-7.199988663,-9.000005513,1,0,0,1,38,199,46,1,,,
,,,,,,,,,,,,,FF,,,,,,,,0.79969,,,,,,,,,,,,,,,,,,,,,,,5c573e54e9813700018acc31,60a7d7fc0ede097370f253f0,2021-05-21_16h56.26.464,Simcolourproject_2stim_asymm_v5,2020.2.10,Win32,60,60a5f9bf14d0aa2821c4bb84,,,,,957,63.20001239,37.39999518,1,0,0,response1disk,,6,12.00001162,-3.40000543,1,0,0,rectangle,12.00001162,-3.40000543,1,0,0,4,"[171,58,186,212,67,243,316,3,74,211,260,187,58,107,106,156,183,199,248,153]",12.00001162,-3.40000543,1,0,0,1,39,200,148,1,,,
,,,,,,,,,,,,,FF,,,,,,,,0.749865,,,,,,,,,,,,,,,,,,,,,,,5c573e54e9813700018acc31,60a7d7fc0ede097370f253f0,2021-05-21_16h56.26.464,Simcolourproject_2stim_asymm_v5,2020.2.10,Win32,60,60a5f9bf14d0aa2821c4bb84,,,,,1444,64.0000124,66.19997119,1,0,0,response1disk,,7,18.40001172,-0.200005382,1,0,0,rectangle,18.40001172,-0.200005382,1,0,0,1,"[171,58,186,212,67,243,316,3,74,211,260,187,58,107,106,156,183,199,248,153]",18.40001172,-0.200005382,1,0,0,1,40,201,49,1,,,
,,,,,,,,,,,,,FF,,,,,,,,0.59957,,,,,,,,,,,,,,,,,,,,,,,5c573e54e9813700018acc31,60a7d7fc0ede097370f253f0,2021-05-21_16h56.26.464,Simcolourproject_2stim_asymm_v5,2020.2.10,Win32,60,60a5f9bf14d0aa2821c4bb84,,,,,2429,49.60006101,77.39999577,1,0,0,response1disk,,7,4.000011504,-5.80002988,1,0,0,rectangle,4.000011504,-5.80002988,1,0,0,7,"[171,58,186,212,67,243,316,3,74,211,260,187,58,107,106,156,183,199,248,153]",4.000011504,-5.80002988,1,0,0,1,41,202,104,1,,,
,,,,,,,,,,,,,FF,,,,,,,,0.583185,,,,,,,,,,,,,,,,,,,,,,,5c573e54e9813700018acc31,60a7d7fc0ede097370f253f0,2021-05-21_16h56.26.464,Simcolourproject_2stim_asymm_v5,2020.2.10,Win32,60,60a5f9bf14d0aa2821c4bb84,,,,,1571,62.40001237,41.39999524,1,0,0,response1disk,,6,2.40001148,3.799994677,1,0,0,rectangle,2.40001148,3.799994677,1,0,0,5,"[171,58,186,212,67,243,316,3,74,211,260,187,58,107,106,156,183,199,248,153]",2.40001148,3.799994677,1,0,0,1,42,203,126,1,,,
,,,,,,,,,,,,,FF,,,,,,,,0.94984,,,,,,,,,,,,,,,,,,,,,,,5c573e54e9813700018acc31,60a7d7fc0ede097370f253f0,2021-05-21_16h56.26.464,Simcolourproject_2stim_asymm_v5,2020.2.10,Win32,60,60a5f9bf14d0aa2821c4bb84,,,,,720,-94.39994113,-41.00000599,1,0,0,response5disk,,6,-3.199988604,-1.000005394,1,0,0,rectangle,-3.199988604,-1.000005394,1,0,0,5,"[171,58,186,212,67,243,316,3,74,211,260,187,58,107,106,156,183,199,248,153]",-3.199988604,-1.000005394,1,0,0,1,43,204,69,1,,,
,,,,,,,,,,,,,FF,,,,,,,,0.58243,,,,,,,,,,,,,,,,,,,,,,,5c573e54e9813700018acc31,60a7d7fc0ede097370f253f0,2021-05-21_16h56.26.464,Simcolourproject_2stim_asymm_v5,2020.2.10,Win32,60,60a5f9bf14d0aa2821c4bb84,,,,,3244,-34.39994024,94.19997161,1,0,0,response7disk,,0,7.200011551,-12.20000556,1,0,0,rectangle,7.200011551,-12.20000556,1,0,0,4,"[171,58,186,212,67,243,316,3,74,211,260,187,58,107,106,156,183,199,248,153]",7.200011551,-12.20000556,1,0,0,1,44,205,3,1,,,
,,,,,,,,,,,,,FF,,,,,,,,0.700085,,,,,,,,,,,,,,,,,,,,,,,5c573e54e9813700018acc31,60a7d7fc0ede097370f253f0,2021-05-21_16h56.26.464,Simcolourproject_2stim_asymm_v5,2020.2.10,Win32,60,60a5f9bf14d0aa2821c4bb84,,,,,1096,112.0000131,46.1999709,1,0,0,response1disk,,6,36.00001198,5.399994701,1,0,0,rectangle,36.00001198,5.399994701,1,0,0,6,"[171,58,186,212,67,243,316,3,74,211,260,187,58,107,106,156,183,199,248,153]",36.00001198,5.399994701,1,0,0,1,45,206,105,1,,,
,,,,,,,,,,,,,FF,,,,,,,,0.549785,,,,,,,,,,,,,,,,,,,,,,,5c573e54e9813700018acc31,60a7d7fc0ede097370f253f0,2021-05-21_16h56.26.464,Simcolourproject_2stim_asymm_v5,2020.2.10,Win32,60,60a5f9bf14d0aa2821c4bb84,,,,,2779,66.40001243,34.19997072,1,0,0,response1disk,,6,4.800011516,2.199970239,1,0,0,rectangle,4.800011516,2.199970239,1,0,0,2,"[171,58,186,212,67,243,316,3,74,211,260,187,58,107,106,156,183,199,248,153]",4.800011516,2.199970239,1,0,0,1,46,207,50,1,,,
