key_resp.keys,key_resp.rt,key_resp_14.keys,key_resp_14.rt,key_resp_15.keys,key_resp_15.rt,key_resp_17.keys,key_resp_17.rt,key_resp_9.keys,key_resp_9.rt,key_resp_10.keys,key_resp_10.rt,practice_comparison,Ecc,mouse_5.x,mouse_5.y,mouse_5.leftButton,mouse_5.midButton,mouse_5.rightButton,mouse_5.clicked_name,pracsimilarity,response_time,mouse_10.x,mouse_10.y,mouse_10.leftButton,mouse_10.midButton,mouse_10.rightButton,mouse_10.clicked_name,mouse_7.x,mouse_7.y,mouse_7.leftButton,mouse_7.midButton,mouse_7.rightButton,catchnumberprac,mouse_6.x,mouse_6.y,mouse_6.leftButton,mouse_6.midButton,mouse_6.rightButton,duringprac.thisRepN,duringprac.thisTrialN,duringprac.thisN,duringprac.thisIndex,duringprac.ran,participant,session,date,expName,psychopyVersion,OS,frameRate,study_id,mouse_7.clicked_name,mouse_6.clicked_name,key_resp_22.keys,key_resp_22.rt,realcomparison,mouse.x,mouse.y,mouse.leftButton,mouse.midButton,mouse.rightButton,mouse.clicked_name,Colour2,similarity,mouse_2.x,mouse_2.y,mouse_2.leftButton,mouse_2.midButton,mouse_2.rightButton,mouse_2.clicked_name,mouse_3.x,mouse_3.y,mouse_3.leftButton,mouse_3.midButton,mouse_3.rightButton,catchnumber,catchtrialorder,mouse_11.x,mouse_11.y,mouse_11.leftButton,mouse_11.midButton,mouse_11.rightButton,trials_2.thisRepN,trials_2.thisTrialN,trials_2.thisN,trials_2.thisIndex,trials_2.ran,Colour1,mouse_3.clicked_name,mouse_11.clicked_name
space,7.587,space,27.906,space,19.18,space,9.128,space,2.663,space,4.311,87,FF,-54,89,1,0,0,response7disk_5,0,4.475,15,5,1,0,0,rectangle_8,15,5,1,0,0,2,15,5,1,0,0,0,0,0,5,1,5c59866b2e4cc90001d08a07,60a6c71e03f262ee5091e9fa,2021-05-21_15h38.07.992,Simcolourproject_2stim_asymm_v5,2020.2.10,Win32,60,60a5f9bf14d0aa2821c4bb84,,,,,,,,,,,,,,,,,,,,,,,,,,,,,,,,,,,,,,,
,,,,,,,,,,,,155,FF,48,87,1,0,0,response1disk_5,7,4.016,-11,9,1,0,0,rectangle_8,-92,-36,1,0,0,2,-2,2,1,0,0,0,1,1,3,1,5c59866b2e4cc90001d08a07,60a6c71e03f262ee5091e9fa,2021-05-21_15h38.07.992,Simcolourproject_2stim_asymm_v5,2020.2.10,Win32,60,60a5f9bf14d0aa2821c4bb84,response5disk_7,rectangle_4,,,,,,,,,,,,,,,,,,,,,,,,,,,,,,,,,,,,,
,,,,,,,,,,,,119,PF,42,71,1,0,0,response1disk_5,7,2.683,5,-6,1,0,0,rectangle_8,5,-6,1,0,0,2,5,-6,1,0,0,0,2,2,1,1,5c59866b2e4cc90001d08a07,60a6c71e03f262ee5091e9fa,2021-05-21_15h38.07.992,Simcolourproject_2stim_asymm_v5,2020.2.10,Win32,60,60a5f9bf14d0aa2821c4bb84,,,,,,,,,,,,,,,,,,,,,,,,,,,,,,,,,,,,,,,
,,,,,,,,,,,,22,FF,30,-79,1,0,0,response3disk_5,4,2.167,5,-2,1,0,0,rectangle_8,5,-2,1,0,0,2,5,-2,1,0,0,0,3,3,0,1,5c59866b2e4cc90001d08a07,60a6c71e03f262ee5091e9fa,2021-05-21_15h38.07.992,Simcolourproject_2stim_asymm_v5,2020.2.10,Win32,60,60a5f9bf14d0aa2821c4bb84,,,,,,,,,,,,,,,,,,,,,,,,,,,,,,,,,,,,,,,
,,,,,,,,,,,,105,PF,62,44,1,0,0,response1disk_5,6,1.467,-1,2,1,0,0,rectangle_8,-89,-35,1,0,0,2,1,-1,1,0,0,0,4,4,4,1,5c59866b2e4cc90001d08a07,60a6c71e03f262ee5091e9fa,2021-05-21_15h38.07.992,Simcolourproject_2stim_asymm_v5,2020.2.10,Win32,60,60a5f9bf14d0aa2821c4bb84,response5disk_7,rectangle_4,,,,,,,,,,,,,,,,,,,,,,,,,,,,,,,,,,,,,
,,,,,,,,,,,,126,PF,70,-42,1,0,0,response3disk_5,5,2.633,7,2,1,0,0,rectangle_8,7,2,1,0,0,2,7,2,1,0,0,0,5,5,2,1,5c59866b2e4cc90001d08a07,60a6c71e03f262ee5091e9fa,2021-05-21_15h38.07.992,Simcolourproject_2stim_asymm_v5,2020.2.10,Win32,60,60a5f9bf14d0aa2821c4bb84,,,,,,,,,,,,,,,,,,,,,,,,,,,,,,,,,,,,,,,
,,,,,,,,,,,,121,PF,52,72,1,0,0,response1disk_5,7,1.751,4,7,1,0,0,rectangle_8,4,7,1,0,0,2,4,7,1,0,0,0,6,6,6,1,5c59866b2e4cc90001d08a07,60a6c71e03f262ee5091e9fa,2021-05-21_15h38.07.992,Simcolourproject_2stim_asymm_v5,2020.2.10,Win32,60,60a5f9bf14d0aa2821c4bb84,,,,,,,,,,,,,,,,,,,,,,,,,,,,,,,,,,,,,,,
,,,,,,,,,,,,,FF,,,,,,,,2.416,,,,,,,,,,,,,,,,,,,,,,,5c59866b2e4cc90001d08a07,60a6c71e03f262ee5091e9fa,2021-05-21_15h38.07.992,Simcolourproject_2stim_asymm_v5,2020.2.10,Win32,60,60a5f9bf14d0aa2821c4bb84,,,space,5.435,1583,103,-49,1,0,0,response3disk,,5,10,-1,1,0,0,rectangle,10,-1,1,0,0,1,"[121,26,162,24,247,263,232,309,24,226,216,228,66,267,304,72,135,209,47,212]",10,-1,1,0,0,0,0,0,16,1,,,
,,,,,,,,,,,,,FF,,,,,,,,1.669,,,,,,,,,,,,,,,,,,,,,,,5c59866b2e4cc90001d08a07,60a6c71e03f262ee5091e9fa,2021-05-21_15h38.07.992,Simcolourproject_2stim_asymm_v5,2020.2.10,Win32,60,60a5f9bf14d0aa2821c4bb84,,,,,130,90,31,1,0,0,response1disk,,6,-1,6,1,0,0,rectangle,-1,6,1,0,0,6,"[121,26,162,24,247,263,232,309,24,226,216,228,66,267,304,72,135,209,47,212]",-1,6,1,0,0,0,1,1,46,1,,,
,,,,,,,,,,,,,FF,,,,,,,,1.083,,,,,,,,,,,,,,,,,,,,,,,5c59866b2e4cc90001d08a07,60a6c71e03f262ee5091e9fa,2021-05-21_15h38.07.992,Simcolourproject_2stim_asymm_v5,2020.2.10,Win32,60,60a5f9bf14d0aa2821c4bb84,,,,,4063,50,91,1,0,0,response1disk,,7,7,2,1,0,0,rectangle,7,2,1,0,0,5,"[121,26,162,24,247,263,232,309,24,226,216,228,66,267,304,72,135,209,47,212]",7,2,1,0,0,0,2,2,40,1,,,
,,,,,,,,,,,,,FF,,,,,,,,2.684,,,,,,,,,,,,,,,,,,,,,,,5c59866b2e4cc90001d08a07,60a6c71e03f262ee5091e9fa,2021-05-21_15h38.07.992,Simcolourproject_2stim_asymm_v5,2020.2.10,Win32,60,60a5f9bf14d0aa2821c4bb84,,,,,1871,99,55,1,0,0,response1disk,,6,1,1,1,0,0,rectangle,1,1,1,0,0,5,"[121,26,162,24,247,263,232,309,24,226,216,228,66,267,304,72,135,209,47,212]",1,1,1,0,0,0,3,3,98,1,,,
,,,,,,,,,,,,,FF,,,,,,,,1.666,,,,,,,,,,,,,,,,,,,,,,,5c59866b2e4cc90001d08a07,60a6c71e03f262ee5091e9fa,2021-05-21_15h38.07.992,Simcolourproject_2stim_asymm_v5,2020.2.10,Win32,60,60a5f9bf14d0aa2821c4bb84,,,,,3610,90,-46,1,0,0,response3disk,,5,7,8,1,0,0,rectangle,7,8,1,0,0,0,"[121,26,162,24,247,263,232,309,24,226,216,228,66,267,304,72,135,209,47,212]",7,8,1,0,0,0,4,4,127,1,,,
,,,,,,,,,,,,,FF,,,,,,,,2.15,,,,,,,,,,,,,,,,,,,,,,,5c59866b2e4cc90001d08a07,60a6c71e03f262ee5091e9fa,2021-05-21_15h38.07.992,Simcolourproject_2stim_asymm_v5,2020.2.10,Win32,60,60a5f9bf14d0aa2821c4bb84,,,,,4170,-78,-53,1,0,0,response5disk,,5,-2,5,1,0,0,rectangle,-2,5,1,0,0,2,"[121,26,162,24,247,263,232,309,24,226,216,228,66,267,304,72,135,209,47,212]",-2,5,1,0,0,0,5,5,92,1,,,
,,,,,,,,,,,,,FF,,,,,,,,1.449,,,,,,,,,,,,,,,,,,,,,,,5c59866b2e4cc90001d08a07,60a6c71e03f262ee5091e9fa,2021-05-21_15h38.07.992,Simcolourproject_2stim_asymm_v5,2020.2.10,Win32,60,60a5f9bf14d0aa2821c4bb84,,,,,792,87,28,1,0,0,response1disk,,6,-6,2,1,0,0,rectangle,-6,2,1,0,0,6,"[121,26,162,24,247,263,232,309,24,226,216,228,66,267,304,72,135,209,47,212]",-6,2,1,0,0,0,6,6,8,1,,,
,,,,,,,,,,,,,FF,,,,,,,,2.799,,,,,,,,,,,,,,,,,,,,,,,5c59866b2e4cc90001d08a07,60a6c71e03f262ee5091e9fa,2021-05-21_15h38.07.992,Simcolourproject_2stim_asymm_v5,2020.2.10,Win32,60,60a5f9bf14d0aa2821c4bb84,,,,,604,86,57,1,0,0,response1disk,,6,7,3,1,0,0,rectangle,7,3,1,0,0,4,"[121,26,162,24,247,263,232,309,24,226,216,228,66,267,304,72,135,209,47,212]",7,3,1,0,0,0,7,7,113,1,,,
,,,,,,,,,,,,,FF,,,,,,,,1.548,,,,,,,,,,,,,,,,,,,,,,,5c59866b2e4cc90001d08a07,60a6c71e03f262ee5091e9fa,2021-05-21_15h38.07.992,Simcolourproject_2stim_asymm_v5,2020.2.10,Win32,60,60a5f9bf14d0aa2821c4bb84,,,,,584,42,70,1,0,0,response1disk,,7,1,-4,1,0,0,rectangle,1,-4,1,0,0,5,"[121,26,162,24,247,263,232,309,24,226,216,228,66,267,304,72,135,209,47,212]",1,-4,1,0,0,0,8,8,60,1,,,
,,,,,,,,,,,,,FF,,,,,,,,1.1,,,,,,,,,,,,,,,,,,,,,,,5c59866b2e4cc90001d08a07,60a6c71e03f262ee5091e9fa,2021-05-21_15h38.07.992,Simcolourproject_2stim_asymm_v5,2020.2.10,Win32,60,60a5f9bf14d0aa2821c4bb84,,,,,1634,46,76,1,0,0,response1disk,,7,-1,-7,1,0,0,rectangle,-1,-7,1,0,0,0,"[121,26,162,24,247,263,232,309,24,226,216,228,66,267,304,72,135,209,47,212]",-1,-7,1,0,0,0,9,9,123,1,,,
,,,,,,,,,,,,,FF,,,,,,,,1.434,,,,,,,,,,,,,,,,,,,,,,,5c59866b2e4cc90001d08a07,60a6c71e03f262ee5091e9fa,2021-05-21_15h38.07.992,Simcolourproject_2stim_asymm_v5,2020.2.10,Win32,60,60a5f9bf14d0aa2821c4bb84,,,,,3382,-82,-27,1,0,0,response5disk,,7,2,-1,1,0,0,rectangle,2,-1,1,0,0,3,"[121,26,162,24,247,263,232,309,24,226,216,228,66,267,304,72,135,209,47,212]",2,-1,1,0,0,0,10,10,158,1,,,
,,,,,,,,,,,,,FF,,,,,,,,1.965,,,,,,,,,,,,,,,,,,,,,,,5c59866b2e4cc90001d08a07,60a6c71e03f262ee5091e9fa,2021-05-21_15h38.07.992,Simcolourproject_2stim_asymm_v5,2020.2.10,Win32,60,60a5f9bf14d0aa2821c4bb84,,,,,3993,-39,63,1,0,0,response7disk,,0,7,-2,1,0,0,rectangle,7,-2,1,0,0,0,"[121,26,162,24,247,263,232,309,24,226,216,228,66,267,304,72,135,209,47,212]",7,-2,1,0,0,0,11,11,136,1,,,
,,,,,,,,,,,,,FF,,,,,,,,1.5,,,,,,,,,,,,,,,,,,,,,,,5c59866b2e4cc90001d08a07,60a6c71e03f262ee5091e9fa,2021-05-21_15h38.07.992,Simcolourproject_2stim_asymm_v5,2020.2.10,Win32,60,60a5f9bf14d0aa2821c4bb84,,,,,2194,86,40,1,0,0,response1disk,,6,0,0,1,0,0,rectangle,0,0,1,0,0,3,"[121,26,162,24,247,263,232,309,24,226,216,228,66,267,304,72,135,209,47,212]",0,0,1,0,0,0,12,12,71,1,,,
,,,,,,,,,,,,,FF,,,,,,,,1.882,,,,,,,,,,,,,,,,,,,,,,,5c59866b2e4cc90001d08a07,60a6c71e03f262ee5091e9fa,2021-05-21_15h38.07.992,Simcolourproject_2stim_asymm_v5,2020.2.10,Win32,60,60a5f9bf14d0aa2821c4bb84,,,,,3945,51,-71,1,0,0,response3disk,,4,-6,6,1,0,0,rectangle,-6,6,1,0,0,5,"[121,26,162,24,247,263,232,309,24,226,216,228,66,267,304,72,135,209,47,212]",-6,6,1,0,0,0,13,13,77,1,,,
,,,,,,,,,,,,,FF,,,,,,,,2.283,,,,,,,,,,,,,,,,,,,,,,,5c59866b2e4cc90001d08a07,60a6c71e03f262ee5091e9fa,2021-05-21_15h38.07.992,Simcolourproject_2stim_asymm_v5,2020.2.10,Win32,60,60a5f9bf14d0aa2821c4bb84,,,,,1548,103,38,1,0,0,response1disk,,6,-4,5,1,0,0,rectangle,-4,5,1,0,0,3,"[121,26,162,24,247,263,232,309,24,226,216,228,66,267,304,72,135,209,47,212]",-4,5,1,0,0,0,14,14,31,1,,,
,,,,,,,,,,,,,FF,,,,,,,,2.298,,,,,,,,,,,,,,,,,,,,,,,5c59866b2e4cc90001d08a07,60a6c71e03f262ee5091e9fa,2021-05-21_15h38.07.992,Simcolourproject_2stim_asymm_v5,2020.2.10,Win32,60,60a5f9bf14d0aa2821c4bb84,,,,,2298,-59,-87,1,0,0,response5disk,,3,-1,4,1,0,0,rectangle,-1,4,1,0,0,6,"[121,26,162,24,247,263,232,309,24,226,216,228,66,267,304,72,135,209,47,212]",-1,4,1,0,0,0,15,15,20,1,,,
,,,,,,,,,,,,,FF,,,,,,,,1.067,,,,,,,,,,,,,,,,,,,,,,,5c59866b2e4cc90001d08a07,60a6c71e03f262ee5091e9fa,2021-05-21_15h38.07.992,Simcolourproject_2stim_asymm_v5,2020.2.10,Win32,60,60a5f9bf14d0aa2821c4bb84,,,,,1835,-51,-89,1,0,0,response5disk,,3,-2,2,1,0,0,rectangle,-2,2,1,0,0,7,"[121,26,162,24,247,263,232,309,24,226,216,228,66,267,304,72,135,209,47,212]",-2,2,1,0,0,0,16,16,54,1,,,
,,,,,,,,,,,,,FF,,,,,,,,1.917,,,,,,,,,,,,,,,,,,,,,,,5c59866b2e4cc90001d08a07,60a6c71e03f262ee5091e9fa,2021-05-21_15h38.07.992,Simcolourproject_2stim_asymm_v5,2020.2.10,Win32,60,60a5f9bf14d0aa2821c4bb84,,,,,1710,101,41,1,0,0,response1disk,,6,-2,7,1,0,0,rectangle,-2,7,1,0,0,4,"[121,26,162,24,247,263,232,309,24,226,216,228,66,267,304,72,135,209,47,212]",-2,7,1,0,0,0,17,17,101,1,,,
,,,,,,,,,,,,,FF,,,,,,,,1.933,,,,,,,,,,,,,,,,,,,,,,,5c59866b2e4cc90001d08a07,60a6c71e03f262ee5091e9fa,2021-05-21_15h38.07.992,Simcolourproject_2stim_asymm_v5,2020.2.10,Win32,60,60a5f9bf14d0aa2821c4bb84,,,,,2722,38,-91,1,0,0,response3disk,,4,-10,4,1,0,0,rectangle,-10,4,1,0,0,3,"[121,26,162,24,247,263,232,309,24,226,216,228,66,267,304,72,135,209,47,212]",-10,4,1,0,0,0,18,18,30,1,,,
,,,,,,,,,,,,,FF,,,,,,,,1.517,,,,,,,,,,,,,,,,,,,,,,,5c59866b2e4cc90001d08a07,60a6c71e03f262ee5091e9fa,2021-05-21_15h38.07.992,Simcolourproject_2stim_asymm_v5,2020.2.10,Win32,60,60a5f9bf14d0aa2821c4bb84,,,,,762,65,77,1,0,0,response1disk,,7,-2,-3,1,0,0,rectangle,-2,-3,1,0,0,5,"[121,26,162,24,247,263,232,309,24,226,216,228,66,267,304,72,135,209,47,212]",-2,-3,1,0,0,0,19,19,38,1,,,
,,,,,,,,,,,,,FF,,,,,,,,1.249,,,,,,,,,,,,,,,,,,,,,,,5c59866b2e4cc90001d08a07,60a6c71e03f262ee5091e9fa,2021-05-21_15h38.07.992,Simcolourproject_2stim_asymm_v5,2020.2.10,Win32,60,60a5f9bf14d0aa2821c4bb84,,,,,1249,52,79,1,0,0,response1disk,,7,16,9,1,0,0,rectangle,16,9,1,0,0,5,"[121,26,162,24,247,263,232,309,24,226,216,228,66,267,304,72,135,209,47,212]",16,9,1,0,0,0,20,20,11,1,,,
,,,,,,,,,,,,,FF,,,,,,,,1.684,,,,,,,,,,,,,,,,,,,,,,,5c59866b2e4cc90001d08a07,60a6c71e03f262ee5091e9fa,2021-05-21_15h38.07.992,Simcolourproject_2stim_asymm_v5,2020.2.10,Win32,60,60a5f9bf14d0aa2821c4bb84,,,,,1049,46,77,1,0,0,response1disk,,7,-2,6,1,0,0,rectangle,-2,6,1,0,0,4,"[121,26,162,24,247,263,232,309,24,226,216,228,66,267,304,72,135,209,47,212]",-2,6,1,0,0,0,21,21,144,1,,,
,,,,,,,,,,,,,FF,,,,,,,,3.133,,,,,,,,,,,,,,,,,,,,,,,5c59866b2e4cc90001d08a07,60a6c71e03f262ee5091e9fa,2021-05-21_15h38.07.992,Simcolourproject_2stim_asymm_v5,2020.2.10,Win32,60,60a5f9bf14d0aa2821c4bb84,,,,,2181,36,-99,1,0,0,response3disk,,4,7,3,1,0,0,rectangle,7,3,1,0,0,2,"[121,26,162,24,247,263,232,309,24,226,216,228,66,267,304,72,135,209,47,212]",7,3,1,0,0,0,22,22,105,1,,,
,,,,,,,,,,,,,FF,,,,,,,,1.551,,,,,,,,,,,,,,,,,,,,,,,5c59866b2e4cc90001d08a07,60a6c71e03f262ee5091e9fa,2021-05-21_15h38.07.992,Simcolourproject_2stim_asymm_v5,2020.2.10,Win32,60,60a5f9bf14d0aa2821c4bb84,,,,,1057,-61,-32,1,0,0,response5disk,,4,7,6,1,0,0,rectangle,-44,-87,1,0,0,3,"[121,26,162,24,247,263,232,309,24,226,216,228,66,267,304,72,135,209,47,212]",3,-1,1,0,0,0,23,23,125,1,,response5disk_3,rectangle
,,,,,,,,,,,,,FF,,,,,,,,1.916,,,,,,,,,,,,,,,,,,,,,,,5c59866b2e4cc90001d08a07,60a6c71e03f262ee5091e9fa,2021-05-21_15h38.07.992,Simcolourproject_2stim_asymm_v5,2020.2.10,Win32,60,60a5f9bf14d0aa2821c4bb84,,,,,4009,40,-97,1,0,0,response3disk,,4,2,-3,1,0,0,rectangle,2,-3,1,0,0,5,"[121,26,162,24,247,263,232,309,24,226,216,228,66,267,304,72,135,209,47,212]",2,-3,1,0,0,0,24,24,112,1,,,
,,,,,,,,,,,,,FF,,,,,,,,1.218,,,,,,,,,,,,,,,,,,,,,,,5c59866b2e4cc90001d08a07,60a6c71e03f262ee5091e9fa,2021-05-21_15h38.07.992,Simcolourproject_2stim_asymm_v5,2020.2.10,Win32,60,60a5f9bf14d0aa2821c4bb84,,,,,1974,35,-85,1,0,0,response3disk,,4,6,-4,1,0,0,rectangle,-81,43,1,0,0,1,"[121,26,162,24,247,263,232,309,24,226,216,228,66,267,304,72,135,209,47,212]",-6,2,1,0,0,0,25,25,89,1,,response7disk_3,rectangle
,,,,,,,,,,,,,FF,,,,,,,,1.701,,,,,,,,,,,,,,,,,,,,,,,5c59866b2e4cc90001d08a07,60a6c71e03f262ee5091e9fa,2021-05-21_15h38.07.992,Simcolourproject_2stim_asymm_v5,2020.2.10,Win32,60,60a5f9bf14d0aa2821c4bb84,,,,,852,86,-46,1,0,0,response3disk,,5,13,3,1,0,0,rectangle,13,3,1,0,0,1,"[121,26,162,24,247,263,232,309,24,226,216,228,66,267,304,72,135,209,47,212]",13,3,1,0,0,0,26,26,34,1,,,
,,,,,,,,,,,,,FF,,,,,,,,2.182,,,,,,,,,,,,,,,,,,,,,,,5c59866b2e4cc90001d08a07,60a6c71e03f262ee5091e9fa,2021-05-21_15h38.07.992,Simcolourproject_2stim_asymm_v5,2020.2.10,Win32,60,60a5f9bf14d0aa2821c4bb84,,,,,3734,49,97,1,0,0,response1disk,,7,-7,11,1,0,0,rectangle,-7,11,1,0,0,3,"[121,26,162,24,247,263,232,309,24,226,216,228,66,267,304,72,135,209,47,212]",-7,11,1,0,0,0,27,27,84,1,,,
,,,,,,,,,,,,,FF,,,,,,,,1.8,,,,,,,,,,,,,,,,,,,,,,,5c59866b2e4cc90001d08a07,60a6c71e03f262ee5091e9fa,2021-05-21_15h38.07.992,Simcolourproject_2stim_asymm_v5,2020.2.10,Win32,60,60a5f9bf14d0aa2821c4bb84,,,,,3929,47,81,1,0,0,response1disk,,7,8,3,1,0,0,rectangle,8,3,1,0,0,2,"[121,26,162,24,247,263,232,309,24,226,216,228,66,267,304,72,135,209,47,212]",8,3,1,0,0,0,28,28,85,1,,,
,,,,,,,,,,,,,FF,,,,,,,,0.949,,,,,,,,,,,,,,,,,,,,,,,5c59866b2e4cc90001d08a07,60a6c71e03f262ee5091e9fa,2021-05-21_15h38.07.992,Simcolourproject_2stim_asymm_v5,2020.2.10,Win32,60,60a5f9bf14d0aa2821c4bb84,,,,,3628,34,73,1,0,0,response1disk,,7,8,-4,1,0,0,rectangle,8,-4,1,0,0,6,"[121,26,162,24,247,263,232,309,24,226,216,228,66,267,304,72,135,209,47,212]",8,-4,1,0,0,0,29,29,99,1,,,
,,,,,,,,,,,,,FF,,,,,,,,1.167,,,,,,,,,,,,,,,,,,,,,,,5c59866b2e4cc90001d08a07,60a6c71e03f262ee5091e9fa,2021-05-21_15h38.07.992,Simcolourproject_2stim_asymm_v5,2020.2.10,Win32,60,60a5f9bf14d0aa2821c4bb84,,,,,2296,-37,-78,1,0,0,response5disk,,3,3,11,1,0,0,rectangle,3,11,1,0,0,5,"[121,26,162,24,247,263,232,309,24,226,216,228,66,267,304,72,135,209,47,212]",3,11,1,0,0,0,30,30,68,1,,,
,,,,,,,,,,,,,FF,,,,,,,,5.716,,,,,,,,,,,,,,,,,,,,,,,5c59866b2e4cc90001d08a07,60a6c71e03f262ee5091e9fa,2021-05-21_15h38.07.992,Simcolourproject_2stim_asymm_v5,2020.2.10,Win32,60,60a5f9bf14d0aa2821c4bb84,,,,,3657,83,53,1,0,0,response1disk,,6,4,6,1,0,0,rectangle,4,6,1,0,0,3,"[121,26,162,24,247,263,232,309,24,226,216,228,66,267,304,72,135,209,47,212]",4,6,1,0,0,0,31,31,116,1,,,
,,,,,,,,,,,,,FF,,,,,,,,2.316,,,,,,,,,,,,,,,,,,,,,,,5c59866b2e4cc90001d08a07,60a6c71e03f262ee5091e9fa,2021-05-21_15h38.07.992,Simcolourproject_2stim_asymm_v5,2020.2.10,Win32,60,60a5f9bf14d0aa2821c4bb84,,,,,912,86,-45,1,0,0,response3disk,,5,-3,-2,1,0,0,rectangle,-3,-2,1,0,0,1,"[121,26,162,24,247,263,232,309,24,226,216,228,66,267,304,72,135,209,47,212]",-3,-2,1,0,0,0,32,32,139,1,,,
,,,,,,,,,,,,,FF,,,,,,,,1.05,,,,,,,,,,,,,,,,,,,,,,,5c59866b2e4cc90001d08a07,60a6c71e03f262ee5091e9fa,2021-05-21_15h38.07.992,Simcolourproject_2stim_asymm_v5,2020.2.10,Win32,60,60a5f9bf14d0aa2821c4bb84,,,,,3321,80,29,1,0,0,response1disk,,6,-2,0,1,0,0,rectangle,-2,0,1,0,0,1,"[121,26,162,24,247,263,232,309,24,226,216,228,66,267,304,72,135,209,47,212]",-2,0,1,0,0,0,33,33,141,1,,,
,,,,,,,,,,,,,FF,,,,,,,,1.553,,,,,,,,,,,,,,,,,,,,,,,5c59866b2e4cc90001d08a07,60a6c71e03f262ee5091e9fa,2021-05-21_15h38.07.992,Simcolourproject_2stim_asymm_v5,2020.2.10,Win32,60,60a5f9bf14d0aa2821c4bb84,,,,,1404,44,92,1,0,0,response1disk,,7,6,-1,1,0,0,rectangle,6,-1,1,0,0,7,"[121,26,162,24,247,263,232,309,24,226,216,228,66,267,304,72,135,209,47,212]",6,-1,1,0,0,0,34,34,42,1,,,
,,,,,,,,,,,,,FF,,,,,,,,0.85,,,,,,,,,,,,,,,,,,,,,,,5c59866b2e4cc90001d08a07,60a6c71e03f262ee5091e9fa,2021-05-21_15h38.07.992,Simcolourproject_2stim_asymm_v5,2020.2.10,Win32,60,60a5f9bf14d0aa2821c4bb84,,,,,1173,47,97,1,0,0,response1disk,,7,0,-1,1,0,0,rectangle,0,-1,1,0,0,4,"[121,26,162,24,247,263,232,309,24,226,216,228,66,267,304,72,135,209,47,212]",0,-1,1,0,0,0,35,35,82,1,,,
,,,,,,,,,,,,,FF,,,,,,,,1.883,,,,,,,,,,,,,,,,,,,,,,,5c59866b2e4cc90001d08a07,60a6c71e03f262ee5091e9fa,2021-05-21_15h38.07.992,Simcolourproject_2stim_asymm_v5,2020.2.10,Win32,60,60a5f9bf14d0aa2821c4bb84,,,,,872,81,-54,1,0,0,response3disk,,5,-13,2,1,0,0,rectangle,-13,2,1,0,0,1,"[121,26,162,24,247,263,232,309,24,226,216,228,66,267,304,72,135,209,47,212]",-13,2,1,0,0,0,36,36,27,1,,,
,,,,,,,,,,,,,FF,,,,,,,,1.3,,,,,,,,,,,,,,,,,,,,,,,5c59866b2e4cc90001d08a07,60a6c71e03f262ee5091e9fa,2021-05-21_15h38.07.992,Simcolourproject_2stim_asymm_v5,2020.2.10,Win32,60,60a5f9bf14d0aa2821c4bb84,,,,,1652,47,86,1,0,0,response1disk,,7,12,-2,1,0,0,rectangle,12,-2,1,0,0,3,"[121,26,162,24,247,263,232,309,24,226,216,228,66,267,304,72,135,209,47,212]",12,-2,1,0,0,0,37,37,0,1,,,
,,,,,,,,,,,,,FF,,,,,,,,0.866,,,,,,,,,,,,,,,,,,,,,,,5c59866b2e4cc90001d08a07,60a6c71e03f262ee5091e9fa,2021-05-21_15h38.07.992,Simcolourproject_2stim_asymm_v5,2020.2.10,Win32,60,60a5f9bf14d0aa2821c4bb84,,,,,3650,37,84,1,0,0,response1disk,,7,1,1,1,0,0,rectangle,1,1,1,0,0,2,"[121,26,162,24,247,263,232,309,24,226,216,228,66,267,304,72,135,209,47,212]",1,1,1,0,0,0,38,38,155,1,,,
,,,,,,,,,,,,,FF,,,,,,,,2.25,,,,,,,,,,,,,,,,,,,,,,,5c59866b2e4cc90001d08a07,60a6c71e03f262ee5091e9fa,2021-05-21_15h38.07.992,Simcolourproject_2stim_asymm_v5,2020.2.10,Win32,60,60a5f9bf14d0aa2821c4bb84,,,,,2369,37,-84,1,0,0,response3disk,,4,3,8,1,0,0,rectangle,3,8,1,0,0,1,"[121,26,162,24,247,263,232,309,24,226,216,228,66,267,304,72,135,209,47,212]",3,8,1,0,0,0,39,39,159,1,,,
,,,,,,,,,,,,,FF,,,,,,,,3.149,,,,,,,,,,,,,,,,,,,,,,,5c59866b2e4cc90001d08a07,60a6c71e03f262ee5091e9fa,2021-05-21_15h38.07.992,Simcolourproject_2stim_asymm_v5,2020.2.10,Win32,60,60a5f9bf14d0aa2821c4bb84,,,,,3559,68,-88,1,0,0,response3disk,,4,-1,-2,1,0,0,rectangle,-1,-2,1,0,0,5,"[121,26,162,24,247,263,232,309,24,226,216,228,66,267,304,72,135,209,47,212]",-1,-2,1,0,0,0,40,40,19,1,,,
,,,,,,,,,,,,,FF,,,,,,,,3.099,,,,,,,,,,,,,,,,,,,,,,,5c59866b2e4cc90001d08a07,60a6c71e03f262ee5091e9fa,2021-05-21_15h38.07.992,Simcolourproject_2stim_asymm_v5,2020.2.10,Win32,60,60a5f9bf14d0aa2821c4bb84,,,,,2294,-52,-92,1,0,0,response5disk,,3,-10,0,1,0,0,rectangle,-10,0,1,0,0,1,"[121,26,162,24,247,263,232,309,24,226,216,228,66,267,304,72,135,209,47,212]",-10,0,1,0,0,0,41,41,55,1,,,
,,,,,,,,,,,,,FF,,,,,,,,1.983,,,,,,,,,,,,,,,,,,,,,,,5c59866b2e4cc90001d08a07,60a6c71e03f262ee5091e9fa,2021-05-21_15h38.07.992,Simcolourproject_2stim_asymm_v5,2020.2.10,Win32,60,60a5f9bf14d0aa2821c4bb84,,,,,2632,94,45,1,0,0,response1disk,,6,-3,0,1,0,0,rectangle,-3,0,1,0,0,0,"[121,26,162,24,247,263,232,309,24,226,216,228,66,267,304,72,135,209,47,212]",-3,0,1,0,0,0,42,42,24,1,,,
,,,,,,,,,,,,,FF,,,,,,,,1.3,,,,,,,,,,,,,,,,,,,,,,,5c59866b2e4cc90001d08a07,60a6c71e03f262ee5091e9fa,2021-05-21_15h38.07.992,Simcolourproject_2stim_asymm_v5,2020.2.10,Win32,60,60a5f9bf14d0aa2821c4bb84,,,,,3159,54,-92,1,0,0,response3disk,,4,1,3,1,0,0,rectangle,1,3,1,0,0,7,"[121,26,162,24,247,263,232,309,24,226,216,228,66,267,304,72,135,209,47,212]",1,3,1,0,0,0,43,43,91,1,,,
,,,,,,,,,,,,,FF,,,,,,,,3.833,,,,,,,,,,,,,,,,,,,,,,,5c59866b2e4cc90001d08a07,60a6c71e03f262ee5091e9fa,2021-05-21_15h38.07.992,Simcolourproject_2stim_asymm_v5,2020.2.10,Win32,60,60a5f9bf14d0aa2821c4bb84,,,,,2493,92,42,1,0,0,response1disk,,6,3,2,1,0,0,rectangle,3,2,1,0,0,7,"[121,26,162,24,247,263,232,309,24,226,216,228,66,267,304,72,135,209,47,212]",3,2,1,0,0,0,44,44,56,1,,,
,,,,,,,,,,,,,FF,,,,,,,,3.319,,,,,,,,,,,,,,,,,,,,,,,5c59866b2e4cc90001d08a07,60a6c71e03f262ee5091e9fa,2021-05-21_15h38.07.992,Simcolourproject_2stim_asymm_v5,2020.2.10,Win32,60,60a5f9bf14d0aa2821c4bb84,,,,,3256,96,-45,1,0,0,response3disk,,5,7,1,1,0,0,rectangle,7,1,1,0,0,0,"[121,26,162,24,247,263,232,309,24,226,216,228,66,267,304,72,135,209,47,212]",7,1,1,0,0,0,45,45,23,1,,,
,,,,,,,,,,,,,FF,,,,,,,,1.55,,,,,,,,,,,,,,,,,,,,,,,5c59866b2e4cc90001d08a07,60a6c71e03f262ee5091e9fa,2021-05-21_15h38.07.992,Simcolourproject_2stim_asymm_v5,2020.2.10,Win32,60,60a5f9bf14d0aa2821c4bb84,,,,,2548,-34,-86,1,0,0,response5disk,,3,12,-3,1,0,0,rectangle,94,-44,1,0,0,5,"[121,26,162,24,247,263,232,309,24,226,216,228,66,267,304,72,135,209,47,212]",0,0,1,0,0,0,46,46,83,1,,response3disk_3,rectangle
,,,,,,,,,,,,,FF,,,,,,,,4.032,,,,,,,,,,,,,,,,,,,,,,,5c59866b2e4cc90001d08a07,60a6c71e03f262ee5091e9fa,2021-05-21_15h38.07.992,Simcolourproject_2stim_asymm_v5,2020.2.10,Win32,60,60a5f9bf14d0aa2821c4bb84,,,,,2150,88,31,1,0,0,response1disk,,6,0,1,1,0,0,rectangle,0,1,1,0,0,5,"[121,26,162,24,247,263,232,309,24,226,216,228,66,267,304,72,135,209,47,212]",0,1,1,0,0,0,47,47,90,1,,,
,,,,,,,,,,,,,FF,,,,,,,,0.983,,,,,,,,,,,,,,,,,,,,,,,5c59866b2e4cc90001d08a07,60a6c71e03f262ee5091e9fa,2021-05-21_15h38.07.992,Simcolourproject_2stim_asymm_v5,2020.2.10,Win32,60,60a5f9bf14d0aa2821c4bb84,,,,,2927,38,88,1,0,0,response1disk,,7,10,7,1,0,0,rectangle,10,7,1,0,0,1,"[121,26,162,24,247,263,232,309,24,226,216,228,66,267,304,72,135,209,47,212]",10,7,1,0,0,0,48,48,160,1,,,
,,,,,,,,,,,,,FF,,,,,,,,0.882,,,,,,,,,,,,,,,,,,,,,,,5c59866b2e4cc90001d08a07,60a6c71e03f262ee5091e9fa,2021-05-21_15h38.07.992,Simcolourproject_2stim_asymm_v5,2020.2.10,Win32,60,60a5f9bf14d0aa2821c4bb84,,,,,4093,41,47,1,0,0,response1disk,,7,16,2,1,0,0,rectangle,16,2,1,0,0,0,"[121,26,162,24,247,263,232,309,24,226,216,228,66,267,304,72,135,209,47,212]",16,2,1,0,0,0,49,49,12,1,,,
,,,,,,,,,,,,,FF,,,,,,,,0.883,,,,,,,,,,,,,,,,,,,,,,,5c59866b2e4cc90001d08a07,60a6c71e03f262ee5091e9fa,2021-05-21_15h38.07.992,Simcolourproject_2stim_asymm_v5,2020.2.10,Win32,60,60a5f9bf14d0aa2821c4bb84,,,,,3369,44,74,1,0,0,response1disk,,7,13,9,1,0,0,rectangle,13,9,1,0,0,2,"[121,26,162,24,247,263,232,309,24,226,216,228,66,267,304,72,135,209,47,212]",13,9,1,0,0,0,50,50,28,1,,,
,,,,,,,,,,,,,FF,,,,,,,,2.5,,,,,,,,,,,,,,,,,,,,,,,5c59866b2e4cc90001d08a07,60a6c71e03f262ee5091e9fa,2021-05-21_15h38.07.992,Simcolourproject_2stim_asymm_v5,2020.2.10,Win32,60,60a5f9bf14d0aa2821c4bb84,,,,,1070,-22,-100,1,0,0,response5disk,,3,12,9,1,0,0,rectangle,12,9,1,0,0,4,"[121,26,162,24,247,263,232,309,24,226,216,228,66,267,304,72,135,209,47,212]",12,9,1,0,0,0,51,51,41,1,,,
,,,,,,,,,,,,,FF,,,,,,,,1.051,,,,,,,,,,,,,,,,,,,,,,,5c59866b2e4cc90001d08a07,60a6c71e03f262ee5091e9fa,2021-05-21_15h38.07.992,Simcolourproject_2stim_asymm_v5,2020.2.10,Win32,60,60a5f9bf14d0aa2821c4bb84,,,,,1599,-94,-46,1,0,0,response5disk,,3,4,-1,1,0,0,rectangle,4,-1,1,0,0,0,"[121,26,162,24,247,263,232,309,24,226,216,228,66,267,304,72,135,209,47,212]",4,-1,1,0,0,0,52,52,109,1,,,
,,,,,,,,,,,,,FF,,,,,,,,1.017,,,,,,,,,,,,,,,,,,,,,,,5c59866b2e4cc90001d08a07,60a6c71e03f262ee5091e9fa,2021-05-21_15h38.07.992,Simcolourproject_2stim_asymm_v5,2020.2.10,Win32,60,60a5f9bf14d0aa2821c4bb84,,,,,2123,76,31,1,0,0,response1disk,,6,-8,-1,1,0,0,rectangle,-8,-1,1,0,0,2,"[121,26,162,24,247,263,232,309,24,226,216,228,66,267,304,72,135,209,47,212]",-8,-1,1,0,0,0,53,53,124,1,,,
,,,,,,,,,,,,,FF,,,,,,,,3.399,,,,,,,,,,,,,,,,,,,,,,,5c59866b2e4cc90001d08a07,60a6c71e03f262ee5091e9fa,2021-05-21_15h38.07.992,Simcolourproject_2stim_asymm_v5,2020.2.10,Win32,60,60a5f9bf14d0aa2821c4bb84,,,,,3597,-90,-48,1,0,0,response5disk,,6,-2,3,1,0,0,rectangle,-2,3,1,0,0,4,"[121,26,162,24,247,263,232,309,24,226,216,228,66,267,304,72,135,209,47,212]",-2,3,1,0,0,0,54,54,53,1,,,
,,,,,,,,,,,,,FF,,,,,,,,0.845,,,,,,,,,,,,,,,,,,,,,,,5c59866b2e4cc90001d08a07,60a6c71e03f262ee5091e9fa,2021-05-21_15h38.07.992,Simcolourproject_2stim_asymm_v5,2020.2.10,Win32,60,60a5f9bf14d0aa2821c4bb84,,,,,3037,-98,42,1,0,0,response7disk,,1,9,3,1,0,0,rectangle,9,3,1,0,0,5,"[121,26,162,24,247,263,232,309,24,226,216,228,66,267,304,72,135,209,47,212]",9,3,1,0,0,0,55,55,29,1,,,
,,,,,,,,,,,,,FF,,,,,,,,1.6,,,,,,,,,,,,,,,,,,,,,,,5c59866b2e4cc90001d08a07,60a6c71e03f262ee5091e9fa,2021-05-21_15h38.07.992,Simcolourproject_2stim_asymm_v5,2020.2.10,Win32,60,60a5f9bf14d0aa2821c4bb84,,,,,1104,56,93,1,0,0,response1disk,,7,5,6,1,0,0,rectangle,5,6,1,0,0,1,"[121,26,162,24,247,263,232,309,24,226,216,228,66,267,304,72,135,209,47,212]",5,6,1,0,0,0,56,56,111,1,,,
,,,,,,,,,,,,,FF,,,,,,,,1.418,,,,,,,,,,,,,,,,,,,,,,,5c59866b2e4cc90001d08a07,60a6c71e03f262ee5091e9fa,2021-05-21_15h38.07.992,Simcolourproject_2stim_asymm_v5,2020.2.10,Win32,60,60a5f9bf14d0aa2821c4bb84,,,,,2418,-78,45,1,0,0,response7disk,,1,13,-1,1,0,0,rectangle,13,-1,1,0,0,7,"[121,26,162,24,247,263,232,309,24,226,216,228,66,267,304,72,135,209,47,212]",13,-1,1,0,0,0,57,57,1,1,,,
,,,,,,,,,,,,,FF,,,,,,,,1.517,,,,,,,,,,,,,,,,,,,,,,,5c59866b2e4cc90001d08a07,60a6c71e03f262ee5091e9fa,2021-05-21_15h38.07.992,Simcolourproject_2stim_asymm_v5,2020.2.10,Win32,60,60a5f9bf14d0aa2821c4bb84,,,,,767,36,83,1,0,0,response1disk,,7,18,3,1,0,0,rectangle,18,3,1,0,0,4,"[121,26,162,24,247,263,232,309,24,226,216,228,66,267,304,72,135,209,47,212]",18,3,1,0,0,0,58,58,57,1,,,
,,,,,,,,,,,,,FF,,,,,,,,0.817,,,,,,,,,,,,,,,,,,,,,,,5c59866b2e4cc90001d08a07,60a6c71e03f262ee5091e9fa,2021-05-21_15h38.07.992,Simcolourproject_2stim_asymm_v5,2020.2.10,Win32,60,60a5f9bf14d0aa2821c4bb84,,,,,3458,34,101,1,0,0,response1disk,,7,8,1,1,0,0,rectangle,8,1,1,0,0,6,"[121,26,162,24,247,263,232,309,24,226,216,228,66,267,304,72,135,209,47,212]",8,1,1,0,0,0,59,59,4,1,,,
,,,,,,,,,,,,,FF,,,,,,,,2.107,,,,,,,,,,,,,,,,,,,,,,,5c59866b2e4cc90001d08a07,60a6c71e03f262ee5091e9fa,2021-05-21_15h38.07.992,Simcolourproject_2stim_asymm_v5,2020.2.10,Win32,60,60a5f9bf14d0aa2821c4bb84,,,,,664,47,84,1,0,0,response1disk,,7,13,3,1,0,0,rectangle,13,3,1,0,0,0,"[121,26,162,24,247,263,232,309,24,226,216,228,66,267,304,72,135,209,47,212]",13,3,1,0,0,0,60,60,6,1,,,
,,,,,,,,,,,,,FF,,,,,,,,1.332,,,,,,,,,,,,,,,,,,,,,,,5c59866b2e4cc90001d08a07,60a6c71e03f262ee5091e9fa,2021-05-21_15h38.07.992,Simcolourproject_2stim_asymm_v5,2020.2.10,Win32,60,60a5f9bf14d0aa2821c4bb84,,,,,1904,-49,-72,1,0,0,response5disk,,3,0,10,1,0,0,rectangle,0,10,1,0,0,7,"[121,26,162,24,247,263,232,309,24,226,216,228,66,267,304,72,135,209,47,212]",0,10,1,0,0,0,61,61,64,1,,,
,,,,,,,,,,,,,FF,,,,,,,,0.766,,,,,,,,,,,,,,,,,,,,,,,5c59866b2e4cc90001d08a07,60a6c71e03f262ee5091e9fa,2021-05-21_15h38.07.992,Simcolourproject_2stim_asymm_v5,2020.2.10,Win32,60,60a5f9bf14d0aa2821c4bb84,,,,,2516,44,89,1,0,0,response1disk,,7,-1,-8,1,0,0,rectangle,-1,-8,1,0,0,6,"[121,26,162,24,247,263,232,309,24,226,216,228,66,267,304,72,135,209,47,212]",-1,-8,1,0,0,0,62,62,2,1,,,
,,,,,,,,,,,,,FF,,,,,,,,3.366,,,,,,,,,,,,,,,,,,,,,,,5c59866b2e4cc90001d08a07,60a6c71e03f262ee5091e9fa,2021-05-21_15h38.07.992,Simcolourproject_2stim_asymm_v5,2020.2.10,Win32,60,60a5f9bf14d0aa2821c4bb84,,,,,26,39,86,1,0,0,response1disk,,7,3,-3,1,0,0,rectangle,3,-3,1,0,0,3,"[121,26,162,24,247,263,232,309,24,226,216,228,66,267,304,72,135,209,47,212]",3,-3,1,0,0,0,63,63,22,1,,,
,,,,,,,,,,,,,FF,,,,,,,,1.417,,,,,,,,,,,,,,,,,,,,,,,5c59866b2e4cc90001d08a07,60a6c71e03f262ee5091e9fa,2021-05-21_15h38.07.992,Simcolourproject_2stim_asymm_v5,2020.2.10,Win32,60,60a5f9bf14d0aa2821c4bb84,,,,,1007,51,93,1,0,0,response1disk,,7,-11,10,1,0,0,rectangle,-11,10,1,0,0,2,"[121,26,162,24,247,263,232,309,24,226,216,228,66,267,304,72,135,209,47,212]",-11,10,1,0,0,0,64,64,79,1,,,
,,,,,,,,,,,,,FF,,,,,,,,0.983,,,,,,,,,,,,,,,,,,,,,,,5c59866b2e4cc90001d08a07,60a6c71e03f262ee5091e9fa,2021-05-21_15h38.07.992,Simcolourproject_2stim_asymm_v5,2020.2.10,Win32,60,60a5f9bf14d0aa2821c4bb84,,,,,4365,-28,86,1,0,0,response7disk,,0,3,5,1,0,0,rectangle,90,-52,1,0,0,5,"[121,26,162,24,247,263,232,309,24,226,216,228,66,267,304,72,135,209,47,212]",-9,-5,1,0,0,0,65,65,62,1,,response3disk_3,rectangle
,,,,,,,,,,,,,FF,,,,,,,,0.733,,,,,,,,,,,,,,,,,,,,,,,5c59866b2e4cc90001d08a07,60a6c71e03f262ee5091e9fa,2021-05-21_15h38.07.992,Simcolourproject_2stim_asymm_v5,2020.2.10,Win32,60,60a5f9bf14d0aa2821c4bb84,,,,,1989,46,89,1,0,0,response1disk,,7,4,-3,1,0,0,rectangle,4,-3,1,0,0,6,"[121,26,162,24,247,263,232,309,24,226,216,228,66,267,304,72,135,209,47,212]",4,-3,1,0,0,0,66,66,130,1,,,
,,,,,,,,,,,,,FF,,,,,,,,1.217,,,,,,,,,,,,,,,,,,,,,,,5c59866b2e4cc90001d08a07,60a6c71e03f262ee5091e9fa,2021-05-21_15h38.07.992,Simcolourproject_2stim_asymm_v5,2020.2.10,Win32,60,60a5f9bf14d0aa2821c4bb84,,,,,1752,-88,-43,1,0,0,response5disk,,7,6,2,1,0,0,rectangle,6,2,1,0,0,2,"[121,26,162,24,247,263,232,309,24,226,216,228,66,267,304,72,135,209,47,212]",6,2,1,0,0,0,67,67,128,1,,,
,,,,,,,,,,,,,FF,,,,,,,,1.067,,,,,,,,,,,,,,,,,,,,,,,5c59866b2e4cc90001d08a07,60a6c71e03f262ee5091e9fa,2021-05-21_15h38.07.992,Simcolourproject_2stim_asymm_v5,2020.2.10,Win32,60,60a5f9bf14d0aa2821c4bb84,,,,,3747,-56,36,1,0,0,response7disk,,1,-3,1,1,0,0,rectangle,-3,1,1,0,0,3,"[121,26,162,24,247,263,232,309,24,226,216,228,66,267,304,72,135,209,47,212]",-3,1,1,0,0,0,68,68,45,1,,,
,,,,,,,,,,,,,FF,,,,,,,,1.283,,,,,,,,,,,,,,,,,,,,,,,5c59866b2e4cc90001d08a07,60a6c71e03f262ee5091e9fa,2021-05-21_15h38.07.992,Simcolourproject_2stim_asymm_v5,2020.2.10,Win32,60,60a5f9bf14d0aa2821c4bb84,,,,,894,-29,-91,1,0,0,response5disk,,3,0,2,1,0,0,rectangle,0,2,1,0,0,7,"[121,26,162,24,247,263,232,309,24,226,216,228,66,267,304,72,135,209,47,212]",0,2,1,0,0,0,69,69,151,1,,,
,,,,,,,,,,,,,FF,,,,,,,,1.216,,,,,,,,,,,,,,,,,,,,,,,5c59866b2e4cc90001d08a07,60a6c71e03f262ee5091e9fa,2021-05-21_15h38.07.992,Simcolourproject_2stim_asymm_v5,2020.2.10,Win32,60,60a5f9bf14d0aa2821c4bb84,,,,,1737,89,50,1,0,0,response1disk,,6,10,0,1,0,0,rectangle,10,0,1,0,0,6,"[121,26,162,24,247,263,232,309,24,226,216,228,66,267,304,72,135,209,47,212]",10,0,1,0,0,0,70,70,76,1,,,
,,,,,,,,,,,,,FF,,,,,,,,1.582,,,,,,,,,,,,,,,,,,,,,,,5c59866b2e4cc90001d08a07,60a6c71e03f262ee5091e9fa,2021-05-21_15h38.07.992,Simcolourproject_2stim_asymm_v5,2020.2.10,Win32,60,60a5f9bf14d0aa2821c4bb84,,,,,253,-37,-85,1,0,0,response5disk,,3,3,8,1,0,0,rectangle,-50,-87,1,0,0,3,"[121,26,162,24,247,263,232,309,24,226,216,228,66,267,304,72,135,209,47,212]",-1,-1,1,0,0,0,71,71,47,1,,response5disk_3,rectangle
,,,,,,,,,,,,,FF,,,,,,,,0.949,,,,,,,,,,,,,,,,,,,,,,,5c59866b2e4cc90001d08a07,60a6c71e03f262ee5091e9fa,2021-05-21_15h38.07.992,Simcolourproject_2stim_asymm_v5,2020.2.10,Win32,60,60a5f9bf14d0aa2821c4bb84,,,,,3131,38,84,1,0,0,response1disk,,7,3,-2,1,0,0,rectangle,3,-2,1,0,0,1,"[121,26,162,24,247,263,232,309,24,226,216,228,66,267,304,72,135,209,47,212]",3,-2,1,0,0,0,72,72,37,1,,,
,,,,,,,,,,,,,FF,,,,,,,,1.45,,,,,,,,,,,,,,,,,,,,,,,5c59866b2e4cc90001d08a07,60a6c71e03f262ee5091e9fa,2021-05-21_15h38.07.992,Simcolourproject_2stim_asymm_v5,2020.2.10,Win32,60,60a5f9bf14d0aa2821c4bb84,,,,,3399,-28,-72,1,0,0,response5disk,,3,-1,5,1,0,0,rectangle,-1,5,1,0,0,2,"[121,26,162,24,247,263,232,309,24,226,216,228,66,267,304,72,135,209,47,212]",-1,5,1,0,0,0,73,73,96,1,,,
,,,,,,,,,,,,,FF,,,,,,,,0.983,,,,,,,,,,,,,,,,,,,,,,,5c59866b2e4cc90001d08a07,60a6c71e03f262ee5091e9fa,2021-05-21_15h38.07.992,Simcolourproject_2stim_asymm_v5,2020.2.10,Win32,60,60a5f9bf14d0aa2821c4bb84,,,,,63,-40,-75,1,0,0,response5disk,,3,11,3,1,0,0,rectangle,11,3,1,0,0,6,"[121,26,162,24,247,263,232,309,24,226,216,228,66,267,304,72,135,209,47,212]",11,3,1,0,0,0,74,74,149,1,,,
,,,,,,,,,,,,,FF,,,,,,,,1.45,,,,,,,,,,,,,,,,,,,,,,,5c59866b2e4cc90001d08a07,60a6c71e03f262ee5091e9fa,2021-05-21_15h38.07.992,Simcolourproject_2stim_asymm_v5,2020.2.10,Win32,60,60a5f9bf14d0aa2821c4bb84,,,,,2731,51,-84,1,0,0,response3disk,,4,4,5,1,0,0,rectangle,4,5,1,0,0,5,"[121,26,162,24,247,263,232,309,24,226,216,228,66,267,304,72,135,209,47,212]",4,5,1,0,0,0,75,75,3,1,,,
,,,,,,,,,,,,,FF,,,,,,,,1.848,,,,,,,,,,,,,,,,,,,,,,,5c59866b2e4cc90001d08a07,60a6c71e03f262ee5091e9fa,2021-05-21_15h38.07.992,Simcolourproject_2stim_asymm_v5,2020.2.10,Win32,60,60a5f9bf14d0aa2821c4bb84,,,,,1781,88,58,1,0,0,response1disk,,6,-3,4,1,0,0,rectangle,-3,4,1,0,0,0,"[121,26,162,24,247,263,232,309,24,226,216,228,66,267,304,72,135,209,47,212]",-3,4,1,0,0,0,76,76,59,1,,,
,,,,,,,,,,,,,FF,,,,,,,,1.75,,,,,,,,,,,,,,,,,,,,,,,5c59866b2e4cc90001d08a07,60a6c71e03f262ee5091e9fa,2021-05-21_15h38.07.992,Simcolourproject_2stim_asymm_v5,2020.2.10,Win32,60,60a5f9bf14d0aa2821c4bb84,,,,,822,88,52,1,0,0,response1disk,,6,3,-2,1,0,0,rectangle,3,-2,1,0,0,4,"[121,26,162,24,247,263,232,309,24,226,216,228,66,267,304,72,135,209,47,212]",3,-2,1,0,0,0,77,77,69,1,,,
,,,,,,,,,,,,,FF,,,,,,,,0.816,,,,,,,,,,,,,,,,,,,,,,,5c59866b2e4cc90001d08a07,60a6c71e03f262ee5091e9fa,2021-05-21_15h38.07.992,Simcolourproject_2stim_asymm_v5,2020.2.10,Win32,60,60a5f9bf14d0aa2821c4bb84,,,,,1186,44,106,1,0,0,response1disk,,7,14,-8,1,0,0,rectangle,14,-8,1,0,0,3,"[121,26,162,24,247,263,232,309,24,226,216,228,66,267,304,72,135,209,47,212]",14,-8,1,0,0,0,78,78,137,1,,,
,,,,,,,,,,,,,FF,,,,,,,,2.382,,,,,,,,,,,,,,,,,,,,,,,5c59866b2e4cc90001d08a07,60a6c71e03f262ee5091e9fa,2021-05-21_15h38.07.992,Simcolourproject_2stim_asymm_v5,2020.2.10,Win32,60,60a5f9bf14d0aa2821c4bb84,,,,,811,88,38,1,0,0,response1disk,,6,-5,2,1,0,0,rectangle,-5,2,1,0,0,1,"[121,26,162,24,247,263,232,309,24,226,216,228,66,267,304,72,135,209,47,212]",-5,2,1,0,0,0,79,79,120,1,,,
,,,,,,,,,,,,,FF,,,,,,,,1.5,,,,,,,,,,,,,,,,,,,,,,,5c59866b2e4cc90001d08a07,60a6c71e03f262ee5091e9fa,2021-05-21_15h38.07.992,Simcolourproject_2stim_asymm_v5,2020.2.10,Win32,60,60a5f9bf14d0aa2821c4bb84,,,,,4340,72,-51,1,0,0,response3disk,,5,9,5,1,0,0,rectangle,9,5,1,0,0,4,"[121,26,162,24,247,263,232,309,24,226,216,228,66,267,304,72,135,209,47,212]",9,5,1,0,0,0,80,80,100,1,,,
,,,,,,,,,,,,,FF,,,,,,,,1.3,,,,,,,,,,,,,,,,,,,,,,,5c59866b2e4cc90001d08a07,60a6c71e03f262ee5091e9fa,2021-05-21_15h38.07.992,Simcolourproject_2stim_asymm_v5,2020.2.10,Win32,60,60a5f9bf14d0aa2821c4bb84,,,,,134,42,87,1,0,0,response1disk,,7,1,-6,1,0,0,rectangle,1,-6,1,0,0,3,"[121,26,162,24,247,263,232,309,24,226,216,228,66,267,304,72,135,209,47,212]",1,-6,1,0,0,0,81,81,115,1,,,
,,,,,,,,,,,,,FF,,,,,,,,2.25,,,,,,,,,,,,,,,,,,,,,,,5c59866b2e4cc90001d08a07,60a6c71e03f262ee5091e9fa,2021-05-21_15h38.07.992,Simcolourproject_2stim_asymm_v5,2020.2.10,Win32,60,60a5f9bf14d0aa2821c4bb84,,,,,1969,-53,-104,1,0,0,response5disk,,3,12,-5,1,0,0,rectangle,12,-5,1,0,0,5,"[121,26,162,24,247,263,232,309,24,226,216,228,66,267,304,72,135,209,47,212]",12,-5,1,0,0,0,82,82,51,1,,,
,,,,,,,,,,,,,FF,,,,,,,,1.766,,,,,,,,,,,,,,,,,,,,,,,5c59866b2e4cc90001d08a07,60a6c71e03f262ee5091e9fa,2021-05-21_15h38.07.992,Simcolourproject_2stim_asymm_v5,2020.2.10,Win32,60,60a5f9bf14d0aa2821c4bb84,,,,,451,40,75,1,0,0,response1disk,,7,3,-3,1,0,0,rectangle,3,-3,1,0,0,6,"[121,26,162,24,247,263,232,309,24,226,216,228,66,267,304,72,135,209,47,212]",3,-3,1,0,0,0,83,83,61,1,,,
,,,,,,,,,,,,,FF,,,,,,,,1.633,,,,,,,,,,,,,,,,,,,,,,,5c59866b2e4cc90001d08a07,60a6c71e03f262ee5091e9fa,2021-05-21_15h38.07.992,Simcolourproject_2stim_asymm_v5,2020.2.10,Win32,60,60a5f9bf14d0aa2821c4bb84,,,,,2251,67,31,1,0,0,response1disk,,6,5,1,1,0,0,rectangle,5,1,1,0,0,5,"[121,26,162,24,247,263,232,309,24,226,216,228,66,267,304,72,135,209,47,212]",5,1,1,0,0,0,84,84,150,1,,,
,,,,,,,,,,,,,FF,,,,,,,,1.432,,,,,,,,,,,,,,,,,,,,,,,5c59866b2e4cc90001d08a07,60a6c71e03f262ee5091e9fa,2021-05-21_15h38.07.992,Simcolourproject_2stim_asymm_v5,2020.2.10,Win32,60,60a5f9bf14d0aa2821c4bb84,,,,,162,-38,-77,1,0,0,response5disk,,3,11,13,1,0,0,rectangle,11,13,1,0,0,6,"[121,26,162,24,247,263,232,309,24,226,216,228,66,267,304,72,135,209,47,212]",11,13,1,0,0,0,85,85,88,1,,,
,,,,,,,,,,,,,FF,,,,,,,,2.083,,,,,,,,,,,,,,,,,,,,,,,5c59866b2e4cc90001d08a07,60a6c71e03f262ee5091e9fa,2021-05-21_15h38.07.992,Simcolourproject_2stim_asymm_v5,2020.2.10,Win32,60,60a5f9bf14d0aa2821c4bb84,,,,,878,34,71,1,0,0,response1disk,,7,1,5,1,0,0,rectangle,1,5,1,0,0,2,"[121,26,162,24,247,263,232,309,24,226,216,228,66,267,304,72,135,209,47,212]",1,5,1,0,0,0,86,86,122,1,,,
,,,,,,,,,,,,,FF,,,,,,,,1.449,,,,,,,,,,,,,,,,,,,,,,,5c59866b2e4cc90001d08a07,60a6c71e03f262ee5091e9fa,2021-05-21_15h38.07.992,Simcolourproject_2stim_asymm_v5,2020.2.10,Win32,60,60a5f9bf14d0aa2821c4bb84,,,,,1603,-86,-38,1,0,0,response5disk,,7,1,-8,1,0,0,rectangle,1,-8,1,0,0,4,"[121,26,162,24,247,263,232,309,24,226,216,228,66,267,304,72,135,209,47,212]",1,-8,1,0,0,0,87,87,104,1,,,
,,,,,,,,,,,,,FF,,,,,,,,0.882,,,,,,,,,,,,,,,,,,,,,,,5c59866b2e4cc90001d08a07,60a6c71e03f262ee5091e9fa,2021-05-21_15h38.07.992,Simcolourproject_2stim_asymm_v5,2020.2.10,Win32,60,60a5f9bf14d0aa2821c4bb84,,,,,1996,37,80,1,0,0,response1disk,,7,2,5,1,0,0,rectangle,2,5,1,0,0,3,"[121,26,162,24,247,263,232,309,24,226,216,228,66,267,304,72,135,209,47,212]",2,5,1,0,0,0,88,88,78,1,,,
,,,,,,,,,,,,,FF,,,,,,,,4.949,,,,,,,,,,,,,,,,,,,,,,,5c59866b2e4cc90001d08a07,60a6c71e03f262ee5091e9fa,2021-05-21_15h38.07.992,Simcolourproject_2stim_asymm_v5,2020.2.10,Win32,60,60a5f9bf14d0aa2821c4bb84,,,,,2408,102,44,1,0,0,response1disk,,6,5,-1,1,0,0,rectangle,5,-1,1,0,0,1,"[121,26,162,24,247,263,232,309,24,226,216,228,66,267,304,72,135,209,47,212]",5,-1,1,0,0,0,89,89,35,1,,,
,,,,,,,,,,,,,FF,,,,,,,,1.733,,,,,,,,,,,,,,,,,,,,,,,5c59866b2e4cc90001d08a07,60a6c71e03f262ee5091e9fa,2021-05-21_15h38.07.992,Simcolourproject_2stim_asymm_v5,2020.2.10,Win32,60,60a5f9bf14d0aa2821c4bb84,,,,,3603,-55,-92,1,0,0,response5disk,,3,4,3,1,0,0,rectangle,4,3,1,0,0,2,"[121,26,162,24,247,263,232,309,24,226,216,228,66,267,304,72,135,209,47,212]",4,3,1,0,0,0,90,90,17,1,,,
,,,,,,,,,,,,,FF,,,,,,,,0.851,,,,,,,,,,,,,,,,,,,,,,,5c59866b2e4cc90001d08a07,60a6c71e03f262ee5091e9fa,2021-05-21_15h38.07.992,Simcolourproject_2stim_asymm_v5,2020.2.10,Win32,60,60a5f9bf14d0aa2821c4bb84,,,,,1502,44,75,1,0,0,response1disk,,7,-9,-8,1,0,0,rectangle,-9,-8,1,0,0,1,"[121,26,162,24,247,263,232,309,24,226,216,228,66,267,304,72,135,209,47,212]",-9,-8,1,0,0,0,91,91,156,1,,,
,,,,,,,,,,,,,FF,,,,,,,,0.898,,,,,,,,,,,,,,,,,,,,,,,5c59866b2e4cc90001d08a07,60a6c71e03f262ee5091e9fa,2021-05-21_15h38.07.992,Simcolourproject_2stim_asymm_v5,2020.2.10,Win32,60,60a5f9bf14d0aa2821c4bb84,,,,,3728,46,78,1,0,0,response1disk,,7,2,-2,1,0,0,rectangle,2,-2,1,0,0,2,"[121,26,162,24,247,263,232,309,24,226,216,228,66,267,304,72,135,209,47,212]",2,-2,1,0,0,0,92,92,73,1,,,
,,,,,,,,,,,,,FF,,,,,,,,2.166,,,,,,,,,,,,,,,,,,,,,,,5c59866b2e4cc90001d08a07,60a6c71e03f262ee5091e9fa,2021-05-21_15h38.07.992,Simcolourproject_2stim_asymm_v5,2020.2.10,Win32,60,60a5f9bf14d0aa2821c4bb84,,,,,2049,76,79,1,0,0,response1disk,,7,5,-1,1,0,0,rectangle,5,-1,1,0,0,4,"[121,26,162,24,247,263,232,309,24,226,216,228,66,267,304,72,135,209,47,212]",5,-1,1,0,0,0,93,93,87,1,,,
,,,,,,,,,,,,,FF,,,,,,,,2.601,,,,,,,,,,,,,,,,,,,,,,,5c59866b2e4cc90001d08a07,60a6c71e03f262ee5091e9fa,2021-05-21_15h38.07.992,Simcolourproject_2stim_asymm_v5,2020.2.10,Win32,60,60a5f9bf14d0aa2821c4bb84,,,,,1755,-30,-100,1,0,0,response5disk,,3,-3,1,1,0,0,rectangle,-3,1,1,0,0,0,"[121,26,162,24,247,263,232,309,24,226,216,228,66,267,304,72,135,209,47,212]",-3,1,1,0,0,0,94,94,44,1,,,
,,,,,,,,,,,,,FF,,,,,,,,2.016,,,,,,,,,,,,,,,,,,,,,,,5c59866b2e4cc90001d08a07,60a6c71e03f262ee5091e9fa,2021-05-21_15h38.07.992,Simcolourproject_2stim_asymm_v5,2020.2.10,Win32,60,60a5f9bf14d0aa2821c4bb84,,,,,4034,83,-55,1,0,0,response3disk,,5,6,1,1,0,0,rectangle,6,1,1,0,0,2,"[121,26,162,24,247,263,232,309,24,226,216,228,66,267,304,72,135,209,47,212]",6,1,1,0,0,0,95,95,13,1,,,
,,,,,,,,,,,,,FF,,,,,,,,1.449,,,,,,,,,,,,,,,,,,,,,,,5c59866b2e4cc90001d08a07,60a6c71e03f262ee5091e9fa,2021-05-21_15h38.07.992,Simcolourproject_2stim_asymm_v5,2020.2.10,Win32,60,60a5f9bf14d0aa2821c4bb84,,,,,970,-80,-52,1,0,0,response5disk,,5,-9,-7,1,0,0,rectangle,-9,-7,1,0,0,2,"[121,26,162,24,247,263,232,309,24,226,216,228,66,267,304,72,135,209,47,212]",-9,-7,1,0,0,0,96,96,72,1,,,
,,,,,,,,,,,,,FF,,,,,,,,2.782,,,,,,,,,,,,,,,,,,,,,,,5c59866b2e4cc90001d08a07,60a6c71e03f262ee5091e9fa,2021-05-21_15h38.07.992,Simcolourproject_2stim_asymm_v5,2020.2.10,Win32,60,60a5f9bf14d0aa2821c4bb84,,,,,1269,91,-42,1,0,0,response3disk,,5,1,2,1,0,0,rectangle,1,2,1,0,0,0,"[121,26,162,24,247,263,232,309,24,226,216,228,66,267,304,72,135,209,47,212]",1,2,1,0,0,0,97,97,132,1,,,
,,,,,,,,,,,,,FF,,,,,,,,2.849,,,,,,,,,,,,,,,,,,,,,,,5c59866b2e4cc90001d08a07,60a6c71e03f262ee5091e9fa,2021-05-21_15h38.07.992,Simcolourproject_2stim_asymm_v5,2020.2.10,Win32,60,60a5f9bf14d0aa2821c4bb84,,,,,1289,100,41,1,0,0,response1disk,,6,-19,0,1,0,0,rectangle,-19,0,1,0,0,5,"[121,26,162,24,247,263,232,309,24,226,216,228,66,267,304,72,135,209,47,212]",-19,0,1,0,0,0,98,98,114,1,,,
,,,,,,,,,,,,,FF,,,,,,,,0.767,,,,,,,,,,,,,,,,,,,,,,,5c59866b2e4cc90001d08a07,60a6c71e03f262ee5091e9fa,2021-05-21_15h38.07.992,Simcolourproject_2stim_asymm_v5,2020.2.10,Win32,60,60a5f9bf14d0aa2821c4bb84,,,,,3724,31,82,1,0,0,response1disk,,7,8,5,1,0,0,rectangle,8,5,1,0,0,2,"[121,26,162,24,247,263,232,309,24,226,216,228,66,267,304,72,135,209,47,212]",8,5,1,0,0,0,99,99,97,1,,,
,,,,,,,,,,,,,FF,,,,,,,,1.766,,,,,,,,,,,,,,,,,,,,,,,5c59866b2e4cc90001d08a07,60a6c71e03f262ee5091e9fa,2021-05-21_15h38.07.992,Simcolourproject_2stim_asymm_v5,2020.2.10,Win32,60,60a5f9bf14d0aa2821c4bb84,,,,,189,34,-98,1,0,0,response3disk,,4,1,-1,1,0,0,rectangle,1,-1,1,0,0,6,"[121,26,162,24,247,263,232,309,24,226,216,228,66,267,304,72,135,209,47,212]",1,-1,1,0,0,0,100,100,32,1,,,
,,,,,,,,,,,,,FF,,,,,,,,0.816,,,,,,,,,,,,,,,,,,,,,,,5c59866b2e4cc90001d08a07,60a6c71e03f262ee5091e9fa,2021-05-21_15h38.07.992,Simcolourproject_2stim_asymm_v5,2020.2.10,Win32,60,60a5f9bf14d0aa2821c4bb84,,,,,537,42,90,1,0,0,response1disk,,7,7,0,1,0,0,rectangle,7,0,1,0,0,6,"[121,26,162,24,247,263,232,309,24,226,216,228,66,267,304,72,135,209,47,212]",7,0,1,0,0,0,101,101,148,1,,,
,,,,,,,,,,,,,FF,,,,,,,,2.067,,,,,,,,,,,,,,,,,,,,,,,5c59866b2e4cc90001d08a07,60a6c71e03f262ee5091e9fa,2021-05-21_15h38.07.992,Simcolourproject_2stim_asymm_v5,2020.2.10,Win32,60,60a5f9bf14d0aa2821c4bb84,,,,,1699,34,99,1,0,0,response1disk,,7,-3,5,1,0,0,rectangle,-3,5,1,0,0,3,"[121,26,162,24,247,263,232,309,24,226,216,228,66,267,304,72,135,209,47,212]",-3,5,1,0,0,0,102,102,103,1,,,
,,,,,,,,,,,,,FF,,,,,,,,2.017,,,,,,,,,,,,,,,,,,,,,,,5c59866b2e4cc90001d08a07,60a6c71e03f262ee5091e9fa,2021-05-21_15h38.07.992,Simcolourproject_2stim_asymm_v5,2020.2.10,Win32,60,60a5f9bf14d0aa2821c4bb84,,,,,3424,52,-88,1,0,0,response3disk,,4,15,4,1,0,0,rectangle,15,4,1,0,0,1,"[121,26,162,24,247,263,232,309,24,226,216,228,66,267,304,72,135,209,47,212]",15,4,1,0,0,0,103,103,39,1,,,
,,,,,,,,,,,,,FF,,,,,,,,0.801,,,,,,,,,,,,,,,,,,,,,,,5c59866b2e4cc90001d08a07,60a6c71e03f262ee5091e9fa,2021-05-21_15h38.07.992,Simcolourproject_2stim_asymm_v5,2020.2.10,Win32,60,60a5f9bf14d0aa2821c4bb84,,,,,403,32,78,1,0,0,response1disk,,7,16,9,1,0,0,rectangle,16,9,1,0,0,0,"[121,26,162,24,247,263,232,309,24,226,216,228,66,267,304,72,135,209,47,212]",16,9,1,0,0,0,104,104,49,1,,,
,,,,,,,,,,,,,FF,,,,,,,,0.684,,,,,,,,,,,,,,,,,,,,,,,5c59866b2e4cc90001d08a07,60a6c71e03f262ee5091e9fa,2021-05-21_15h38.07.992,Simcolourproject_2stim_asymm_v5,2020.2.10,Win32,60,60a5f9bf14d0aa2821c4bb84,,,,,2929,42,94,1,0,0,response1disk,,7,10,4,1,0,0,rectangle,10,4,1,0,0,6,"[121,26,162,24,247,263,232,309,24,226,216,228,66,267,304,72,135,209,47,212]",10,4,1,0,0,0,105,105,157,1,,,
,,,,,,,,,,,,,FF,,,,,,,,1.617,,,,,,,,,,,,,,,,,,,,,,,5c59866b2e4cc90001d08a07,60a6c71e03f262ee5091e9fa,2021-05-21_15h38.07.992,Simcolourproject_2stim_asymm_v5,2020.2.10,Win32,60,60a5f9bf14d0aa2821c4bb84,,,,,1917,44,84,1,0,0,response1disk,,7,-4,-1,1,0,0,rectangle,-4,-1,1,0,0,2,"[121,26,162,24,247,263,232,309,24,226,216,228,66,267,304,72,135,209,47,212]",-4,-1,1,0,0,0,106,106,143,1,,,
,,,,,,,,,,,,,FF,,,,,,,,0.85,,,,,,,,,,,,,,,,,,,,,,,5c59866b2e4cc90001d08a07,60a6c71e03f262ee5091e9fa,2021-05-21_15h38.07.992,Simcolourproject_2stim_asymm_v5,2020.2.10,Win32,60,60a5f9bf14d0aa2821c4bb84,,,,,2863,39,88,1,0,0,response1disk,,7,-10,-2,1,0,0,rectangle,-10,-2,1,0,0,1,"[121,26,162,24,247,263,232,309,24,226,216,228,66,267,304,72,135,209,47,212]",-10,-2,1,0,0,0,107,107,21,1,,,
,,,,,,,,,,,,,FF,,,,,,,,0.833,,,,,,,,,,,,,,,,,,,,,,,5c59866b2e4cc90001d08a07,60a6c71e03f262ee5091e9fa,2021-05-21_15h38.07.992,Simcolourproject_2stim_asymm_v5,2020.2.10,Win32,60,60a5f9bf14d0aa2821c4bb84,,,,,4072,42,87,1,0,0,response1disk,,7,2,1,1,0,0,rectangle,2,1,1,0,0,2,"[121,26,162,24,247,263,232,309,24,226,216,228,66,267,304,72,135,209,47,212]",2,1,1,0,0,0,108,108,36,1,,,
,,,,,,,,,,,,,FF,,,,,,,,0.884,,,,,,,,,,,,,,,,,,,,,,,5c59866b2e4cc90001d08a07,60a6c71e03f262ee5091e9fa,2021-05-21_15h38.07.992,Simcolourproject_2stim_asymm_v5,2020.2.10,Win32,60,60a5f9bf14d0aa2821c4bb84,,,,,2818,42,84,1,0,0,response1disk,,7,2,5,1,0,0,rectangle,2,5,1,0,0,1,"[121,26,162,24,247,263,232,309,24,226,216,228,66,267,304,72,135,209,47,212]",2,5,1,0,0,0,109,109,146,1,,,
,,,,,,,,,,,,,FF,,,,,,,,0.984,,,,,,,,,,,,,,,,,,,,,,,5c59866b2e4cc90001d08a07,60a6c71e03f262ee5091e9fa,2021-05-21_15h38.07.992,Simcolourproject_2stim_asymm_v5,2020.2.10,Win32,60,60a5f9bf14d0aa2821c4bb84,,,,,423,39,72,1,0,0,response1disk,,7,-4,11,1,0,0,rectangle,-4,11,1,0,0,2,"[121,26,162,24,247,263,232,309,24,226,216,228,66,267,304,72,135,209,47,212]",-4,11,1,0,0,0,110,110,133,1,,,
,,,,,,,,,,,,,FF,,,,,,,,1.999,,,,,,,,,,,,,,,,,,,,,,,5c59866b2e4cc90001d08a07,60a6c71e03f262ee5091e9fa,2021-05-21_15h38.07.992,Simcolourproject_2stim_asymm_v5,2020.2.10,Win32,60,60a5f9bf14d0aa2821c4bb84,,,,,3475,-87,-32,1,0,0,response5disk,,7,-15,7,1,0,0,rectangle,-15,7,1,0,0,4,"[121,26,162,24,247,263,232,309,24,226,216,228,66,267,304,72,135,209,47,212]",-15,7,1,0,0,0,111,111,80,1,,,
,,,,,,,,,,,,,FF,,,,,,,,1.883,,,,,,,,,,,,,,,,,,,,,,,5c59866b2e4cc90001d08a07,60a6c71e03f262ee5091e9fa,2021-05-21_15h38.07.992,Simcolourproject_2stim_asymm_v5,2020.2.10,Win32,60,60a5f9bf14d0aa2821c4bb84,,,,,2788,71,30,1,0,0,response1disk,,6,0,2,1,0,0,rectangle,0,2,1,0,0,4,"[121,26,162,24,247,263,232,309,24,226,216,228,66,267,304,72,135,209,47,212]",0,2,1,0,0,0,112,112,145,1,,,
,,,,,,,,,,,,,FF,,,,,,,,1.067,,,,,,,,,,,,,,,,,,,,,,,5c59866b2e4cc90001d08a07,60a6c71e03f262ee5091e9fa,2021-05-21_15h38.07.992,Simcolourproject_2stim_asymm_v5,2020.2.10,Win32,60,60a5f9bf14d0aa2821c4bb84,,,,,3362,46,111,1,0,0,response1disk,,7,9,3,1,0,0,rectangle,9,3,1,0,0,4,"[121,26,162,24,247,263,232,309,24,226,216,228,66,267,304,72,135,209,47,212]",9,3,1,0,0,0,113,113,33,1,,,
,,,,,,,,,,,,,FF,,,,,,,,8.664,,,,,,,,,,,,,,,,,,,,,,,5c59866b2e4cc90001d08a07,60a6c71e03f262ee5091e9fa,2021-05-21_15h38.07.992,Simcolourproject_2stim_asymm_v5,2020.2.10,Win32,60,60a5f9bf14d0aa2821c4bb84,,,,,4135,93,39,1,0,0,response1disk,,6,7,1,1,0,0,rectangle,7,1,1,0,0,5,"[121,26,162,24,247,263,232,309,24,226,216,228,66,267,304,72,135,209,47,212]",7,1,1,0,0,0,114,114,58,1,,,
,,,,,,,,,,,,,FF,,,,,,,,1.324,,,,,,,,,,,,,,,,,,,,,,,5c59866b2e4cc90001d08a07,60a6c71e03f262ee5091e9fa,2021-05-21_15h38.07.992,Simcolourproject_2stim_asymm_v5,2020.2.10,Win32,60,60a5f9bf14d0aa2821c4bb84,,,,,3998,-94,-46,1,0,0,response5disk,,6,5,3,1,0,0,rectangle,5,3,1,0,0,3,"[121,26,162,24,247,263,232,309,24,226,216,228,66,267,304,72,135,209,47,212]",5,3,1,0,0,0,115,115,121,1,,,
,,,,,,,,,,,,,FF,,,,,,,,2.182,,,,,,,,,,,,,,,,,,,,,,,5c59866b2e4cc90001d08a07,60a6c71e03f262ee5091e9fa,2021-05-21_15h38.07.992,Simcolourproject_2stim_asymm_v5,2020.2.10,Win32,60,60a5f9bf14d0aa2821c4bb84,,,,,1967,39,-87,1,0,0,response3disk,,4,-1,-1,1,0,0,rectangle,-1,-1,1,0,0,5,"[121,26,162,24,247,263,232,309,24,226,216,228,66,267,304,72,135,209,47,212]",-1,-1,1,0,0,0,116,116,25,1,,,
,,,,,,,,,,,,,FF,,,,,,,,1.766,,,,,,,,,,,,,,,,,,,,,,,5c59866b2e4cc90001d08a07,60a6c71e03f262ee5091e9fa,2021-05-21_15h38.07.992,Simcolourproject_2stim_asymm_v5,2020.2.10,Win32,60,60a5f9bf14d0aa2821c4bb84,,,,,773,86,33,1,0,0,response1disk,,6,14,5,1,0,0,rectangle,14,5,1,0,0,6,"[121,26,162,24,247,263,232,309,24,226,216,228,66,267,304,72,135,209,47,212]",14,5,1,0,0,0,117,117,81,1,,,
,,,,,,,,,,,,,FF,,,,,,,,0.733,,,,,,,,,,,,,,,,,,,,,,,5c59866b2e4cc90001d08a07,60a6c71e03f262ee5091e9fa,2021-05-21_15h38.07.992,Simcolourproject_2stim_asymm_v5,2020.2.10,Win32,60,60a5f9bf14d0aa2821c4bb84,,,,,231,40,96,1,0,0,response1disk,,7,16,-3,1,0,0,rectangle,16,-3,1,0,0,3,"[121,26,162,24,247,263,232,309,24,226,216,228,66,267,304,72,135,209,47,212]",16,-3,1,0,0,0,118,118,50,1,,,
,,,,,,,,,,,,,FF,,,,,,,,1,,,,,,,,,,,,,,,,,,,,,,,5c59866b2e4cc90001d08a07,60a6c71e03f262ee5091e9fa,2021-05-21_15h38.07.992,Simcolourproject_2stim_asymm_v5,2020.2.10,Win32,60,60a5f9bf14d0aa2821c4bb84,,,,,62,42,92,1,0,0,response1disk,,7,6,-13,1,0,0,rectangle,6,-13,1,0,0,7,"[121,26,162,24,247,263,232,309,24,226,216,228,66,267,304,72,135,209,47,212]",6,-13,1,0,0,0,119,119,14,1,,,
,,,,,,,,,,,,,FF,,,,,,,,1.517,,,,,,,,,,,,,,,,,,,,,,,5c59866b2e4cc90001d08a07,60a6c71e03f262ee5091e9fa,2021-05-21_15h38.07.992,Simcolourproject_2stim_asymm_v5,2020.2.10,Win32,60,60a5f9bf14d0aa2821c4bb84,,,,,3423,-28,-84,1,0,0,response5disk,,3,12,7,1,0,0,rectangle,-86,-40,1,0,0,2,"[121,26,162,24,247,263,232,309,24,226,216,228,66,267,304,72,135,209,47,212]",2,0,1,0,0,0,120,120,94,1,,response5disk_3,rectangle
,,,,,,,,,,,,,FF,,,,,,,,0.717,,,,,,,,,,,,,,,,,,,,,,,5c59866b2e4cc90001d08a07,60a6c71e03f262ee5091e9fa,2021-05-21_15h38.07.992,Simcolourproject_2stim_asymm_v5,2020.2.10,Win32,60,60a5f9bf14d0aa2821c4bb84,,,,,861,39,63,1,0,0,response1disk,,7,9,1,1,0,0,rectangle,9,1,1,0,0,5,"[121,26,162,24,247,263,232,309,24,226,216,228,66,267,304,72,135,209,47,212]",9,1,1,0,0,0,121,121,107,1,,,
,,,,,,,,,,,,,FF,,,,,,,,2.633,,,,,,,,,,,,,,,,,,,,,,,5c59866b2e4cc90001d08a07,60a6c71e03f262ee5091e9fa,2021-05-21_15h38.07.992,Simcolourproject_2stim_asymm_v5,2020.2.10,Win32,60,60a5f9bf14d0aa2821c4bb84,,,,,1078,89,-53,1,0,0,response3disk,,5,19,-3,1,0,0,rectangle,19,-3,1,0,0,3,"[121,26,162,24,247,263,232,309,24,226,216,228,66,267,304,72,135,209,47,212]",19,-3,1,0,0,0,122,122,135,1,,,
,,,,,,,,,,,,,FF,,,,,,,,1.751,,,,,,,,,,,,,,,,,,,,,,,5c59866b2e4cc90001d08a07,60a6c71e03f262ee5091e9fa,2021-05-21_15h38.07.992,Simcolourproject_2stim_asymm_v5,2020.2.10,Win32,60,60a5f9bf14d0aa2821c4bb84,,,,,4035,81,-52,1,0,0,response3disk,,5,13,6,1,0,0,rectangle,13,6,1,0,0,0,"[121,26,162,24,247,263,232,309,24,226,216,228,66,267,304,72,135,209,47,212]",13,6,1,0,0,0,123,123,119,1,,,
,,,,,,,,,,,,,FF,,,,,,,,0.7,,,,,,,,,,,,,,,,,,,,,,,5c59866b2e4cc90001d08a07,60a6c71e03f262ee5091e9fa,2021-05-21_15h38.07.992,Simcolourproject_2stim_asymm_v5,2020.2.10,Win32,60,60a5f9bf14d0aa2821c4bb84,,,,,142,39,92,1,0,0,response1disk,,7,6,-10,1,0,0,rectangle,6,-10,1,0,0,4,"[121,26,162,24,247,263,232,309,24,226,216,228,66,267,304,72,135,209,47,212]",6,-10,1,0,0,0,124,124,126,1,,,
,,,,,,,,,,,,,FF,,,,,,,,2.082,,,,,,,,,,,,,,,,,,,,,,,5c59866b2e4cc90001d08a07,60a6c71e03f262ee5091e9fa,2021-05-21_15h38.07.992,Simcolourproject_2stim_asymm_v5,2020.2.10,Win32,60,60a5f9bf14d0aa2821c4bb84,,,,,2347,35,-94,1,0,0,response3disk,,4,3,13,1,0,0,rectangle,3,13,1,0,0,2,"[121,26,162,24,247,263,232,309,24,226,216,228,66,267,304,72,135,209,47,212]",3,13,1,0,0,0,125,125,102,1,,,
,,,,,,,,,,,,,FF,,,,,,,,1.066,,,,,,,,,,,,,,,,,,,,,,,5c59866b2e4cc90001d08a07,60a6c71e03f262ee5091e9fa,2021-05-21_15h38.07.992,Simcolourproject_2stim_asymm_v5,2020.2.10,Win32,60,60a5f9bf14d0aa2821c4bb84,,,,,3623,-43,-94,1,0,0,response5disk,,3,-1,7,1,0,0,rectangle,-1,7,1,0,0,3,"[121,26,162,24,247,263,232,309,24,226,216,228,66,267,304,72,135,209,47,212]",-1,7,1,0,0,0,126,126,134,1,,,
,,,,,,,,,,,,,FF,,,,,,,,2.05,,,,,,,,,,,,,,,,,,,,,,,5c59866b2e4cc90001d08a07,60a6c71e03f262ee5091e9fa,2021-05-21_15h38.07.992,Simcolourproject_2stim_asymm_v5,2020.2.10,Win32,60,60a5f9bf14d0aa2821c4bb84,,,,,2384,85,43,1,0,0,response1disk,,6,3,1,1,0,0,rectangle,3,1,1,0,0,2,"[121,26,162,24,247,263,232,309,24,226,216,228,66,267,304,72,135,209,47,212]",3,1,1,0,0,0,127,127,48,1,,,
,,,,,,,,,,,,,FF,,,,,,,,2.215,,,,,,,,,,,,,,,,,,,,,,,5c59866b2e4cc90001d08a07,60a6c71e03f262ee5091e9fa,2021-05-21_15h38.07.992,Simcolourproject_2stim_asymm_v5,2020.2.10,Win32,60,60a5f9bf14d0aa2821c4bb84,,,,,1388,37,-91,1,0,0,response3disk,,4,5,3,1,0,0,rectangle,5,3,1,0,0,1,"[121,26,162,24,247,263,232,309,24,226,216,228,66,267,304,72,135,209,47,212]",5,3,1,0,0,0,128,128,43,1,,,
,,,,,,,,,,,,,FF,,,,,,,,0.867,,,,,,,,,,,,,,,,,,,,,,,5c59866b2e4cc90001d08a07,60a6c71e03f262ee5091e9fa,2021-05-21_15h38.07.992,Simcolourproject_2stim_asymm_v5,2020.2.10,Win32,60,60a5f9bf14d0aa2821c4bb84,,,,,925,43,108,1,0,0,response1disk,,7,16,-12,1,0,0,rectangle,16,-12,1,0,0,6,"[121,26,162,24,247,263,232,309,24,226,216,228,66,267,304,72,135,209,47,212]",16,-12,1,0,0,0,129,129,95,1,,,
,,,,,,,,,,,,,FF,,,,,,,,0.966,,,,,,,,,,,,,,,,,,,,,,,5c59866b2e4cc90001d08a07,60a6c71e03f262ee5091e9fa,2021-05-21_15h38.07.992,Simcolourproject_2stim_asymm_v5,2020.2.10,Win32,60,60a5f9bf14d0aa2821c4bb84,,,,,3580,39,84,1,0,0,response1disk,,7,1,-4,1,0,0,rectangle,1,-4,1,0,0,3,"[121,26,162,24,247,263,232,309,24,226,216,228,66,267,304,72,135,209,47,212]",1,-4,1,0,0,0,130,130,86,1,,,
,,,,,,,,,,,,,FF,,,,,,,,1.534,,,,,,,,,,,,,,,,,,,,,,,5c59866b2e4cc90001d08a07,60a6c71e03f262ee5091e9fa,2021-05-21_15h38.07.992,Simcolourproject_2stim_asymm_v5,2020.2.10,Win32,60,60a5f9bf14d0aa2821c4bb84,,,,,3237,61,-83,1,0,0,response3disk,,4,0,-3,1,0,0,rectangle,0,-3,1,0,0,0,"[121,26,162,24,247,263,232,309,24,226,216,228,66,267,304,72,135,209,47,212]",0,-3,1,0,0,0,131,131,67,1,,,
,,,,,,,,,,,,,FF,,,,,,,,1.374,,,,,,,,,,,,,,,,,,,,,,,5c59866b2e4cc90001d08a07,60a6c71e03f262ee5091e9fa,2021-05-21_15h38.07.992,Simcolourproject_2stim_asymm_v5,2020.2.10,Win32,60,60a5f9bf14d0aa2821c4bb84,,,,,2398,31,89,1,0,0,response1disk,,7,10,-2,1,0,0,rectangle,10,-2,1,0,0,7,"[121,26,162,24,247,263,232,309,24,226,216,228,66,267,304,72,135,209,47,212]",10,-2,1,0,0,0,132,132,117,1,,,
,,,,,,,,,,,,,FF,,,,,,,,1.8,,,,,,,,,,,,,,,,,,,,,,,5c59866b2e4cc90001d08a07,60a6c71e03f262ee5091e9fa,2021-05-21_15h38.07.992,Simcolourproject_2stim_asymm_v5,2020.2.10,Win32,60,60a5f9bf14d0aa2821c4bb84,,,,,839,37,77,1,0,0,response1disk,,7,8,-7,1,0,0,rectangle,8,-7,1,0,0,2,"[121,26,162,24,247,263,232,309,24,226,216,228,66,267,304,72,135,209,47,212]",8,-7,1,0,0,0,133,133,70,1,,,
,,,,,,,,,,,,,FF,,,,,,,,0.867,,,,,,,,,,,,,,,,,,,,,,,5c59866b2e4cc90001d08a07,60a6c71e03f262ee5091e9fa,2021-05-21_15h38.07.992,Simcolourproject_2stim_asymm_v5,2020.2.10,Win32,60,60a5f9bf14d0aa2821c4bb84,,,,,2282,43,97,1,0,0,response1disk,,7,1,-3,1,0,0,rectangle,-43,96,1,0,0,0,"[121,26,162,24,247,263,232,309,24,226,216,228,66,267,304,72,135,209,47,212]",6,5,1,0,0,0,134,134,152,1,,response7disk_3,rectangle
,,,,,,,,,,,,,FF,,,,,,,,1.1,,,,,,,,,,,,,,,,,,,,,,,5c59866b2e4cc90001d08a07,60a6c71e03f262ee5091e9fa,2021-05-21_15h38.07.992,Simcolourproject_2stim_asymm_v5,2020.2.10,Win32,60,60a5f9bf14d0aa2821c4bb84,,,,,1207,31,77,1,0,0,response1disk,,7,9,2,1,0,0,rectangle,9,2,1,0,0,3,"[121,26,162,24,247,263,232,309,24,226,216,228,66,267,304,72,135,209,47,212]",9,2,1,0,0,0,135,135,66,1,,,
,,,,,,,,,,,,,FF,,,,,,,,1.351,,,,,,,,,,,,,,,,,,,,,,,5c59866b2e4cc90001d08a07,60a6c71e03f262ee5091e9fa,2021-05-21_15h38.07.992,Simcolourproject_2stim_asymm_v5,2020.2.10,Win32,60,60a5f9bf14d0aa2821c4bb84,,,,,3198,-37,-80,1,0,0,response5disk,,3,-4,6,1,0,0,rectangle,-4,6,1,0,0,1,"[121,26,162,24,247,263,232,309,24,226,216,228,66,267,304,72,135,209,47,212]",-4,6,1,0,0,0,136,136,153,1,,,
,,,,,,,,,,,,,FF,,,,,,,,1.366,,,,,,,,,,,,,,,,,,,,,,,5c59866b2e4cc90001d08a07,60a6c71e03f262ee5091e9fa,2021-05-21_15h38.07.992,Simcolourproject_2stim_asymm_v5,2020.2.10,Win32,60,60a5f9bf14d0aa2821c4bb84,,,,,1227,-84,-40,1,0,0,response5disk,,3,5,7,1,0,0,rectangle,5,7,1,0,0,6,"[121,26,162,24,247,263,232,309,24,226,216,228,66,267,304,72,135,209,47,212]",5,7,1,0,0,0,137,137,140,1,,,
,,,,,,,,,,,,,FF,,,,,,,,1.55,,,,,,,,,,,,,,,,,,,,,,,5c59866b2e4cc90001d08a07,60a6c71e03f262ee5091e9fa,2021-05-21_15h38.07.992,Simcolourproject_2stim_asymm_v5,2020.2.10,Win32,60,60a5f9bf14d0aa2821c4bb84,,,,,569,67,-82,1,0,0,response3disk,,4,-1,-5,1,0,0,rectangle,-1,-5,1,0,0,7,"[121,26,162,24,247,263,232,309,24,226,216,228,66,267,304,72,135,209,47,212]",-1,-5,1,0,0,0,138,138,138,1,,,
,,,,,,,,,,,,,FF,,,,,,,,2.516,,,,,,,,,,,,,,,,,,,,,,,5c59866b2e4cc90001d08a07,60a6c71e03f262ee5091e9fa,2021-05-21_15h38.07.992,Simcolourproject_2stim_asymm_v5,2020.2.10,Win32,60,60a5f9bf14d0aa2821c4bb84,,,,,4102,-84,35,1,0,0,response7disk,,1,19,1,1,0,0,rectangle,19,1,1,0,0,0,"[121,26,162,24,247,263,232,309,24,226,216,228,66,267,304,72,135,209,47,212]",19,1,1,0,0,0,139,139,52,1,,,
,,,,,,,,,,,,,FF,,,,,,,,0.751,,,,,,,,,,,,,,,,,,,,,,,5c59866b2e4cc90001d08a07,60a6c71e03f262ee5091e9fa,2021-05-21_15h38.07.992,Simcolourproject_2stim_asymm_v5,2020.2.10,Win32,60,60a5f9bf14d0aa2821c4bb84,,,,,3731,50,99,1,0,0,response1disk,,7,14,7,1,0,0,rectangle,14,7,1,0,0,2,"[121,26,162,24,247,263,232,309,24,226,216,228,66,267,304,72,135,209,47,212]",14,7,1,0,0,0,140,140,15,1,,,
,,,,,,,,,,,,,FF,,,,,,,,0.749,,,,,,,,,,,,,,,,,,,,,,,5c59866b2e4cc90001d08a07,60a6c71e03f262ee5091e9fa,2021-05-21_15h38.07.992,Simcolourproject_2stim_asymm_v5,2020.2.10,Win32,60,60a5f9bf14d0aa2821c4bb84,,,,,2964,49,86,1,0,0,response1disk,,7,6,-3,1,0,0,rectangle,6,-3,1,0,0,0,"[121,26,162,24,247,263,232,309,24,226,216,228,66,267,304,72,135,209,47,212]",6,-3,1,0,0,0,141,141,110,1,,,
,,,,,,,,,,,,,FF,,,,,,,,1.315,,,,,,,,,,,,,,,,,,,,,,,5c59866b2e4cc90001d08a07,60a6c71e03f262ee5091e9fa,2021-05-21_15h38.07.992,Simcolourproject_2stim_asymm_v5,2020.2.10,Win32,60,60a5f9bf14d0aa2821c4bb84,,,,,2935,51,-91,1,0,0,response3disk,,4,8,-2,1,0,0,rectangle,8,-2,1,0,0,3,"[121,26,162,24,247,263,232,309,24,226,216,228,66,267,304,72,135,209,47,212]",8,-2,1,0,0,0,142,142,131,1,,,
,,,,,,,,,,,,,FF,,,,,,,,1.7,,,,,,,,,,,,,,,,,,,,,,,5c59866b2e4cc90001d08a07,60a6c71e03f262ee5091e9fa,2021-05-21_15h38.07.992,Simcolourproject_2stim_asymm_v5,2020.2.10,Win32,60,60a5f9bf14d0aa2821c4bb84,,,,,1378,24,-100,1,0,0,response3disk,,4,-2,2,1,0,0,rectangle,-2,2,1,0,0,6,"[121,26,162,24,247,263,232,309,24,226,216,228,66,267,304,72,135,209,47,212]",-2,2,1,0,0,0,143,143,118,1,,,
,,,,,,,,,,,,,FF,,,,,,,,1.417,,,,,,,,,,,,,,,,,,,,,,,5c59866b2e4cc90001d08a07,60a6c71e03f262ee5091e9fa,2021-05-21_15h38.07.992,Simcolourproject_2stim_asymm_v5,2020.2.10,Win32,60,60a5f9bf14d0aa2821c4bb84,,,,,1906,107,36,1,0,0,response1disk,,6,6,-6,1,0,0,rectangle,6,-6,1,0,0,5,"[121,26,162,24,247,263,232,309,24,226,216,228,66,267,304,72,135,209,47,212]",6,-6,1,0,0,0,144,144,75,1,,,
,,,,,,,,,,,,,FF,,,,,,,,1.017,,,,,,,,,,,,,,,,,,,,,,,5c59866b2e4cc90001d08a07,60a6c71e03f262ee5091e9fa,2021-05-21_15h38.07.992,Simcolourproject_2stim_asymm_v5,2020.2.10,Win32,60,60a5f9bf14d0aa2821c4bb84,,,,,1132,84,-54,1,0,0,response3disk,,5,11,-1,1,0,0,rectangle,11,-1,1,0,0,4,"[121,26,162,24,247,263,232,309,24,226,216,228,66,267,304,72,135,209,47,212]",11,-1,1,0,0,0,145,145,26,1,,,
,,,,,,,,,,,,,FF,,,,,,,,0.8,,,,,,,,,,,,,,,,,,,,,,,5c59866b2e4cc90001d08a07,60a6c71e03f262ee5091e9fa,2021-05-21_15h38.07.992,Simcolourproject_2stim_asymm_v5,2020.2.10,Win32,60,60a5f9bf14d0aa2821c4bb84,,,,,3045,-33,73,1,0,0,response7disk,,0,15,8,1,0,0,rectangle,15,8,1,0,0,4,"[121,26,162,24,247,263,232,309,24,226,216,228,66,267,304,72,135,209,47,212]",15,8,1,0,0,0,146,146,147,1,,,
,,,,,,,,,,,,,FF,,,,,,,,1.383,,,,,,,,,,,,,,,,,,,,,,,5c59866b2e4cc90001d08a07,60a6c71e03f262ee5091e9fa,2021-05-21_15h38.07.992,Simcolourproject_2stim_asymm_v5,2020.2.10,Win32,60,60a5f9bf14d0aa2821c4bb84,,,,,4352,-77,42,1,0,0,response7disk,,1,-11,0,1,0,0,rectangle,-11,0,1,0,0,7,"[121,26,162,24,247,263,232,309,24,226,216,228,66,267,304,72,135,209,47,212]",-11,0,1,0,0,0,147,147,142,1,,,
,,,,,,,,,,,,,FF,,,,,,,,1.082,,,,,,,,,,,,,,,,,,,,,,,5c59866b2e4cc90001d08a07,60a6c71e03f262ee5091e9fa,2021-05-21_15h38.07.992,Simcolourproject_2stim_asymm_v5,2020.2.10,Win32,60,60a5f9bf14d0aa2821c4bb84,,,,,2778,-37,-81,1,0,0,response5disk,,3,1,-9,1,0,0,rectangle,1,-9,1,0,0,3,"[121,26,162,24,247,263,232,309,24,226,216,228,66,267,304,72,135,209,47,212]",1,-9,1,0,0,0,148,148,74,1,,,
,,,,,,,,,,,,,FF,,,,,,,,1.418,,,,,,,,,,,,,,,,,,,,,,,5c59866b2e4cc90001d08a07,60a6c71e03f262ee5091e9fa,2021-05-21_15h38.07.992,Simcolourproject_2stim_asymm_v5,2020.2.10,Win32,60,60a5f9bf14d0aa2821c4bb84,,,,,3855,75,-48,1,0,0,response3disk,,5,7,3,1,0,0,rectangle,7,3,1,0,0,6,"[121,26,162,24,247,263,232,309,24,226,216,228,66,267,304,72,135,209,47,212]",7,3,1,0,0,0,149,149,10,1,,,
,,,,,,,,,,,,,FF,,,,,,,,0.984,,,,,,,,,,,,,,,,,,,,,,,5c59866b2e4cc90001d08a07,60a6c71e03f262ee5091e9fa,2021-05-21_15h38.07.992,Simcolourproject_2stim_asymm_v5,2020.2.10,Win32,60,60a5f9bf14d0aa2821c4bb84,,,,,225,34,96,1,0,0,response1disk,,7,1,0,1,0,0,rectangle,1,0,1,0,0,5,"[121,26,162,24,247,263,232,309,24,226,216,228,66,267,304,72,135,209,47,212]",1,0,1,0,0,0,150,150,154,1,,,
,,,,,,,,,,,,,FF,,,,,,,,1.016,,,,,,,,,,,,,,,,,,,,,,,5c59866b2e4cc90001d08a07,60a6c71e03f262ee5091e9fa,2021-05-21_15h38.07.992,Simcolourproject_2stim_asymm_v5,2020.2.10,Win32,60,60a5f9bf14d0aa2821c4bb84,,,,,536,33,92,1,0,0,response1disk,,7,11,-5,1,0,0,rectangle,11,-5,1,0,0,4,"[121,26,162,24,247,263,232,309,24,226,216,228,66,267,304,72,135,209,47,212]",11,-5,1,0,0,0,151,151,63,1,,,
,,,,,,,,,,,,,FF,,,,,,,,1.366,,,,,,,,,,,,,,,,,,,,,,,5c59866b2e4cc90001d08a07,60a6c71e03f262ee5091e9fa,2021-05-21_15h38.07.992,Simcolourproject_2stim_asymm_v5,2020.2.10,Win32,60,60a5f9bf14d0aa2821c4bb84,,,,,2741,36,89,1,0,0,response1disk,,7,8,-3,1,0,0,rectangle,8,-3,1,0,0,0,"[121,26,162,24,247,263,232,309,24,226,216,228,66,267,304,72,135,209,47,212]",8,-3,1,0,0,0,152,152,129,1,,,
,,,,,,,,,,,,,FF,,,,,,,,1.316,,,,,,,,,,,,,,,,,,,,,,,5c59866b2e4cc90001d08a07,60a6c71e03f262ee5091e9fa,2021-05-21_15h38.07.992,Simcolourproject_2stim_asymm_v5,2020.2.10,Win32,60,60a5f9bf14d0aa2821c4bb84,,,,,1045,35,79,1,0,0,response1disk,,7,2,5,1,0,0,rectangle,2,5,1,0,0,0,"[121,26,162,24,247,263,232,309,24,226,216,228,66,267,304,72,135,209,47,212]",2,5,1,0,0,0,153,153,108,1,,,
,,,,,,,,,,,,,FF,,,,,,,,0.899,,,,,,,,,,,,,,,,,,,,,,,5c59866b2e4cc90001d08a07,60a6c71e03f262ee5091e9fa,2021-05-21_15h38.07.992,Simcolourproject_2stim_asymm_v5,2020.2.10,Win32,60,60a5f9bf14d0aa2821c4bb84,,,,,3534,34,95,1,0,0,response1disk,,7,5,8,1,0,0,rectangle,5,8,1,0,0,0,"[121,26,162,24,247,263,232,309,24,226,216,228,66,267,304,72,135,209,47,212]",5,8,1,0,0,0,154,154,106,1,,,
,,,,,,,,,,,,,FF,,,,,,,,1.884,,,,,,,,,,,,,,,,,,,,,,,5c59866b2e4cc90001d08a07,60a6c71e03f262ee5091e9fa,2021-05-21_15h38.07.992,Simcolourproject_2stim_asymm_v5,2020.2.10,Win32,60,60a5f9bf14d0aa2821c4bb84,,,,,2202,47,84,1,0,0,response1disk,,7,-3,-3,1,0,0,rectangle,-3,-3,1,0,0,7,"[121,26,162,24,247,263,232,309,24,226,216,228,66,267,304,72,135,209,47,212]",-3,-3,1,0,0,0,155,155,18,1,,,
,,,,,,,,,,,,,FF,,,,,,,,1.132,,,,,,,,,,,,,,,,,,,,,,,5c59866b2e4cc90001d08a07,60a6c71e03f262ee5091e9fa,2021-05-21_15h38.07.992,Simcolourproject_2stim_asymm_v5,2020.2.10,Win32,60,60a5f9bf14d0aa2821c4bb84,,,,,1262,36,83,1,0,0,response1disk,,7,-4,3,1,0,0,rectangle,-4,3,1,0,0,3,"[121,26,162,24,247,263,232,309,24,226,216,228,66,267,304,72,135,209,47,212]",-4,3,1,0,0,0,156,156,65,1,,,
,,,,,,,,,,,,,FF,,,,,,,,1.166,,,,,,,,,,,,,,,,,,,,,,,5c59866b2e4cc90001d08a07,60a6c71e03f262ee5091e9fa,2021-05-21_15h38.07.992,Simcolourproject_2stim_asymm_v5,2020.2.10,Win32,60,60a5f9bf14d0aa2821c4bb84,,,,,1218,-94,-58,1,0,0,response5disk,,7,5,0,1,0,0,rectangle,5,0,1,0,0,2,"[121,26,162,24,247,263,232,309,24,226,216,228,66,267,304,72,135,209,47,212]",5,0,1,0,0,0,157,157,5,1,,,
,,,,,,,,,,,,,FF,,,,,,,,3.167,,,,,,,,,,,,,,,,,,,,,,,5c59866b2e4cc90001d08a07,60a6c71e03f262ee5091e9fa,2021-05-21_15h38.07.992,Simcolourproject_2stim_asymm_v5,2020.2.10,Win32,60,60a5f9bf14d0aa2821c4bb84,,,,,2794,78,49,1,0,0,response1disk,,6,-19,-2,1,0,0,rectangle,-19,-2,1,0,0,4,"[121,26,162,24,247,263,232,309,24,226,216,228,66,267,304,72,135,209,47,212]",-19,-2,1,0,0,0,158,158,9,1,,,
,,,,,,,,,,,,,FF,,,,,,,,3.432,,,,,,,,,,,,,,,,,,,,,,,5c59866b2e4cc90001d08a07,60a6c71e03f262ee5091e9fa,2021-05-21_15h38.07.992,Simcolourproject_2stim_asymm_v5,2020.2.10,Win32,60,60a5f9bf14d0aa2821c4bb84,,,,,2721,-48,-82,1,0,0,response5disk,,3,-4,-3,1,0,0,rectangle,-4,-3,1,0,0,0,"[121,26,162,24,247,263,232,309,24,226,216,228,66,267,304,72,135,209,47,212]",-4,-3,1,0,0,0,159,159,93,1,,,
,,,,,,,,,,,,,FF,,,,,,,,1.052,,,,,,,,,,,,,,,,,,,,,,,5c59866b2e4cc90001d08a07,60a6c71e03f262ee5091e9fa,2021-05-21_15h38.07.992,Simcolourproject_2stim_asymm_v5,2020.2.10,Win32,60,60a5f9bf14d0aa2821c4bb84,,,,,491,51,90,1,0,0,response1disk,,7,-4,-3,1,0,0,rectangle,-4,-3,1,0,0,5,"[121,26,162,24,247,263,232,309,24,226,216,228,66,267,304,72,135,209,47,212]",-4,-3,1,0,0,0,160,160,7,1,,,
,,,,,,,,,,,,,FF,,,,,,,,1.266,,,,,,,,,,,,,,,,,,,,,,,5c59866b2e4cc90001d08a07,60a6c71e03f262ee5091e9fa,2021-05-21_15h38.07.992,Simcolourproject_2stim_asymm_v5,2020.2.10,Win32,60,60a5f9bf14d0aa2821c4bb84,,,,,723,54,-81,1,0,0,response3disk,,4,3,-3,1,0,0,rectangle,97,40,1,0,0,6,"[121,26,162,24,247,263,232,309,24,226,216,228,66,267,304,72,135,209,47,212]",-2,3,1,0,0,1,0,161,154,1,,response1disk_3,rectangle
,,,,,,,,,,,,,FF,,,,,,,,1.866,,,,,,,,,,,,,,,,,,,,,,,5c59866b2e4cc90001d08a07,60a6c71e03f262ee5091e9fa,2021-05-21_15h38.07.992,Simcolourproject_2stim_asymm_v5,2020.2.10,Win32,60,60a5f9bf14d0aa2821c4bb84,,,,,1227,-46,-73,1,0,0,response5disk,,3,10,0,1,0,0,rectangle,10,0,1,0,0,2,"[121,26,162,24,247,263,232,309,24,226,216,228,66,267,304,72,135,209,47,212]",10,0,1,0,0,1,1,162,58,1,,,
,,,,,,,,,,,,,FF,,,,,,,,1.316,,,,,,,,,,,,,,,,,,,,,,,5c59866b2e4cc90001d08a07,60a6c71e03f262ee5091e9fa,2021-05-21_15h38.07.992,Simcolourproject_2stim_asymm_v5,2020.2.10,Win32,60,60a5f9bf14d0aa2821c4bb84,,,,,1737,70,29,1,0,0,response1disk,,6,-9,5,1,0,0,rectangle,-9,5,1,0,0,1,"[121,26,162,24,247,263,232,309,24,226,216,228,66,267,304,72,135,209,47,212]",-9,5,1,0,0,1,2,163,41,1,,,
,,,,,,,,,,,,,FF,,,,,,,,1.151,,,,,,,,,,,,,,,,,,,,,,,5c59866b2e4cc90001d08a07,60a6c71e03f262ee5091e9fa,2021-05-21_15h38.07.992,Simcolourproject_2stim_asymm_v5,2020.2.10,Win32,60,60a5f9bf14d0aa2821c4bb84,,,,,3945,-35,-75,1,0,0,response5disk,,3,9,2,1,0,0,rectangle,9,2,1,0,0,0,"[121,26,162,24,247,263,232,309,24,226,216,228,66,267,304,72,135,209,47,212]",9,2,1,0,0,1,3,164,84,1,,,
,,,,,,,,,,,,,FF,,,,,,,,0.774,,,,,,,,,,,,,,,,,,,,,,,5c59866b2e4cc90001d08a07,60a6c71e03f262ee5091e9fa,2021-05-21_15h38.07.992,Simcolourproject_2stim_asymm_v5,2020.2.10,Win32,60,60a5f9bf14d0aa2821c4bb84,,,,,1781,36,99,1,0,0,response1disk,,7,-5,0,1,0,0,rectangle,-5,0,1,0,0,0,"[121,26,162,24,247,263,232,309,24,226,216,228,66,267,304,72,135,209,47,212]",-5,0,1,0,0,1,4,165,22,1,,,
,,,,,,,,,,,,,FF,,,,,,,,1.267,,,,,,,,,,,,,,,,,,,,,,,5c59866b2e4cc90001d08a07,60a6c71e03f262ee5091e9fa,2021-05-21_15h38.07.992,Simcolourproject_2stim_asymm_v5,2020.2.10,Win32,60,60a5f9bf14d0aa2821c4bb84,,,,,4035,85,29,1,0,0,response1disk,,6,1,3,1,0,0,rectangle,1,3,1,0,0,3,"[121,26,162,24,247,263,232,309,24,226,216,228,66,267,304,72,135,209,47,212]",1,3,1,0,0,1,5,166,101,1,,,
,,,,,,,,,,,,,FF,,,,,,,,1.2,,,,,,,,,,,,,,,,,,,,,,,5c59866b2e4cc90001d08a07,60a6c71e03f262ee5091e9fa,2021-05-21_15h38.07.992,Simcolourproject_2stim_asymm_v5,2020.2.10,Win32,60,60a5f9bf14d0aa2821c4bb84,,,,,912,42,99,1,0,0,response1disk,,7,15,6,1,0,0,rectangle,15,6,1,0,0,6,"[121,26,162,24,247,263,232,309,24,226,216,228,66,267,304,72,135,209,47,212]",15,6,1,0,0,1,6,167,13,1,,,
,,,,,,,,,,,,,FF,,,,,,,,0.767,,,,,,,,,,,,,,,,,,,,,,,5c59866b2e4cc90001d08a07,60a6c71e03f262ee5091e9fa,2021-05-21_15h38.07.992,Simcolourproject_2stim_asymm_v5,2020.2.10,Win32,60,60a5f9bf14d0aa2821c4bb84,,,,,2408,46,92,1,0,0,response1disk,,7,-6,1,1,0,0,rectangle,-6,1,1,0,0,4,"[121,26,162,24,247,263,232,309,24,226,216,228,66,267,304,72,135,209,47,212]",-6,1,1,0,0,1,7,168,45,1,,,
,,,,,,,,,,,,,FF,,,,,,,,1.966,,,,,,,,,,,,,,,,,,,,,,,5c59866b2e4cc90001d08a07,60a6c71e03f262ee5091e9fa,2021-05-21_15h38.07.992,Simcolourproject_2stim_asymm_v5,2020.2.10,Win32,60,60a5f9bf14d0aa2821c4bb84,,,,,3650,34,103,1,0,0,response1disk,,7,7,8,1,0,0,rectangle,7,8,1,0,0,3,"[121,26,162,24,247,263,232,309,24,226,216,228,66,267,304,72,135,209,47,212]",7,8,1,0,0,1,8,169,1,1,,,
,,,,,,,,,,,,,FF,,,,,,,,0.818,,,,,,,,,,,,,,,,,,,,,,,5c59866b2e4cc90001d08a07,60a6c71e03f262ee5091e9fa,2021-05-21_15h38.07.992,Simcolourproject_2stim_asymm_v5,2020.2.10,Win32,60,60a5f9bf14d0aa2821c4bb84,,,,,1049,35,77,1,0,0,response1disk,,7,-5,-3,1,0,0,rectangle,-5,-3,1,0,0,5,"[121,26,162,24,247,263,232,309,24,226,216,228,66,267,304,72,135,209,47,212]",-5,-3,1,0,0,1,9,170,16,1,,,
,,,,,,,,,,,,,FF,,,,,,,,1.616,,,,,,,,,,,,,,,,,,,,,,,5c59866b2e4cc90001d08a07,60a6c71e03f262ee5091e9fa,2021-05-21_15h38.07.992,Simcolourproject_2stim_asymm_v5,2020.2.10,Win32,60,60a5f9bf14d0aa2821c4bb84,,,,,723,-50,-88,1,0,0,response5disk,,3,0,-14,1,0,0,rectangle,0,-14,1,0,0,7,"[121,26,162,24,247,263,232,309,24,226,216,228,66,267,304,72,135,209,47,212]",0,-14,1,0,0,1,10,171,139,1,,,
,,,,,,,,,,,,,FF,,,,,,,,0.934,,,,,,,,,,,,,,,,,,,,,,,5c59866b2e4cc90001d08a07,60a6c71e03f262ee5091e9fa,2021-05-21_15h38.07.992,Simcolourproject_2stim_asymm_v5,2020.2.10,Win32,60,60a5f9bf14d0aa2821c4bb84,,,,,3362,47,88,1,0,0,response1disk,,7,0,0,1,0,0,rectangle,0,0,1,0,0,7,"[121,26,162,24,247,263,232,309,24,226,216,228,66,267,304,72,135,209,47,212]",0,0,1,0,0,1,11,172,158,1,,,
,,,,,,,,,,,,,FF,,,,,,,,1.167,,,,,,,,,,,,,,,,,,,,,,,5c59866b2e4cc90001d08a07,60a6c71e03f262ee5091e9fa,2021-05-21_15h38.07.992,Simcolourproject_2stim_asymm_v5,2020.2.10,Win32,60,60a5f9bf14d0aa2821c4bb84,,,,,1548,44,78,1,0,0,response1disk,,7,-8,-10,1,0,0,rectangle,-8,-10,1,0,0,4,"[121,26,162,24,247,263,232,309,24,226,216,228,66,267,304,72,135,209,47,212]",-8,-10,1,0,0,1,12,173,9,1,,,
,,,,,,,,,,,,,FF,,,,,,,,1,,,,,,,,,,,,,,,,,,,,,,,5c59866b2e4cc90001d08a07,60a6c71e03f262ee5091e9fa,2021-05-21_15h38.07.992,Simcolourproject_2stim_asymm_v5,2020.2.10,Win32,60,60a5f9bf14d0aa2821c4bb84,,,,,2516,42,85,1,0,0,response1disk,,7,2,1,1,0,0,rectangle,2,1,1,0,0,2,"[121,26,162,24,247,263,232,309,24,226,216,228,66,267,304,72,135,209,47,212]",2,1,1,0,0,1,13,174,15,1,,,
,,,,,,,,,,,,,FF,,,,,,,,0.717,,,,,,,,,,,,,,,,,,,,,,,5c59866b2e4cc90001d08a07,60a6c71e03f262ee5091e9fa,2021-05-21_15h38.07.992,Simcolourproject_2stim_asymm_v5,2020.2.10,Win32,60,60a5f9bf14d0aa2821c4bb84,,,,,839,46,76,1,0,0,response1disk,,7,-6,7,1,0,0,rectangle,-6,7,1,0,0,6,"[121,26,162,24,247,263,232,309,24,226,216,228,66,267,304,72,135,209,47,212]",-6,7,1,0,0,1,14,175,74,1,,,
,,,,,,,,,,,,,FF,,,,,,,,1.349,,,,,,,,,,,,,,,,,,,,,,,5c59866b2e4cc90001d08a07,60a6c71e03f262ee5091e9fa,2021-05-21_15h38.07.992,Simcolourproject_2stim_asymm_v5,2020.2.10,Win32,60,60a5f9bf14d0aa2821c4bb84,,,,,1132,29,-100,1,0,0,response3disk,,4,-1,-1,1,0,0,rectangle,-1,-1,1,0,0,0,"[121,26,162,24,247,263,232,309,24,226,216,228,66,267,304,72,135,209,47,212]",-1,-1,1,0,0,1,15,176,36,1,,,
,,,,,,,,,,,,,FF,,,,,,,,1.365,,,,,,,,,,,,,,,,,,,,,,,5c59866b2e4cc90001d08a07,60a6c71e03f262ee5091e9fa,2021-05-21_15h38.07.992,Simcolourproject_2stim_asymm_v5,2020.2.10,Win32,60,60a5f9bf14d0aa2821c4bb84,,,,,142,45,76,1,0,0,response1disk,,7,3,3,1,0,0,rectangle,3,3,1,0,0,5,"[121,26,162,24,247,263,232,309,24,226,216,228,66,267,304,72,135,209,47,212]",3,3,1,0,0,1,16,177,14,1,,,
,,,,,,,,,,,,,FF,,,,,,,,0.899,,,,,,,,,,,,,,,,,,,,,,,5c59866b2e4cc90001d08a07,60a6c71e03f262ee5091e9fa,2021-05-21_15h38.07.992,Simcolourproject_2stim_asymm_v5,2020.2.10,Win32,60,60a5f9bf14d0aa2821c4bb84,,,,,1996,50,91,1,0,0,response1disk,,7,7,8,1,0,0,rectangle,7,8,1,0,0,3,"[121,26,162,24,247,263,232,309,24,226,216,228,66,267,304,72,135,209,47,212]",7,8,1,0,0,1,17,178,102,1,,,
,,,,,,,,,,,,,FF,,,,,,,,1.567,,,,,,,,,,,,,,,,,,,,,,,5c59866b2e4cc90001d08a07,60a6c71e03f262ee5091e9fa,2021-05-21_15h38.07.992,Simcolourproject_2stim_asymm_v5,2020.2.10,Win32,60,60a5f9bf14d0aa2821c4bb84,,,,,1262,39,75,1,0,0,response1disk,,7,4,-2,1,0,0,rectangle,4,-2,1,0,0,1,"[121,26,162,24,247,263,232,309,24,226,216,228,66,267,304,72,135,209,47,212]",4,-2,1,0,0,1,18,179,104,1,,,
,,,,,,,,,,,,,FF,,,,,,,,0.751,,,,,,,,,,,,,,,,,,,,,,,5c59866b2e4cc90001d08a07,60a6c71e03f262ee5091e9fa,2021-05-21_15h38.07.992,Simcolourproject_2stim_asymm_v5,2020.2.10,Win32,60,60a5f9bf14d0aa2821c4bb84,,,,,3728,34,73,1,0,0,response1disk,,7,0,1,1,0,0,rectangle,0,1,1,0,0,4,"[121,26,162,24,247,263,232,309,24,226,216,228,66,267,304,72,135,209,47,212]",0,1,1,0,0,1,19,180,137,1,,,
,,,,,,,,,,,,,FF,,,,,,,,1.167,,,,,,,,,,,,,,,,,,,,,,,5c59866b2e4cc90001d08a07,60a6c71e03f262ee5091e9fa,2021-05-21_15h38.07.992,Simcolourproject_2stim_asymm_v5,2020.2.10,Win32,60,60a5f9bf14d0aa2821c4bb84,,,,,2548,-31,-93,1,0,0,response5disk,,3,-3,-6,1,0,0,rectangle,-3,-6,1,0,0,6,"[121,26,162,24,247,263,232,309,24,226,216,228,66,267,304,72,135,209,47,212]",-3,-6,1,0,0,1,20,181,130,1,,,
,,,,,,,,,,,,,FF,,,,,,,,1.184,,,,,,,,,,,,,,,,,,,,,,,5c59866b2e4cc90001d08a07,60a6c71e03f262ee5091e9fa,2021-05-21_15h38.07.992,Simcolourproject_2stim_asymm_v5,2020.2.10,Win32,60,60a5f9bf14d0aa2821c4bb84,,,,,3045,-44,79,1,0,0,response7disk,,0,8,-5,1,0,0,rectangle,8,-5,1,0,0,5,"[121,26,162,24,247,263,232,309,24,226,216,228,66,267,304,72,135,209,47,212]",8,-5,1,0,0,1,21,182,97,1,,,
,,,,,,,,,,,,,FF,,,,,,,,0.833,,,,,,,,,,,,,,,,,,,,,,,5c59866b2e4cc90001d08a07,60a6c71e03f262ee5091e9fa,2021-05-21_15h38.07.992,Simcolourproject_2stim_asymm_v5,2020.2.10,Win32,60,60a5f9bf14d0aa2821c4bb84,,,,,423,46,79,1,0,0,response1disk,,7,-3,7,1,0,0,rectangle,-3,7,1,0,0,2,"[121,26,162,24,247,263,232,309,24,226,216,228,66,267,304,72,135,209,47,212]",-3,7,1,0,0,1,22,183,47,1,,,
,,,,,,,,,,,,,FF,,,,,,,,2.117,,,,,,,,,,,,,,,,,,,,,,,5c59866b2e4cc90001d08a07,60a6c71e03f262ee5091e9fa,2021-05-21_15h38.07.992,Simcolourproject_2stim_asymm_v5,2020.2.10,Win32,60,60a5f9bf14d0aa2821c4bb84,,,,,1289,75,46,1,0,0,response1disk,,6,-5,-1,1,0,0,rectangle,-5,-1,1,0,0,3,"[121,26,162,24,247,263,232,309,24,226,216,228,66,267,304,72,135,209,47,212]",-5,-1,1,0,0,1,23,184,121,1,,,
,,,,,,,,,,,,,FF,,,,,,,,1.184,,,,,,,,,,,,,,,,,,,,,,,5c59866b2e4cc90001d08a07,60a6c71e03f262ee5091e9fa,2021-05-21_15h38.07.992,Simcolourproject_2stim_asymm_v5,2020.2.10,Win32,60,60a5f9bf14d0aa2821c4bb84,,,,,537,40,84,1,0,0,response1disk,,7,0,7,1,0,0,rectangle,0,7,1,0,0,4,"[121,26,162,24,247,263,232,309,24,226,216,228,66,267,304,72,135,209,47,212]",0,7,1,0,0,1,24,185,73,1,,,
,,,,,,,,,,,,,FF,,,,,,,,0.833,,,,,,,,,,,,,,,,,,,,,,,5c59866b2e4cc90001d08a07,60a6c71e03f262ee5091e9fa,2021-05-21_15h38.07.992,Simcolourproject_2stim_asymm_v5,2020.2.10,Win32,60,60a5f9bf14d0aa2821c4bb84,,,,,2282,54,91,1,0,0,response1disk,,7,3,11,1,0,0,rectangle,3,11,1,0,0,0,"[121,26,162,24,247,263,232,309,24,226,216,228,66,267,304,72,135,209,47,212]",3,11,1,0,0,1,25,186,81,1,,,
,,,,,,,,,,,,,FF,,,,,,,,1.884,,,,,,,,,,,,,,,,,,,,,,,5c59866b2e4cc90001d08a07,60a6c71e03f262ee5091e9fa,2021-05-21_15h38.07.992,Simcolourproject_2stim_asymm_v5,2020.2.10,Win32,60,60a5f9bf14d0aa2821c4bb84,,,,,3237,43,81,1,0,0,response1disk,,7,9,1,1,0,0,rectangle,9,1,1,0,0,5,"[121,26,162,24,247,263,232,309,24,226,216,228,66,267,304,72,135,209,47,212]",9,1,1,0,0,1,26,187,75,1,,,
,,,,,,,,,,,,,FF,,,,,,,,1.166,,,,,,,,,,,,,,,,,,,,,,,5c59866b2e4cc90001d08a07,60a6c71e03f262ee5091e9fa,2021-05-21_15h38.07.992,Simcolourproject_2stim_asymm_v5,2020.2.10,Win32,60,60a5f9bf14d0aa2821c4bb84,,,,,664,38,63,1,0,0,response1disk,,7,5,6,1,0,0,rectangle,5,6,1,0,0,4,"[121,26,162,24,247,263,232,309,24,226,216,228,66,267,304,72,135,209,47,212]",5,6,1,0,0,1,27,188,112,1,,,
,,,,,,,,,,,,,FF,,,,,,,,1.083,,,,,,,,,,,,,,,,,,,,,,,5c59866b2e4cc90001d08a07,60a6c71e03f262ee5091e9fa,2021-05-21_15h38.07.992,Simcolourproject_2stim_asymm_v5,2020.2.10,Win32,60,60a5f9bf14d0aa2821c4bb84,,,,,231,47,92,1,0,0,response1disk,,7,-3,6,1,0,0,rectangle,-3,6,1,0,0,3,"[121,26,162,24,247,263,232,309,24,226,216,228,66,267,304,72,135,209,47,212]",-3,6,1,0,0,1,28,189,98,1,,,
,,,,,,,,,,,,,FF,,,,,,,,1.599,,,,,,,,,,,,,,,,,,,,,,,5c59866b2e4cc90001d08a07,60a6c71e03f262ee5091e9fa,2021-05-21_15h38.07.992,Simcolourproject_2stim_asymm_v5,2020.2.10,Win32,60,60a5f9bf14d0aa2821c4bb84,,,,,970,-85,-58,1,0,0,response5disk,,7,1,-4,1,0,0,rectangle,1,-4,1,0,0,2,"[121,26,162,24,247,263,232,309,24,226,216,228,66,267,304,72,135,209,47,212]",1,-4,1,0,0,1,29,190,131,1,,,
,,,,,,,,,,,,,FF,,,,,,,,1.534,,,,,,,,,,,,,,,,,,,,,,,5c59866b2e4cc90001d08a07,60a6c71e03f262ee5091e9fa,2021-05-21_15h38.07.992,Simcolourproject_2stim_asymm_v5,2020.2.10,Win32,60,60a5f9bf14d0aa2821c4bb84,,,,,4352,-46,-69,1,0,0,response5disk,,3,-5,-5,1,0,0,rectangle,-5,-5,1,0,0,0,"[121,26,162,24,247,263,232,309,24,226,216,228,66,267,304,72,135,209,47,212]",-5,-5,1,0,0,1,30,191,78,1,,,
,,,,,,,,,,,,,FF,,,,,,,,1.365,,,,,,,,,,,,,,,,,,,,,,,5c59866b2e4cc90001d08a07,60a6c71e03f262ee5091e9fa,2021-05-21_15h38.07.992,Simcolourproject_2stim_asymm_v5,2020.2.10,Win32,60,60a5f9bf14d0aa2821c4bb84,,,,,1699,40,74,1,0,0,response1disk,,7,-1,2,1,0,0,rectangle,-1,2,1,0,0,7,"[121,26,162,24,247,263,232,309,24,226,216,228,66,267,304,72,135,209,47,212]",-1,2,1,0,0,1,31,192,71,1,,,
,,,,,,,,,,,,,FF,,,,,,,,0.984,,,,,,,,,,,,,,,,,,,,,,,5c59866b2e4cc90001d08a07,60a6c71e03f262ee5091e9fa,2021-05-21_15h38.07.992,Simcolourproject_2stim_asymm_v5,2020.2.10,Win32,60,60a5f9bf14d0aa2821c4bb84,,,,,1404,43,99,1,0,0,response1disk,,7,12,4,1,0,0,rectangle,12,4,1,0,0,2,"[121,26,162,24,247,263,232,309,24,226,216,228,66,267,304,72,135,209,47,212]",12,4,1,0,0,1,32,193,141,1,,,
,,,,,,,,,,,,,FF,,,,,,,,0.849,,,,,,,,,,,,,,,,,,,,,,,5c59866b2e4cc90001d08a07,60a6c71e03f262ee5091e9fa,2021-05-21_15h38.07.992,Simcolourproject_2stim_asymm_v5,2020.2.10,Win32,60,60a5f9bf14d0aa2821c4bb84,,,,,2202,40,87,1,0,0,response1disk,,7,-6,-3,1,0,0,rectangle,-6,-3,1,0,0,5,"[121,26,162,24,247,263,232,309,24,226,216,228,66,267,304,72,135,209,47,212]",-6,-3,1,0,0,1,33,194,127,1,,,
,,,,,,,,,,,,,FF,,,,,,,,1.868,,,,,,,,,,,,,,,,,,,,,,,5c59866b2e4cc90001d08a07,60a6c71e03f262ee5091e9fa,2021-05-21_15h38.07.992,Simcolourproject_2stim_asymm_v5,2020.2.10,Win32,60,60a5f9bf14d0aa2821c4bb84,,,,,1218,-81,-61,1,0,0,response5disk,,7,-2,-1,1,0,0,rectangle,-2,-1,1,0,0,1,"[121,26,162,24,247,263,232,309,24,226,216,228,66,267,304,72,135,209,47,212]",-2,-1,1,0,0,1,34,195,140,1,,,
,,,,,,,,,,,,,FF,,,,,,,,1,,,,,,,,,,,,,,,,,,,,,,,5c59866b2e4cc90001d08a07,60a6c71e03f262ee5091e9fa,2021-05-21_15h38.07.992,Simcolourproject_2stim_asymm_v5,2020.2.10,Win32,60,60a5f9bf14d0aa2821c4bb84,,,,,3037,-42,-79,1,0,0,response5disk,,3,-1,-2,1,0,0,rectangle,-1,-2,1,0,0,6,"[121,26,162,24,247,263,232,309,24,226,216,228,66,267,304,72,135,209,47,212]",-1,-2,1,0,0,1,35,196,100,1,,,
,,,,,,,,,,,,,FF,,,,,,,,2.566,,,,,,,,,,,,,,,,,,,,,,,5c59866b2e4cc90001d08a07,60a6c71e03f262ee5091e9fa,2021-05-21_15h38.07.992,Simcolourproject_2stim_asymm_v5,2020.2.10,Win32,60,60a5f9bf14d0aa2821c4bb84,,,,,162,-44,-79,1,0,0,response5disk,,3,7,4,1,0,0,rectangle,7,4,1,0,0,7,"[121,26,162,24,247,263,232,309,24,226,216,228,66,267,304,72,135,209,47,212]",7,4,1,0,0,1,36,197,43,1,,,
,,,,,,,,,,,,,FF,,,,,,,,0.817,,,,,,,,,,,,,,,,,,,,,,,5c59866b2e4cc90001d08a07,60a6c71e03f262ee5091e9fa,2021-05-21_15h38.07.992,Simcolourproject_2stim_asymm_v5,2020.2.10,Win32,60,60a5f9bf14d0aa2821c4bb84,,,,,3597,-90,-40,1,0,0,response5disk,,3,-2,10,1,0,0,rectangle,-2,10,1,0,0,1,"[121,26,162,24,247,263,232,309,24,226,216,228,66,267,304,72,135,209,47,212]",-2,10,1,0,0,1,37,198,7,1,,,
,,,,,,,,,,,,,FF,,,,,,,,1.266,,,,,,,,,,,,,,,,,,,,,,,5c59866b2e4cc90001d08a07,60a6c71e03f262ee5091e9fa,2021-05-21_15h38.07.992,Simcolourproject_2stim_asymm_v5,2020.2.10,Win32,60,60a5f9bf14d0aa2821c4bb84,,,,,2384,31,66,1,0,0,response1disk,,7,10,3,1,0,0,rectangle,10,3,1,0,0,4,"[121,26,162,24,247,263,232,309,24,226,216,228,66,267,304,72,135,209,47,212]",10,3,1,0,0,1,38,199,62,1,,,
,,,,,,,,,,,,,FF,,,,,,,,1.232,,,,,,,,,,,,,,,,,,,,,,,5c59866b2e4cc90001d08a07,60a6c71e03f262ee5091e9fa,2021-05-21_15h38.07.992,Simcolourproject_2stim_asymm_v5,2020.2.10,Win32,60,60a5f9bf14d0aa2821c4bb84,,,,,1634,33,76,1,0,0,response1disk,,7,-2,2,1,0,0,rectangle,-2,2,1,0,0,7,"[121,26,162,24,247,263,232,309,24,226,216,228,66,267,304,72,135,209,47,212]",-2,2,1,0,0,1,39,200,35,1,,,
,,,,,,,,,,,,,FF,,,,,,,,1.3,,,,,,,,,,,,,,,,,,,,,,,5c59866b2e4cc90001d08a07,60a6c71e03f262ee5091e9fa,2021-05-21_15h38.07.992,Simcolourproject_2stim_asymm_v5,2020.2.10,Win32,60,60a5f9bf14d0aa2821c4bb84,,,,,3855,104,-56,1,0,0,response3disk,,5,2,8,1,0,0,rectangle,2,8,1,0,0,2,"[121,26,162,24,247,263,232,309,24,226,216,228,66,267,304,72,135,209,47,212]",2,8,1,0,0,1,40,201,64,1,,,
,,,,,,,,,,,,,FF,,,,,,,,0.999,,,,,,,,,,,,,,,,,,,,,,,5c59866b2e4cc90001d08a07,60a6c71e03f262ee5091e9fa,2021-05-21_15h38.07.992,Simcolourproject_2stim_asymm_v5,2020.2.10,Win32,60,60a5f9bf14d0aa2821c4bb84,,,,,569,78,-52,1,0,0,response3disk,,5,-1,-8,1,0,0,rectangle,-1,-8,1,0,0,1,"[121,26,162,24,247,263,232,309,24,226,216,228,66,267,304,72,135,209,47,212]",-1,-8,1,0,0,1,41,202,147,1,,,
,,,,,,,,,,,,,FF,,,,,,,,0.934,,,,,,,,,,,,,,,,,,,,,,,5c59866b2e4cc90001d08a07,60a6c71e03f262ee5091e9fa,2021-05-21_15h38.07.992,Simcolourproject_2stim_asymm_v5,2020.2.10,Win32,60,60a5f9bf14d0aa2821c4bb84,,,,,762,27,86,1,0,0,response1disk,,7,0,4,1,0,0,rectangle,0,4,1,0,0,2,"[121,26,162,24,247,263,232,309,24,226,216,228,66,267,304,72,135,209,47,212]",0,4,1,0,0,1,42,203,106,1,,,
,,,,,,,,,,,,,FF,,,,,,,,1.666,,,,,,,,,,,,,,,,,,,,,,,5c59866b2e4cc90001d08a07,60a6c71e03f262ee5091e9fa,2021-05-21_15h38.07.992,Simcolourproject_2stim_asymm_v5,2020.2.10,Win32,60,60a5f9bf14d0aa2821c4bb84,,,,,2296,63,-35,1,0,0,response3disk,,5,23,8,1,0,0,rectangle,23,8,1,0,0,0,"[121,26,162,24,247,263,232,309,24,226,216,228,66,267,304,72,135,209,47,212]",23,8,1,0,0,1,43,204,159,1,,,
,,,,,,,,,,,,,FF,,,,,,,,2.332,,,,,,,,,,,,,,,,,,,,,,,5c59866b2e4cc90001d08a07,60a6c71e03f262ee5091e9fa,2021-05-21_15h38.07.992,Simcolourproject_2stim_asymm_v5,2020.2.10,Win32,60,60a5f9bf14d0aa2821c4bb84,,,,,1603,-81,-55,1,0,0,response5disk,,5,-10,3,1,0,0,rectangle,-10,3,1,0,0,2,"[121,26,162,24,247,263,232,309,24,226,216,228,66,267,304,72,135,209,47,212]",-10,3,1,0,0,1,44,205,30,1,,,
,,,,,,,,,,,,,FF,,,,,,,,1.017,,,,,,,,,,,,,,,,,,,,,,,5c59866b2e4cc90001d08a07,60a6c71e03f262ee5091e9fa,2021-05-21_15h38.07.992,Simcolourproject_2stim_asymm_v5,2020.2.10,Win32,60,60a5f9bf14d0aa2821c4bb84,,,,,2369,-38,-92,1,0,0,response5disk,,3,-3,9,1,0,0,rectangle,-3,9,1,0,0,4,"[121,26,162,24,247,263,232,309,24,226,216,228,66,267,304,72,135,209,47,212]",-3,9,1,0,0,1,45,206,93,1,,,
,,,,,,,,,,,,,FF,,,,,,,,1.217,,,,,,,,,,,,,,,,,,,,,,,5c59866b2e4cc90001d08a07,60a6c71e03f262ee5091e9fa,2021-05-21_15h38.07.992,Simcolourproject_2stim_asymm_v5,2020.2.10,Win32,60,60a5f9bf14d0aa2821c4bb84,,,,,811,47,-91,1,0,0,response3disk,,4,-3,-2,1,0,0,rectangle,-3,-2,1,0,0,7,"[121,26,162,24,247,263,232,309,24,226,216,228,66,267,304,72,135,209,47,212]",-3,-2,1,0,0,1,46,207,123,1,,,
,,,,,,,,,,,,,FF,,,,,,,,1.183,,,,,,,,,,,,,,,,,,,,,,,5c59866b2e4cc90001d08a07,60a6c71e03f262ee5091e9fa,2021-05-21_15h38.07.992,Simcolourproject_2stim_asymm_v5,2020.2.10,Win32,60,60a5f9bf14d0aa2821c4bb84,,,,,3610,35,85,1,0,0,response1disk,,7,-3,7,1,0,0,rectangle,-78,-50,1,0,0,2,"[121,26,162,24,247,263,232,309,24,226,216,228,66,267,304,72,135,209,47,212]",-15,4,1,0,0,1,47,208,83,1,,response5disk_3,rectangle
,,,,,,,,,,,,,FF,,,,,,,,1.25,,,,,,,,,,,,,,,,,,,,,,,5c59866b2e4cc90001d08a07,60a6c71e03f262ee5091e9fa,2021-05-21_15h38.07.992,Simcolourproject_2stim_asymm_v5,2020.2.10,Win32,60,60a5f9bf14d0aa2821c4bb84,,,,,3747,-46,-86,1,0,0,response5disk,,3,-10,-4,1,0,0,rectangle,-10,-4,1,0,0,4,"[121,26,162,24,247,263,232,309,24,226,216,228,66,267,304,72,135,209,47,212]",-10,-4,1,0,0,1,48,209,69,1,,,
,,,,,,,,,,,,,FF,,,,,,,,1.283,,,,,,,,,,,,,,,,,,,,,,,5c59866b2e4cc90001d08a07,60a6c71e03f262ee5091e9fa,2021-05-21_15h38.07.992,Simcolourproject_2stim_asymm_v5,2020.2.10,Win32,60,60a5f9bf14d0aa2821c4bb84,,,,,1917,47,78,1,0,0,response1disk,,7,10,-1,1,0,0,rectangle,10,-1,1,0,0,3,"[121,26,162,24,247,263,232,309,24,226,216,228,66,267,304,72,135,209,47,212]",10,-1,1,0,0,1,49,210,86,1,,,
,,,,,,,,,,,,,FF,,,,,,,,1.533,,,,,,,,,,,,,,,,,,,,,,,5c59866b2e4cc90001d08a07,60a6c71e03f262ee5091e9fa,2021-05-21_15h38.07.992,Simcolourproject_2stim_asymm_v5,2020.2.10,Win32,60,60a5f9bf14d0aa2821c4bb84,,,,,792,46,81,1,0,0,response1disk,,7,4,-1,1,0,0,rectangle,49,-85,1,0,0,4,"[121,26,162,24,247,263,232,309,24,226,216,228,66,267,304,72,135,209,47,212]",-9,-1,1,0,0,1,50,211,94,1,,response3disk_3,rectangle
,,,,,,,,,,,,,FF,,,,,,,,1.3,,,,,,,,,,,,,,,,,,,,,,,5c59866b2e4cc90001d08a07,60a6c71e03f262ee5091e9fa,2021-05-21_15h38.07.992,Simcolourproject_2stim_asymm_v5,2020.2.10,Win32,60,60a5f9bf14d0aa2821c4bb84,,,,,1969,36,-85,1,0,0,response3disk,,4,2,12,1,0,0,rectangle,2,12,1,0,0,3,"[121,26,162,24,247,263,232,309,24,226,216,228,66,267,304,72,135,209,47,212]",2,12,1,0,0,1,51,212,0,1,,,
,,,,,,,,,,,,,FF,,,,,,,,0.734,,,,,,,,,,,,,,,,,,,,,,,5c59866b2e4cc90001d08a07,60a6c71e03f262ee5091e9fa,2021-05-21_15h38.07.992,Simcolourproject_2stim_asymm_v5,2020.2.10,Win32,60,60a5f9bf14d0aa2821c4bb84,,,,,3657,54,93,1,0,0,response1disk,,7,7,-7,1,0,0,rectangle,7,-7,1,0,0,2,"[121,26,162,24,247,263,232,309,24,226,216,228,66,267,304,72,135,209,47,212]",7,-7,1,0,0,1,52,213,115,1,,,
,,,,,,,,,,,,,FF,,,,,,,,0.683,,,,,,,,,,,,,,,,,,,,,,,5c59866b2e4cc90001d08a07,60a6c71e03f262ee5091e9fa,2021-05-21_15h38.07.992,Simcolourproject_2stim_asymm_v5,2020.2.10,Win32,60,60a5f9bf14d0aa2821c4bb84,,,,,767,44,84,1,0,0,response1disk,,7,9,6,1,0,0,rectangle,9,6,1,0,0,3,"[121,26,162,24,247,263,232,309,24,226,216,228,66,267,304,72,135,209,47,212]",9,6,1,0,0,1,53,214,134,1,,,
,,,,,,,,,,,,,FF,,,,,,,,0.634,,,,,,,,,,,,,,,,,,,,,,,5c59866b2e4cc90001d08a07,60a6c71e03f262ee5091e9fa,2021-05-21_15h38.07.992,Simcolourproject_2stim_asymm_v5,2020.2.10,Win32,60,60a5f9bf14d0aa2821c4bb84,,,,,1652,37,85,1,0,0,response1disk,,7,3,-3,1,0,0,rectangle,35,103,1,0,0,7,"[121,26,162,24,247,263,232,309,24,226,216,228,66,267,304,72,135,209,47,212]",5,1,1,0,0,1,54,215,39,1,,response1disk_3,rectangle
,,,,,,,,,,,,,FF,,,,,,,,0.85,,,,,,,,,,,,,,,,,,,,,,,5c59866b2e4cc90001d08a07,60a6c71e03f262ee5091e9fa,2021-05-21_15h38.07.992,Simcolourproject_2stim_asymm_v5,2020.2.10,Win32,60,60a5f9bf14d0aa2821c4bb84,,,,,3731,49,88,1,0,0,response1disk,,7,2,-1,1,0,0,rectangle,2,-1,1,0,0,4,"[121,26,162,24,247,263,232,309,24,226,216,228,66,267,304,72,135,209,47,212]",2,-1,1,0,0,1,55,216,144,1,,,
,,,,,,,,,,,,,FF,,,,,,,,2.633,,,,,,,,,,,,,,,,,,,,,,,5c59866b2e4cc90001d08a07,60a6c71e03f262ee5091e9fa,2021-05-21_15h38.07.992,Simcolourproject_2stim_asymm_v5,2020.2.10,Win32,60,60a5f9bf14d0aa2821c4bb84,,,,,2398,20,76,1,0,0,response1disk,,7,2,-4,1,0,0,rectangle,2,-4,1,0,0,5,"[121,26,162,24,247,263,232,309,24,226,216,228,66,267,304,72,135,209,47,212]",2,-4,1,0,0,1,56,217,108,1,,,
,,,,,,,,,,,,,FF,,,,,,,,0.75,,,,,,,,,,,,,,,,,,,,,,,5c59866b2e4cc90001d08a07,60a6c71e03f262ee5091e9fa,2021-05-21_15h38.07.992,Simcolourproject_2stim_asymm_v5,2020.2.10,Win32,60,60a5f9bf14d0aa2821c4bb84,,,,,4365,-45,97,1,0,0,response7disk,,0,2,-8,1,0,0,rectangle,2,-8,1,0,0,4,"[121,26,162,24,247,263,232,309,24,226,216,228,66,267,304,72,135,209,47,212]",2,-8,1,0,0,1,57,218,53,1,,,
,,,,,,,,,,,,,FF,,,,,,,,1.368,,,,,,,,,,,,,,,,,,,,,,,5c59866b2e4cc90001d08a07,60a6c71e03f262ee5091e9fa,2021-05-21_15h38.07.992,Simcolourproject_2stim_asymm_v5,2020.2.10,Win32,60,60a5f9bf14d0aa2821c4bb84,,,,,2049,73,24,1,0,0,response1disk,,6,3,3,1,0,0,rectangle,3,3,1,0,0,2,"[121,26,162,24,247,263,232,309,24,226,216,228,66,267,304,72,135,209,47,212]",3,3,1,0,0,1,58,219,88,1,,,
,,,,,,,,,,,,,FF,,,,,,,,1.767,,,,,,,,,,,,,,,,,,,,,,,5c59866b2e4cc90001d08a07,60a6c71e03f262ee5091e9fa,2021-05-21_15h38.07.992,Simcolourproject_2stim_asymm_v5,2020.2.10,Win32,60,60a5f9bf14d0aa2821c4bb84,,,,,4170,-84,-50,1,0,0,response5disk,,6,10,-4,1,0,0,rectangle,10,-4,1,0,0,7,"[121,26,162,24,247,263,232,309,24,226,216,228,66,267,304,72,135,209,47,212]",10,-4,1,0,0,1,59,220,29,1,,,
,,,,,,,,,,,,,FF,,,,,,,,0.718,,,,,,,,,,,,,,,,,,,,,,,5c59866b2e4cc90001d08a07,60a6c71e03f262ee5091e9fa,2021-05-21_15h38.07.992,Simcolourproject_2stim_asymm_v5,2020.2.10,Win32,60,60a5f9bf14d0aa2821c4bb84,,,,,451,36,92,1,0,0,response1disk,,7,15,-7,1,0,0,rectangle,15,-7,1,0,0,2,"[121,26,162,24,247,263,232,309,24,226,216,228,66,267,304,72,135,209,47,212]",15,-7,1,0,0,1,60,221,76,1,,,
,,,,,,,,,,,,,FF,,,,,,,,0.765,,,,,,,,,,,,,,,,,,,,,,,5c59866b2e4cc90001d08a07,60a6c71e03f262ee5091e9fa,2021-05-21_15h38.07.992,Simcolourproject_2stim_asymm_v5,2020.2.10,Win32,60,60a5f9bf14d0aa2821c4bb84,,,,,3724,43,83,1,0,0,response1disk,,7,-9,-3,1,0,0,rectangle,-9,-3,1,0,0,3,"[121,26,162,24,247,263,232,309,24,226,216,228,66,267,304,72,135,209,47,212]",-9,-3,1,0,0,1,61,222,96,1,,,
,,,,,,,,,,,,,FF,,,,,,,,0.634,,,,,,,,,,,,,,,,,,,,,,,5c59866b2e4cc90001d08a07,60a6c71e03f262ee5091e9fa,2021-05-21_15h38.07.992,Simcolourproject_2stim_asymm_v5,2020.2.10,Win32,60,60a5f9bf14d0aa2821c4bb84,,,,,1104,38,79,1,0,0,response1disk,,7,20,1,1,0,0,rectangle,20,1,1,0,0,5,"[121,26,162,24,247,263,232,309,24,226,216,228,66,267,304,72,135,209,47,212]",20,1,1,0,0,1,62,223,3,1,,,
,,,,,,,,,,,,,FF,,,,,,,,2.35,,,,,,,,,,,,,,,,,,,,,,,5c59866b2e4cc90001d08a07,60a6c71e03f262ee5091e9fa,2021-05-21_15h38.07.992,Simcolourproject_2stim_asymm_v5,2020.2.10,Win32,60,60a5f9bf14d0aa2821c4bb84,,,,,26,93,53,1,0,0,response1disk,,6,-12,4,1,0,0,rectangle,-12,4,1,0,0,0,"[121,26,162,24,247,263,232,309,24,226,216,228,66,267,304,72,135,209,47,212]",-12,4,1,0,0,1,63,224,103,1,,,
,,,,,,,,,,,,,FF,,,,,,,,0.732,,,,,,,,,,,,,,,,,,,,,,,5c59866b2e4cc90001d08a07,60a6c71e03f262ee5091e9fa,2021-05-21_15h38.07.992,Simcolourproject_2stim_asymm_v5,2020.2.10,Win32,60,60a5f9bf14d0aa2821c4bb84,,,,,3369,43,74,1,0,0,response1disk,,7,10,-4,1,0,0,rectangle,97,-41,1,0,0,5,"[121,26,162,24,247,263,232,309,24,226,216,228,66,267,304,72,135,209,47,212]",1,-6,1,0,0,1,64,225,125,1,,response3disk_3,rectangle
,,,,,,,,,,,,,FF,,,,,,,,0.8,,,,,,,,,,,,,,,,,,,,,,,5c59866b2e4cc90001d08a07,60a6c71e03f262ee5091e9fa,2021-05-21_15h38.07.992,Simcolourproject_2stim_asymm_v5,2020.2.10,Win32,60,60a5f9bf14d0aa2821c4bb84,,,,,1710,44,81,1,0,0,response1disk,,7,8,-4,1,0,0,rectangle,8,-4,1,0,0,6,"[121,26,162,24,247,263,232,309,24,226,216,228,66,267,304,72,135,209,47,212]",8,-4,1,0,0,1,65,226,80,1,,,
,,,,,,,,,,,,,FF,,,,,,,,0.668,,,,,,,,,,,,,,,,,,,,,,,5c59866b2e4cc90001d08a07,60a6c71e03f262ee5091e9fa,2021-05-21_15h38.07.992,Simcolourproject_2stim_asymm_v5,2020.2.10,Win32,60,60a5f9bf14d0aa2821c4bb84,,,,,2964,35,75,1,0,0,response1disk,,7,-1,-1,1,0,0,rectangle,33,-94,1,0,0,4,"[121,26,162,24,247,263,232,309,24,226,216,228,66,267,304,72,135,209,47,212]",4,3,1,0,0,1,66,227,85,1,,response3disk_3,rectangle
,,,,,,,,,,,,,FF,,,,,,,,0.7,,,,,,,,,,,,,,,,,,,,,,,5c59866b2e4cc90001d08a07,60a6c71e03f262ee5091e9fa,2021-05-21_15h38.07.992,Simcolourproject_2stim_asymm_v5,2020.2.10,Win32,60,60a5f9bf14d0aa2821c4bb84,,,,,2929,40,68,1,0,0,response1disk,,7,18,-1,1,0,0,rectangle,18,-1,1,0,0,2,"[121,26,162,24,247,263,232,309,24,226,216,228,66,267,304,72,135,209,47,212]",18,-1,1,0,0,1,67,228,153,1,,,
,,,,,,,,,,,,,FF,,,,,,,,0.85,,,,,,,,,,,,,,,,,,,,,,,5c59866b2e4cc90001d08a07,60a6c71e03f262ee5091e9fa,2021-05-21_15h38.07.992,Simcolourproject_2stim_asymm_v5,2020.2.10,Win32,60,60a5f9bf14d0aa2821c4bb84,,,,,62,36,60,1,0,0,response1disk,,7,20,-2,1,0,0,rectangle,20,-2,1,0,0,7,"[121,26,162,24,247,263,232,309,24,226,216,228,66,267,304,72,135,209,47,212]",20,-2,1,0,0,1,68,229,19,1,,,
,,,,,,,,,,,,,FF,,,,,,,,0.967,,,,,,,,,,,,,,,,,,,,,,,5c59866b2e4cc90001d08a07,60a6c71e03f262ee5091e9fa,2021-05-21_15h38.07.992,Simcolourproject_2stim_asymm_v5,2020.2.10,Win32,60,60a5f9bf14d0aa2821c4bb84,,,,,3993,-44,75,1,0,0,response7disk,,0,7,0,1,0,0,rectangle,7,0,1,0,0,4,"[121,26,162,24,247,263,232,309,24,226,216,228,66,267,304,72,135,209,47,212]",7,0,1,0,0,1,69,230,44,1,,,
,,,,,,,,,,,,,FF,,,,,,,,1.527,,,,,,,,,,,,,,,,,,,,,,,5c59866b2e4cc90001d08a07,60a6c71e03f262ee5091e9fa,2021-05-21_15h38.07.992,Simcolourproject_2stim_asymm_v5,2020.2.10,Win32,60,60a5f9bf14d0aa2821c4bb84,,,,,3399,-55,-73,1,0,0,response5disk,,3,-2,3,1,0,0,rectangle,-62,92,1,0,0,0,"[121,26,162,24,247,263,232,309,24,226,216,228,66,267,304,72,135,209,47,212]",2,-4,1,0,0,1,70,231,72,1,,response7disk_3,rectangle
,,,,,,,,,,,,,FF,,,,,,,,6.364,,,,,,,,,,,,,,,,,,,,,,,5c59866b2e4cc90001d08a07,60a6c71e03f262ee5091e9fa,2021-05-21_15h38.07.992,Simcolourproject_2stim_asymm_v5,2020.2.10,Win32,60,60a5f9bf14d0aa2821c4bb84,,,,,4093,77,-36,1,0,0,response3disk,,5,15,3,1,0,0,rectangle,15,3,1,0,0,0,"[121,26,162,24,247,263,232,309,24,226,216,228,66,267,304,72,135,209,47,212]",15,3,1,0,0,1,71,232,63,1,,,
,,,,,,,,,,,,,FF,,,,,,,,1.949,,,,,,,,,,,,,,,,,,,,,,,5c59866b2e4cc90001d08a07,60a6c71e03f262ee5091e9fa,2021-05-21_15h38.07.992,Simcolourproject_2stim_asymm_v5,2020.2.10,Win32,60,60a5f9bf14d0aa2821c4bb84,,,,,3559,-91,-56,1,0,0,response5disk,,5,-9,2,1,0,0,rectangle,-9,2,1,0,0,3,"[121,26,162,24,247,263,232,309,24,226,216,228,66,267,304,72,135,209,47,212]",-9,2,1,0,0,1,72,233,57,1,,,
,,,,,,,,,,,,,FF,,,,,,,,1.116,,,,,,,,,,,,,,,,,,,,,,,5c59866b2e4cc90001d08a07,60a6c71e03f262ee5091e9fa,2021-05-21_15h38.07.992,Simcolourproject_2stim_asymm_v5,2020.2.10,Win32,60,60a5f9bf14d0aa2821c4bb84,,,,,1989,46,87,1,0,0,response1disk,,7,5,8,1,0,0,rectangle,5,8,1,0,0,2,"[121,26,162,24,247,263,232,309,24,226,216,228,66,267,304,72,135,209,47,212]",5,8,1,0,0,1,73,234,128,1,,,
,,,,,,,,,,,,,FF,,,,,,,,2.099,,,,,,,,,,,,,,,,,,,,,,,5c59866b2e4cc90001d08a07,60a6c71e03f262ee5091e9fa,2021-05-21_15h38.07.992,Simcolourproject_2stim_asymm_v5,2020.2.10,Win32,60,60a5f9bf14d0aa2821c4bb84,,,,,1906,91,-46,1,0,0,response3disk,,5,2,-1,1,0,0,rectangle,2,-1,1,0,0,2,"[121,26,162,24,247,263,232,309,24,226,216,228,66,267,304,72,135,209,47,212]",2,-1,1,0,0,1,74,235,92,1,,,
,,,,,,,,,,,,,FF,,,,,,,,1.05,,,,,,,,,,,,,,,,,,,,,,,5c59866b2e4cc90001d08a07,60a6c71e03f262ee5091e9fa,2021-05-21_15h38.07.992,Simcolourproject_2stim_asymm_v5,2020.2.10,Win32,60,60a5f9bf14d0aa2821c4bb84,,,,,1249,31,68,1,0,0,response1disk,,7,15,11,1,0,0,rectangle,15,11,1,0,0,6,"[121,26,162,24,247,263,232,309,24,226,216,228,66,267,304,72,135,209,47,212]",15,11,1,0,0,1,75,236,42,1,,,
,,,,,,,,,,,,,FF,,,,,,,,0.751,,,,,,,,,,,,,,,,,,,,,,,5c59866b2e4cc90001d08a07,60a6c71e03f262ee5091e9fa,2021-05-21_15h38.07.992,Simcolourproject_2stim_asymm_v5,2020.2.10,Win32,60,60a5f9bf14d0aa2821c4bb84,,,,,584,34,74,1,0,0,response1disk,,7,-2,2,1,0,0,rectangle,-2,2,1,0,0,1,"[121,26,162,24,247,263,232,309,24,226,216,228,66,267,304,72,135,209,47,212]",-2,2,1,0,0,1,76,237,113,1,,,
,,,,,,,,,,,,,FF,,,,,,,,0.716,,,,,,,,,,,,,,,,,,,,,,,5c59866b2e4cc90001d08a07,60a6c71e03f262ee5091e9fa,2021-05-21_15h38.07.992,Simcolourproject_2stim_asymm_v5,2020.2.10,Win32,60,60a5f9bf14d0aa2821c4bb84,,,,,3458,30,73,1,0,0,response1disk,,7,8,0,1,0,0,rectangle,8,0,1,0,0,4,"[121,26,162,24,247,263,232,309,24,226,216,228,66,267,304,72,135,209,47,212]",8,0,1,0,0,1,77,238,40,1,,,
,,,,,,,,,,,,,FF,,,,,,,,1.417,,,,,,,,,,,,,,,,,,,,,,,5c59866b2e4cc90001d08a07,60a6c71e03f262ee5091e9fa,2021-05-21_15h38.07.992,Simcolourproject_2stim_asymm_v5,2020.2.10,Win32,60,60a5f9bf14d0aa2821c4bb84,,,,,3998,-67,-49,1,0,0,response5disk,,7,-2,6,1,0,0,rectangle,-2,6,1,0,0,4,"[121,26,162,24,247,263,232,309,24,226,216,228,66,267,304,72,135,209,47,212]",-2,6,1,0,0,1,78,239,28,1,,,
,,,,,,,,,,,,,FF,,,,,,,,0.989,,,,,,,,,,,,,,,,,,,,,,,5c59866b2e4cc90001d08a07,60a6c71e03f262ee5091e9fa,2021-05-21_15h38.07.992,Simcolourproject_2stim_asymm_v5,2020.2.10,Win32,60,60a5f9bf14d0aa2821c4bb84,,,,,1599,-36,-90,1,0,0,response5disk,,3,1,-6,1,0,0,rectangle,1,-6,1,0,0,2,"[121,26,162,24,247,263,232,309,24,226,216,228,66,267,304,72,135,209,47,212]",1,-6,1,0,0,1,79,240,54,1,,,
,,,,,,,,,,,,,FF,,,,,,,,1.134,,,,,,,,,,,,,,,,,,,,,,,5c59866b2e4cc90001d08a07,60a6c71e03f262ee5091e9fa,2021-05-21_15h38.07.992,Simcolourproject_2stim_asymm_v5,2020.2.10,Win32,60,60a5f9bf14d0aa2821c4bb84,,,,,773,34,64,1,0,0,response1disk,,7,3,-4,1,0,0,rectangle,3,-4,1,0,0,7,"[121,26,162,24,247,263,232,309,24,226,216,228,66,267,304,72,135,209,47,212]",3,-4,1,0,0,1,80,241,150,1,,,
,,,,,,,,,,,,,FF,,,,,,,,0.817,,,,,,,,,,,,,,,,,,,,,,,5c59866b2e4cc90001d08a07,60a6c71e03f262ee5091e9fa,2021-05-21_15h38.07.992,Simcolourproject_2stim_asymm_v5,2020.2.10,Win32,60,60a5f9bf14d0aa2821c4bb84,,,,,604,38,71,1,0,0,response1disk,,7,7,9,1,0,0,rectangle,7,9,1,0,0,7,"[121,26,162,24,247,263,232,309,24,226,216,228,66,267,304,72,135,209,47,212]",7,9,1,0,0,1,81,242,67,1,,,
,,,,,,,,,,,,,FF,,,,,,,,0.683,,,,,,,,,,,,,,,,,,,,,,,5c59866b2e4cc90001d08a07,60a6c71e03f262ee5091e9fa,2021-05-21_15h38.07.992,Simcolourproject_2stim_asymm_v5,2020.2.10,Win32,60,60a5f9bf14d0aa2821c4bb84,,,,,4063,34,77,1,0,0,response1disk,,7,-1,-3,1,0,0,rectangle,-1,-3,1,0,0,0,"[121,26,162,24,247,263,232,309,24,226,216,228,66,267,304,72,135,209,47,212]",-1,-3,1,0,0,1,82,243,109,1,,,
,,,,,,,,,,,,,FF,,,,,,,,1.133,,,,,,,,,,,,,,,,,,,,,,,5c59866b2e4cc90001d08a07,60a6c71e03f262ee5091e9fa,2021-05-21_15h38.07.992,Simcolourproject_2stim_asymm_v5,2020.2.10,Win32,60,60a5f9bf14d0aa2821c4bb84,,,,,3603,-37,-86,1,0,0,response5disk,,3,8,-6,1,0,0,rectangle,8,-6,1,0,0,0,"[121,26,162,24,247,263,232,309,24,226,216,228,66,267,304,72,135,209,47,212]",8,-6,1,0,0,1,83,244,10,1,,,
,,,,,,,,,,,,,FF,,,,,,,,0.766,,,,,,,,,,,,,,,,,,,,,,,5c59866b2e4cc90001d08a07,60a6c71e03f262ee5091e9fa,2021-05-21_15h38.07.992,Simcolourproject_2stim_asymm_v5,2020.2.10,Win32,60,60a5f9bf14d0aa2821c4bb84,,,,,852,44,77,1,0,0,response1disk,,7,10,3,1,0,0,rectangle,10,3,1,0,0,2,"[121,26,162,24,247,263,232,309,24,226,216,228,66,267,304,72,135,209,47,212]",10,3,1,0,0,1,84,245,129,1,,,
,,,,,,,,,,,,,FF,,,,,,,,2.132,,,,,,,,,,,,,,,,,,,,,,,5c59866b2e4cc90001d08a07,60a6c71e03f262ee5091e9fa,2021-05-21_15h38.07.992,Simcolourproject_2stim_asymm_v5,2020.2.10,Win32,60,60a5f9bf14d0aa2821c4bb84,,,,,3423,48,-84,1,0,0,response3disk,,4,19,1,1,0,0,rectangle,-85,47,1,0,0,1,"[121,26,162,24,247,263,232,309,24,226,216,228,66,267,304,72,135,209,47,212]",1,8,1,0,0,1,85,246,91,1,,response7disk_3,rectangle
,,,,,,,,,,,,,FF,,,,,,,,1.966,,,,,,,,,,,,,,,,,,,,,,,5c59866b2e4cc90001d08a07,60a6c71e03f262ee5091e9fa,2021-05-21_15h38.07.992,Simcolourproject_2stim_asymm_v5,2020.2.10,Win32,60,60a5f9bf14d0aa2821c4bb84,,,,,894,89,-36,1,0,0,response3disk,,5,-12,-2,1,0,0,rectangle,-12,-2,1,0,0,7,"[121,26,162,24,247,263,232,309,24,226,216,228,66,267,304,72,135,209,47,212]",-12,-2,1,0,0,1,86,247,79,1,,,
,,,,,,,,,,,,,FF,,,,,,,,1.832,,,,,,,,,,,,,,,,,,,,,,,5c59866b2e4cc90001d08a07,60a6c71e03f262ee5091e9fa,2021-05-21_15h38.07.992,Simcolourproject_2stim_asymm_v5,2020.2.10,Win32,60,60a5f9bf14d0aa2821c4bb84,,,,,3159,79,35,1,0,0,response1disk,,6,2,-6,1,0,0,rectangle,2,-6,1,0,0,6,"[121,26,162,24,247,263,232,309,24,226,216,228,66,267,304,72,135,209,47,212]",2,-6,1,0,0,1,87,248,155,1,,,
,,,,,,,,,,,,,FF,,,,,,,,0.734,,,,,,,,,,,,,,,,,,,,,,,5c59866b2e4cc90001d08a07,60a6c71e03f262ee5091e9fa,2021-05-21_15h38.07.992,Simcolourproject_2stim_asymm_v5,2020.2.10,Win32,60,60a5f9bf14d0aa2821c4bb84,,,,,1173,45,94,1,0,0,response1disk,,7,11,1,1,0,0,rectangle,11,1,1,0,0,4,"[121,26,162,24,247,263,232,309,24,226,216,228,66,267,304,72,135,209,47,212]",11,1,1,0,0,1,88,249,65,1,,,
,,,,,,,,,,,,,FF,,,,,,,,0.85,,,,,,,,,,,,,,,,,,,,,,,5c59866b2e4cc90001d08a07,60a6c71e03f262ee5091e9fa,2021-05-21_15h38.07.992,Simcolourproject_2stim_asymm_v5,2020.2.10,Win32,60,60a5f9bf14d0aa2821c4bb84,,,,,3256,49,68,1,0,0,response1disk,,7,11,1,1,0,0,rectangle,11,1,1,0,0,1,"[121,26,162,24,247,263,232,309,24,226,216,228,66,267,304,72,135,209,47,212]",11,1,1,0,0,1,89,250,151,1,,,
,,,,,,,,,,,,,FF,,,,,,,,1.833,,,,,,,,,,,,,,,,,,,,,,,5c59866b2e4cc90001d08a07,60a6c71e03f262ee5091e9fa,2021-05-21_15h38.07.992,Simcolourproject_2stim_asymm_v5,2020.2.10,Win32,60,60a5f9bf14d0aa2821c4bb84,,,,,1057,-52,-82,1,0,0,response5disk,,3,4,-5,1,0,0,rectangle,4,-5,1,0,0,6,"[121,26,162,24,247,263,232,309,24,226,216,228,66,267,304,72,135,209,47,212]",4,-5,1,0,0,1,90,251,5,1,,,
,,,,,,,,,,,,,FF,,,,,,,,0.85,,,,,,,,,,,,,,,,,,,,,,,5c59866b2e4cc90001d08a07,60a6c71e03f262ee5091e9fa,2021-05-21_15h38.07.992,Simcolourproject_2stim_asymm_v5,2020.2.10,Win32,60,60a5f9bf14d0aa2821c4bb84,,,,,4135,33,85,1,0,0,response1disk,,7,4,-1,1,0,0,rectangle,4,-1,1,0,0,4,"[121,26,162,24,247,263,232,309,24,226,216,228,66,267,304,72,135,209,47,212]",4,-1,1,0,0,1,91,252,60,1,,,
