key_resp.keys,key_resp.rt,key_resp_14.keys,key_resp_14.rt,key_resp_15.keys,key_resp_15.rt,key_resp_17.keys,key_resp_17.rt,key_resp_9.keys,key_resp_9.rt,key_resp_10.keys,key_resp_10.rt,practice_comparison,Ecc,mouse_5.x,mouse_5.y,mouse_5.leftButton,mouse_5.midButton,mouse_5.rightButton,mouse_5.clicked_name,pracsimilarity,response_time,mouse_10.x,mouse_10.y,mouse_10.leftButton,mouse_10.midButton,mouse_10.rightButton,mouse_10.clicked_name,mouse_7.x,mouse_7.y,mouse_7.leftButton,mouse_7.midButton,mouse_7.rightButton,mouse_7.clicked_name,catchnumberprac,mouse_6.x,mouse_6.y,mouse_6.leftButton,mouse_6.midButton,mouse_6.rightButton,mouse_6.clicked_name,duringprac.thisRepN,duringprac.thisTrialN,duringprac.thisN,duringprac.thisIndex,duringprac.ran,participant,session,date,expName,psychopyVersion,OS,frameRate,study_id,key_resp_22.keys,key_resp_22.rt,realcomparison,mouse.x,mouse.y,mouse.leftButton,mouse.midButton,mouse.rightButton,mouse.clicked_name,Colour2,similarity,mouse_2.x,mouse_2.y,mouse_2.leftButton,mouse_2.midButton,mouse_2.rightButton,mouse_2.clicked_name,mouse_3.x,mouse_3.y,mouse_3.leftButton,mouse_3.midButton,mouse_3.rightButton,catchnumber,catchtrialorder,mouse_11.x,mouse_11.y,mouse_11.leftButton,mouse_11.midButton,mouse_11.rightButton,trials_2.thisRepN,trials_2.thisTrialN,trials_2.thisN,trials_2.thisIndex,trials_2.ran,Colour1,mouse_3.clicked_name,mouse_11.clicked_name
space,2.501,space,9.668,space,30.885,space,2.626,space,1.293,space,2.788,68,FF,229.5,116.5,1,0,0,response1disk_5,6,10.671,-23.5,-6.5,1,0,0,rectangle_8,-80.5,229.5,1,0,0,response7disk_7,0,-3.5,-0.5,1,0,0,rectangle_4,0,0,0,3,1,5c5cad3e4ee81200018eafe2,60a7d8a0e00e07df34c64a83,2021-05-21_17h00.15.713,Simcolourproject_2stim_asymm_v5,2020.2.10,Win32,60,60a5f9bf14d0aa2821c4bb84,,,,,,,,,,,,,,,,,,,,,,,,,,,,,,,,,,,,,
,,,,,,,,,,,,88,PF,163.5,249.5,1,0,0,response1disk_5,7,4.05,-20.5,23.5,1,0,0,rectangle_8,-20.5,23.5,1,0,0,,0,-20.5,23.5,1,0,0,,0,1,1,4,1,5c5cad3e4ee81200018eafe2,60a7d8a0e00e07df34c64a83,2021-05-21_17h00.15.713,Simcolourproject_2stim_asymm_v5,2020.2.10,Win32,60,60a5f9bf14d0aa2821c4bb84,,,,,,,,,,,,,,,,,,,,,,,,,,,,,,,,,,,,,
,,,,,,,,,,,,76,FF,256.5,-110.5,1,0,0,response3disk_5,5,4.55,-16.5,-20.5,1,0,0,rectangle_8,-156.5,263.5,1,0,0,response7disk_7,0,9.5,-30.5,1,0,0,rectangle_4,0,2,2,5,1,5c5cad3e4ee81200018eafe2,60a7d8a0e00e07df34c64a83,2021-05-21_17h00.15.713,Simcolourproject_2stim_asymm_v5,2020.2.10,Win32,60,60a5f9bf14d0aa2821c4bb84,,,,,,,,,,,,,,,,,,,,,,,,,,,,,,,,,,,,,
,,,,,,,,,,,,32,PF,156.5,-296.5,1,0,0,response3disk_5,4,4.261,-3.5,6.5,1,0,0,rectangle_8,-3.5,6.5,1,0,0,,0,-3.5,6.5,1,0,0,,0,3,3,6,1,5c5cad3e4ee81200018eafe2,60a7d8a0e00e07df34c64a83,2021-05-21_17h00.15.713,Simcolourproject_2stim_asymm_v5,2020.2.10,Win32,60,60a5f9bf14d0aa2821c4bb84,,,,,,,,,,,,,,,,,,,,,,,,,,,,,,,,,,,,,
,,,,,,,,,,,,35,PF,146.5,279.5,1,0,0,response1disk_5,7,1.8,3.5,6.5,1,0,0,rectangle_8,3.5,6.5,1,0,0,,0,3.5,6.5,1,0,0,,0,4,4,2,1,5c5cad3e4ee81200018eafe2,60a7d8a0e00e07df34c64a83,2021-05-21_17h00.15.713,Simcolourproject_2stim_asymm_v5,2020.2.10,Win32,60,60a5f9bf14d0aa2821c4bb84,,,,,,,,,,,,,,,,,,,,,,,,,,,,,,,,,,,,,
,,,,,,,,,,,,2,FF,109.5,-326.5,1,0,0,response3disk_5,4,2.1,-26.5,-3.5,1,0,0,rectangle_8,-26.5,-3.5,1,0,0,,0,-26.5,-3.5,1,0,0,,0,5,5,0,1,5c5cad3e4ee81200018eafe2,60a7d8a0e00e07df34c64a83,2021-05-21_17h00.15.713,Simcolourproject_2stim_asymm_v5,2020.2.10,Win32,60,60a5f9bf14d0aa2821c4bb84,,,,,,,,,,,,,,,,,,,,,,,,,,,,,,,,,,,,,
,,,,,,,,,,,,159,PF,189.5,286.5,1,0,0,response1disk_5,7,1.651,6.5,-13.5,1,0,0,rectangle_8,6.5,-13.5,1,0,0,,0,6.5,-13.5,1,0,0,,0,6,6,1,1,5c5cad3e4ee81200018eafe2,60a7d8a0e00e07df34c64a83,2021-05-21_17h00.15.713,Simcolourproject_2stim_asymm_v5,2020.2.10,Win32,60,60a5f9bf14d0aa2821c4bb84,,,,,,,,,,,,,,,,,,,,,,,,,,,,,,,,,,,,,
,,,,,,,,,,,,,FF,,,,,,,,1.746,,,,,,,,,,,,,,,,,,,,,,,,,5c5cad3e4ee81200018eafe2,60a7d8a0e00e07df34c64a83,2021-05-21_17h00.15.713,Simcolourproject_2stim_asymm_v5,2020.2.10,Win32,60,60a5f9bf14d0aa2821c4bb84,space,3.367,2458,159.5,273.5,1,0,0,response1disk,,7,46.5,9.5,1,0,0,rectangle,46.5,9.5,1,0,0,0,"[71,135,167,160,183,133,22,49,147,141,109,62,281,40,58,188,125,148,200,19]",46.5,9.5,1,0,0,0,0,0,77,1,,,
,,,,,,,,,,,,,FF,,,,,,,,2.121,,,,,,,,,,,,,,,,,,,,,,,,,5c5cad3e4ee81200018eafe2,60a7d8a0e00e07df34c64a83,2021-05-21_17h00.15.713,Simcolourproject_2stim_asymm_v5,2020.2.10,Win32,60,60a5f9bf14d0aa2821c4bb84,,,3632,129.5,229.5,1,0,0,response1disk,,7,23.5,-3.5,1,0,0,rectangle,23.5,-3.5,1,0,0,4,"[71,135,167,160,183,133,22,49,147,141,109,62,281,40,58,188,125,148,200,19]",23.5,-3.5,1,0,0,0,1,1,124,1,,,
,,,,,,,,,,,,,FF,,,,,,,,2.65,,,,,,,,,,,,,,,,,,,,,,,,,5c5cad3e4ee81200018eafe2,60a7d8a0e00e07df34c64a83,2021-05-21_17h00.15.713,Simcolourproject_2stim_asymm_v5,2020.2.10,Win32,60,60a5f9bf14d0aa2821c4bb84,,,3676,159.5,-216.5,1,0,0,response3disk,,4,3.5,-6.5,1,0,0,rectangle,3.5,-6.5,1,0,0,0,"[71,135,167,160,183,133,22,49,147,141,109,62,281,40,58,188,125,148,200,19]",3.5,-6.5,1,0,0,0,2,2,11,1,,,
,,,,,,,,,,,,,FF,,,,,,,,1.931,,,,,,,,,,,,,,,,,,,,,,,,,5c5cad3e4ee81200018eafe2,60a7d8a0e00e07df34c64a83,2021-05-21_17h00.15.713,Simcolourproject_2stim_asymm_v5,2020.2.10,Win32,60,60a5f9bf14d0aa2821c4bb84,,,3374,-83.5,-270.5,1,0,0,response5disk,,3,33.5,16.5,1,0,0,rectangle,33.5,16.5,1,0,0,6,"[71,135,167,160,183,133,22,49,147,141,109,62,281,40,58,188,125,148,200,19]",33.5,16.5,1,0,0,0,3,3,76,1,,,
,,,,,,,,,,,,,FF,,,,,,,,1.719,,,,,,,,,,,,,,,,,,,,,,,,,5c5cad3e4ee81200018eafe2,60a7d8a0e00e07df34c64a83,2021-05-21_17h00.15.713,Simcolourproject_2stim_asymm_v5,2020.2.10,Win32,60,60a5f9bf14d0aa2821c4bb84,,,2681,253.5,-206.5,1,0,0,response3disk,,5,6.5,-3.5,1,0,0,rectangle,6.5,-3.5,1,0,0,0,"[71,135,167,160,183,133,22,49,147,141,109,62,281,40,58,188,125,148,200,19]",6.5,-3.5,1,0,0,0,4,4,118,1,,,
,,,,,,,,,,,,,FF,,,,,,,,1.921,,,,,,,,,,,,,,,,,,,,,,,,,5c5cad3e4ee81200018eafe2,60a7d8a0e00e07df34c64a83,2021-05-21_17h00.15.713,Simcolourproject_2stim_asymm_v5,2020.2.10,Win32,60,60a5f9bf14d0aa2821c4bb84,,,391,163.5,253.5,1,0,0,response1disk,,7,23.5,-0.5,1,0,0,rectangle,23.5,-0.5,1,0,0,2,"[71,135,167,160,183,133,22,49,147,141,109,62,281,40,58,188,125,148,200,19]",23.5,-0.5,1,0,0,0,5,5,137,1,,,
,,,,,,,,,,,,,FF,,,,,,,,2.181,,,,,,,,,,,,,,,,,,,,,,,,,5c5cad3e4ee81200018eafe2,60a7d8a0e00e07df34c64a83,2021-05-21_17h00.15.713,Simcolourproject_2stim_asymm_v5,2020.2.10,Win32,60,60a5f9bf14d0aa2821c4bb84,,,3245,-80.5,-276.5,1,0,0,response5disk,,3,26.5,9.5,1,0,0,rectangle,26.5,9.5,1,0,0,4,"[71,135,167,160,183,133,22,49,147,141,109,62,281,40,58,188,125,148,200,19]",26.5,9.5,1,0,0,0,6,6,32,1,,,
,,,,,,,,,,,,,FF,,,,,,,,1.73,,,,,,,,,,,,,,,,,,,,,,,,,5c5cad3e4ee81200018eafe2,60a7d8a0e00e07df34c64a83,2021-05-21_17h00.15.713,Simcolourproject_2stim_asymm_v5,2020.2.10,Win32,60,60a5f9bf14d0aa2821c4bb84,,,740,246.5,-183.5,1,0,0,response3disk,,5,-16.5,-3.5,1,0,0,rectangle,-16.5,-3.5,1,0,0,2,"[71,135,167,160,183,133,22,49,147,141,109,62,281,40,58,188,125,148,200,19]",-16.5,-3.5,1,0,0,0,7,7,6,1,,,
,,,,,,,,,,,,,FF,,,,,,,,1.62,,,,,,,,,,,,,,,,,,,,,,,,,5c5cad3e4ee81200018eafe2,60a7d8a0e00e07df34c64a83,2021-05-21_17h00.15.713,Simcolourproject_2stim_asymm_v5,2020.2.10,Win32,60,60a5f9bf14d0aa2821c4bb84,,,3832,259.5,-73.5,1,0,0,response3disk,,5,43.5,-0.5,1,0,0,rectangle,43.5,-0.5,1,0,0,0,"[71,135,167,160,183,133,22,49,147,141,109,62,281,40,58,188,125,148,200,19]",43.5,-0.5,1,0,0,0,8,8,24,1,,,
,,,,,,,,,,,,,FF,,,,,,,,1.95,,,,,,,,,,,,,,,,,,,,,,,,,5c5cad3e4ee81200018eafe2,60a7d8a0e00e07df34c64a83,2021-05-21_17h00.15.713,Simcolourproject_2stim_asymm_v5,2020.2.10,Win32,60,60a5f9bf14d0aa2821c4bb84,,,3006,123.5,-283.5,1,0,0,response3disk,,4,26.5,-20.5,1,0,0,rectangle,26.5,-20.5,1,0,0,4,"[71,135,167,160,183,133,22,49,147,141,109,62,281,40,58,188,125,148,200,19]",26.5,-20.5,1,0,0,0,9,9,1,1,,,
,,,,,,,,,,,,,FF,,,,,,,,1.266,,,,,,,,,,,,,,,,,,,,,,,,,5c5cad3e4ee81200018eafe2,60a7d8a0e00e07df34c64a83,2021-05-21_17h00.15.713,Simcolourproject_2stim_asymm_v5,2020.2.10,Win32,60,60a5f9bf14d0aa2821c4bb84,,,3183,186.5,273.5,1,0,0,response1disk,,7,33.5,3.5,1,0,0,rectangle,33.5,3.5,1,0,0,4,"[71,135,167,160,183,133,22,49,147,141,109,62,281,40,58,188,125,148,200,19]",33.5,3.5,1,0,0,0,10,10,134,1,,,
,,,,,,,,,,,,,FF,,,,,,,,0.83,,,,,,,,,,,,,,,,,,,,,,,,,5c5cad3e4ee81200018eafe2,60a7d8a0e00e07df34c64a83,2021-05-21_17h00.15.713,Simcolourproject_2stim_asymm_v5,2020.2.10,Win32,60,60a5f9bf14d0aa2821c4bb84,,,1929,133.5,269.5,1,0,0,response1disk,,7,26.5,3.5,1,0,0,rectangle,26.5,3.5,1,0,0,3,"[71,135,167,160,183,133,22,49,147,141,109,62,281,40,58,188,125,148,200,19]",26.5,3.5,1,0,0,0,11,11,128,1,,,
,,,,,,,,,,,,,FF,,,,,,,,1.73,,,,,,,,,,,,,,,,,,,,,,,,,5c5cad3e4ee81200018eafe2,60a7d8a0e00e07df34c64a83,2021-05-21_17h00.15.713,Simcolourproject_2stim_asymm_v5,2020.2.10,Win32,60,60a5f9bf14d0aa2821c4bb84,,,2417,113.5,203.5,1,0,0,response1disk,,7,13.5,-26.5,1,0,0,rectangle,13.5,-26.5,1,0,0,5,"[71,135,167,160,183,133,22,49,147,141,109,62,281,40,58,188,125,148,200,19]",13.5,-26.5,1,0,0,0,12,12,55,1,,,
,,,,,,,,,,,,,FF,,,,,,,,1.771,,,,,,,,,,,,,,,,,,,,,,,,,5c5cad3e4ee81200018eafe2,60a7d8a0e00e07df34c64a83,2021-05-21_17h00.15.713,Simcolourproject_2stim_asymm_v5,2020.2.10,Win32,60,60a5f9bf14d0aa2821c4bb84,,,4327,-120.5,193.5,1,0,0,response7disk,,0,3.5,9.5,1,0,0,rectangle,3.5,9.5,1,0,0,0,"[71,135,167,160,183,133,22,49,147,141,109,62,281,40,58,188,125,148,200,19]",3.5,9.5,1,0,0,0,13,13,103,1,,,
,,,,,,,,,,,,,FF,,,,,,,,1.901,,,,,,,,,,,,,,,,,,,,,,,,,5c5cad3e4ee81200018eafe2,60a7d8a0e00e07df34c64a83,2021-05-21_17h00.15.713,Simcolourproject_2stim_asymm_v5,2020.2.10,Win32,60,60a5f9bf14d0aa2821c4bb84,,,1416,263.5,139.5,1,0,0,response1disk,,6,9.5,19.5,1,0,0,rectangle,9.5,19.5,1,0,0,4,"[71,135,167,160,183,133,22,49,147,141,109,62,281,40,58,188,125,148,200,19]",9.5,19.5,1,0,0,0,14,14,159,1,,,
,,,,,,,,,,,,,FF,,,,,,,,1,,,,,,,,,,,,,,,,,,,,,,,,,5c5cad3e4ee81200018eafe2,60a7d8a0e00e07df34c64a83,2021-05-21_17h00.15.713,Simcolourproject_2stim_asymm_v5,2020.2.10,Win32,60,60a5f9bf14d0aa2821c4bb84,,,3027,116.5,246.5,1,0,0,response1disk,,7,6.5,9.5,1,0,0,rectangle,6.5,9.5,1,0,0,7,"[71,135,167,160,183,133,22,49,147,141,109,62,281,40,58,188,125,148,200,19]",6.5,9.5,1,0,0,0,15,15,57,1,,,
,,,,,,,,,,,,,FF,,,,,,,,3.8,,,,,,,,,,,,,,,,,,,,,,,,,5c5cad3e4ee81200018eafe2,60a7d8a0e00e07df34c64a83,2021-05-21_17h00.15.713,Simcolourproject_2stim_asymm_v5,2020.2.10,Win32,60,60a5f9bf14d0aa2821c4bb84,,,2837,116.5,-216.5,1,0,0,response3disk,,4,9.5,-3.5,1,0,0,rectangle,9.5,-3.5,1,0,0,6,"[71,135,167,160,183,133,22,49,147,141,109,62,281,40,58,188,125,148,200,19]",9.5,-3.5,1,0,0,0,16,16,59,1,,,
,,,,,,,,,,,,,FF,,,,,,,,1.449,,,,,,,,,,,,,,,,,,,,,,,,,5c5cad3e4ee81200018eafe2,60a7d8a0e00e07df34c64a83,2021-05-21_17h00.15.713,Simcolourproject_2stim_asymm_v5,2020.2.10,Win32,60,60a5f9bf14d0aa2821c4bb84,,,2862,279.5,119.5,1,0,0,response1disk,,6,13.5,16.5,1,0,0,rectangle,13.5,16.5,1,0,0,7,"[71,135,167,160,183,133,22,49,147,141,109,62,281,40,58,188,125,148,200,19]",13.5,16.5,1,0,0,0,17,17,113,1,,,
,,,,,,,,,,,,,FF,,,,,,,,1.12,,,,,,,,,,,,,,,,,,,,,,,,,5c5cad3e4ee81200018eafe2,60a7d8a0e00e07df34c64a83,2021-05-21_17h00.15.713,Simcolourproject_2stim_asymm_v5,2020.2.10,Win32,60,60a5f9bf14d0aa2821c4bb84,,,3313,159.5,239.5,1,0,0,response1disk,,7,3.5,-13.5,1,0,0,rectangle,-143.5,253.5,1,0,0,0,"[71,135,167,160,183,133,22,49,147,141,109,62,281,40,58,188,125,148,200,19]",9.5,16.5,1,0,0,0,18,18,75,1,,response7disk_3,rectangle
,,,,,,,,,,,,,FF,,,,,,,,1.45,,,,,,,,,,,,,,,,,,,,,,,,,5c5cad3e4ee81200018eafe2,60a7d8a0e00e07df34c64a83,2021-05-21_17h00.15.713,Simcolourproject_2stim_asymm_v5,2020.2.10,Win32,60,60a5f9bf14d0aa2821c4bb84,,,3794,156.5,-263.5,1,0,0,response3disk,,4,-13.5,9.5,1,0,0,rectangle,-13.5,9.5,1,0,0,7,"[71,135,167,160,183,133,22,49,147,141,109,62,281,40,58,188,125,148,200,19]",-13.5,9.5,1,0,0,0,19,19,142,1,,,
,,,,,,,,,,,,,FF,,,,,,,,1.121,,,,,,,,,,,,,,,,,,,,,,,,,5c5cad3e4ee81200018eafe2,60a7d8a0e00e07df34c64a83,2021-05-21_17h00.15.713,Simcolourproject_2stim_asymm_v5,2020.2.10,Win32,60,60a5f9bf14d0aa2821c4bb84,,,2860,253.5,73.5,1,0,0,response1disk,,6,26.5,19.5,1,0,0,rectangle,26.5,19.5,1,0,0,7,"[71,135,167,160,183,133,22,49,147,141,109,62,281,40,58,188,125,148,200,19]",26.5,19.5,1,0,0,0,20,20,4,1,,,
,,,,,,,,,,,,,FF,,,,,,,,0.9,,,,,,,,,,,,,,,,,,,,,,,,,5c5cad3e4ee81200018eafe2,60a7d8a0e00e07df34c64a83,2021-05-21_17h00.15.713,Simcolourproject_2stim_asymm_v5,2020.2.10,Win32,60,60a5f9bf14d0aa2821c4bb84,,,692,269.5,123.5,1,0,0,response1disk,,6,13.5,9.5,1,0,0,rectangle,269.5,133.5,1,0,0,6,"[71,135,167,160,183,133,22,49,147,141,109,62,281,40,58,188,125,148,200,19]",-3.5,9.5,1,0,0,0,21,21,86,1,,response1disk_3,rectangle
,,,,,,,,,,,,,FF,,,,,,,,1.383,,,,,,,,,,,,,,,,,,,,,,,,,5c5cad3e4ee81200018eafe2,60a7d8a0e00e07df34c64a83,2021-05-21_17h00.15.713,Simcolourproject_2stim_asymm_v5,2020.2.10,Win32,60,60a5f9bf14d0aa2821c4bb84,,,2558,256.5,93.5,1,0,0,response1disk,,6,33.5,16.5,1,0,0,rectangle,33.5,16.5,1,0,0,2,"[71,135,167,160,183,133,22,49,147,141,109,62,281,40,58,188,125,148,200,19]",33.5,16.5,1,0,0,0,22,22,13,1,,,
,,,,,,,,,,,,,FF,,,,,,,,0.95,,,,,,,,,,,,,,,,,,,,,,,,,5c5cad3e4ee81200018eafe2,60a7d8a0e00e07df34c64a83,2021-05-21_17h00.15.713,Simcolourproject_2stim_asymm_v5,2020.2.10,Win32,60,60a5f9bf14d0aa2821c4bb84,,,3500,126.5,279.5,1,0,0,response1disk,,7,3.5,-0.5,1,0,0,rectangle,3.5,-0.5,1,0,0,6,"[71,135,167,160,183,133,22,49,147,141,109,62,281,40,58,188,125,148,200,19]",3.5,-0.5,1,0,0,0,23,23,27,1,,,
,,,,,,,,,,,,,FF,,,,,,,,2.35,,,,,,,,,,,,,,,,,,,,,,,,,5c5cad3e4ee81200018eafe2,60a7d8a0e00e07df34c64a83,2021-05-21_17h00.15.713,Simcolourproject_2stim_asymm_v5,2020.2.10,Win32,60,60a5f9bf14d0aa2821c4bb84,,,3049,-90.5,-300.5,1,0,0,response5disk,,3,23.5,9.5,1,0,0,rectangle,23.5,9.5,1,0,0,6,"[71,135,167,160,183,133,22,49,147,141,109,62,281,40,58,188,125,148,200,19]",23.5,9.5,1,0,0,0,24,24,78,1,,,
,,,,,,,,,,,,,FF,,,,,,,,1.43,,,,,,,,,,,,,,,,,,,,,,,,,5c5cad3e4ee81200018eafe2,60a7d8a0e00e07df34c64a83,2021-05-21_17h00.15.713,Simcolourproject_2stim_asymm_v5,2020.2.10,Win32,60,60a5f9bf14d0aa2821c4bb84,,,1291,-156.5,-110.5,1,0,0,response5disk,,3,19.5,-6.5,1,0,0,rectangle,19.5,-6.5,1,0,0,3,"[71,135,167,160,183,133,22,49,147,141,109,62,281,40,58,188,125,148,200,19]",19.5,-6.5,1,0,0,0,25,25,147,1,,,
,,,,,,,,,,,,,FF,,,,,,,,1.2,,,,,,,,,,,,,,,,,,,,,,,,,5c5cad3e4ee81200018eafe2,60a7d8a0e00e07df34c64a83,2021-05-21_17h00.15.713,Simcolourproject_2stim_asymm_v5,2020.2.10,Win32,60,60a5f9bf14d0aa2821c4bb84,,,2416,119.5,-246.5,1,0,0,response3disk,,4,9.5,-6.5,1,0,0,rectangle,9.5,-6.5,1,0,0,2,"[71,135,167,160,183,133,22,49,147,141,109,62,281,40,58,188,125,148,200,19]",9.5,-6.5,1,0,0,0,26,26,151,1,,,
,,,,,,,,,,,,,FF,,,,,,,,2.379,,,,,,,,,,,,,,,,,,,,,,,,,5c5cad3e4ee81200018eafe2,60a7d8a0e00e07df34c64a83,2021-05-21_17h00.15.713,Simcolourproject_2stim_asymm_v5,2020.2.10,Win32,60,60a5f9bf14d0aa2821c4bb84,,,2533,93.5,-223.5,1,0,0,response3disk,,4,9.5,-10.5,1,0,0,rectangle,9.5,-10.5,1,0,0,3,"[71,135,167,160,183,133,22,49,147,141,109,62,281,40,58,188,125,148,200,19]",9.5,-10.5,1,0,0,0,27,27,43,1,,,
,,,,,,,,,,,,,FF,,,,,,,,2.681,,,,,,,,,,,,,,,,,,,,,,,,,5c5cad3e4ee81200018eafe2,60a7d8a0e00e07df34c64a83,2021-05-21_17h00.15.713,Simcolourproject_2stim_asymm_v5,2020.2.10,Win32,60,60a5f9bf14d0aa2821c4bb84,,,1961,-146.5,-236.5,1,0,0,response5disk,,3,13.5,-0.5,1,0,0,rectangle,13.5,-0.5,1,0,0,0,"[71,135,167,160,183,133,22,49,147,141,109,62,281,40,58,188,125,148,200,19]",13.5,-0.5,1,0,0,0,28,28,10,1,,,
,,,,,,,,,,,,,FF,,,,,,,,1.201,,,,,,,,,,,,,,,,,,,,,,,,,5c5cad3e4ee81200018eafe2,60a7d8a0e00e07df34c64a83,2021-05-21_17h00.15.713,Simcolourproject_2stim_asymm_v5,2020.2.10,Win32,60,60a5f9bf14d0aa2821c4bb84,,,42,269.5,-136.5,1,0,0,response3disk,,5,-0.5,-13.5,1,0,0,rectangle,-0.5,-13.5,1,0,0,3,"[71,135,167,160,183,133,22,49,147,141,109,62,281,40,58,188,125,148,200,19]",-0.5,-13.5,1,0,0,0,29,29,98,1,,,
,,,,,,,,,,,,,FF,,,,,,,,1.629,,,,,,,,,,,,,,,,,,,,,,,,,5c5cad3e4ee81200018eafe2,60a7d8a0e00e07df34c64a83,2021-05-21_17h00.15.713,Simcolourproject_2stim_asymm_v5,2020.2.10,Win32,60,60a5f9bf14d0aa2821c4bb84,,,1622,266.5,86.5,1,0,0,response1disk,,6,19.5,16.5,1,0,0,rectangle,19.5,16.5,1,0,0,1,"[71,135,167,160,183,133,22,49,147,141,109,62,281,40,58,188,125,148,200,19]",19.5,16.5,1,0,0,0,30,30,71,1,,,
,,,,,,,,,,,,,FF,,,,,,,,1.1,,,,,,,,,,,,,,,,,,,,,,,,,5c5cad3e4ee81200018eafe2,60a7d8a0e00e07df34c64a83,2021-05-21_17h00.15.713,Simcolourproject_2stim_asymm_v5,2020.2.10,Win32,60,60a5f9bf14d0aa2821c4bb84,,,708,166.5,266.5,1,0,0,response1disk,,7,19.5,3.5,1,0,0,rectangle,19.5,3.5,1,0,0,2,"[71,135,167,160,183,133,22,49,147,141,109,62,281,40,58,188,125,148,200,19]",19.5,3.5,1,0,0,0,31,31,99,1,,,
,,,,,,,,,,,,,FF,,,,,,,,2.051,,,,,,,,,,,,,,,,,,,,,,,,,5c5cad3e4ee81200018eafe2,60a7d8a0e00e07df34c64a83,2021-05-21_17h00.15.713,Simcolourproject_2stim_asymm_v5,2020.2.10,Win32,60,60a5f9bf14d0aa2821c4bb84,,,435,-86.5,-273.5,1,0,0,response5disk,,3,13.5,6.5,1,0,0,rectangle,13.5,6.5,1,0,0,3,"[71,135,167,160,183,133,22,49,147,141,109,62,281,40,58,188,125,148,200,19]",13.5,6.5,1,0,0,0,32,32,2,1,,,
,,,,,,,,,,,,,FF,,,,,,,,1.22,,,,,,,,,,,,,,,,,,,,,,,,,5c5cad3e4ee81200018eafe2,60a7d8a0e00e07df34c64a83,2021-05-21_17h00.15.713,Simcolourproject_2stim_asymm_v5,2020.2.10,Win32,60,60a5f9bf14d0aa2821c4bb84,,,951,106.5,-246.5,1,0,0,response3disk,,4,13.5,-26.5,1,0,0,rectangle,13.5,-26.5,1,0,0,5,"[71,135,167,160,183,133,22,49,147,141,109,62,281,40,58,188,125,148,200,19]",13.5,-26.5,1,0,0,0,33,33,31,1,,,
,,,,,,,,,,,,,FF,,,,,,,,1.48,,,,,,,,,,,,,,,,,,,,,,,,,5c5cad3e4ee81200018eafe2,60a7d8a0e00e07df34c64a83,2021-05-21_17h00.15.713,Simcolourproject_2stim_asymm_v5,2020.2.10,Win32,60,60a5f9bf14d0aa2821c4bb84,,,3634,303.5,79.5,1,0,0,response1disk,,6,-3.5,9.5,1,0,0,rectangle,-3.5,9.5,1,0,0,6,"[71,135,167,160,183,133,22,49,147,141,109,62,281,40,58,188,125,148,200,19]",-3.5,9.5,1,0,0,0,34,34,136,1,,,
,,,,,,,,,,,,,FF,,,,,,,,0.881,,,,,,,,,,,,,,,,,,,,,,,,,5c5cad3e4ee81200018eafe2,60a7d8a0e00e07df34c64a83,2021-05-21_17h00.15.713,Simcolourproject_2stim_asymm_v5,2020.2.10,Win32,60,60a5f9bf14d0aa2821c4bb84,,,2331,126.5,299.5,1,0,0,response1disk,,7,26.5,-3.5,1,0,0,rectangle,26.5,-3.5,1,0,0,3,"[71,135,167,160,183,133,22,49,147,141,109,62,281,40,58,188,125,148,200,19]",26.5,-3.5,1,0,0,0,35,35,138,1,,,
,,,,,,,,,,,,,FF,,,,,,,,2.02,,,,,,,,,,,,,,,,,,,,,,,,,5c5cad3e4ee81200018eafe2,60a7d8a0e00e07df34c64a83,2021-05-21_17h00.15.713,Simcolourproject_2stim_asymm_v5,2020.2.10,Win32,60,60a5f9bf14d0aa2821c4bb84,,,4164,119.5,-276.5,1,0,0,response3disk,,4,3.5,-26.5,1,0,0,rectangle,3.5,-26.5,1,0,0,2,"[71,135,167,160,183,133,22,49,147,141,109,62,281,40,58,188,125,148,200,19]",3.5,-26.5,1,0,0,0,36,36,145,1,,,
,,,,,,,,,,,,,FF,,,,,,,,1.102,,,,,,,,,,,,,,,,,,,,,,,,,5c5cad3e4ee81200018eafe2,60a7d8a0e00e07df34c64a83,2021-05-21_17h00.15.713,Simcolourproject_2stim_asymm_v5,2020.2.10,Win32,60,60a5f9bf14d0aa2821c4bb84,,,319,296.5,113.5,1,0,0,response1disk,,6,29.5,13.5,1,0,0,rectangle,29.5,13.5,1,0,0,5,"[71,135,167,160,183,133,22,49,147,141,109,62,281,40,58,188,125,148,200,19]",29.5,13.5,1,0,0,0,37,37,110,1,,,
,,,,,,,,,,,,,FF,,,,,,,,0.8,,,,,,,,,,,,,,,,,,,,,,,,,5c5cad3e4ee81200018eafe2,60a7d8a0e00e07df34c64a83,2021-05-21_17h00.15.713,Simcolourproject_2stim_asymm_v5,2020.2.10,Win32,60,60a5f9bf14d0aa2821c4bb84,,,2689,113.5,253.5,1,0,0,response1disk,,7,-3.5,-3.5,1,0,0,rectangle,-3.5,-3.5,1,0,0,2,"[71,135,167,160,183,133,22,49,147,141,109,62,281,40,58,188,125,148,200,19]",-3.5,-3.5,1,0,0,0,38,38,111,1,,,
,,,,,,,,,,,,,FF,,,,,,,,1.47,,,,,,,,,,,,,,,,,,,,,,,,,5c5cad3e4ee81200018eafe2,60a7d8a0e00e07df34c64a83,2021-05-21_17h00.15.713,Simcolourproject_2stim_asymm_v5,2020.2.10,Win32,60,60a5f9bf14d0aa2821c4bb84,,,1209,99.5,203.5,1,0,0,response1disk,,7,9.5,-30.5,1,0,0,rectangle,239.5,-120.5,1,0,0,5,"[71,135,167,160,183,133,22,49,147,141,109,62,281,40,58,188,125,148,200,19]",-36.5,-13.5,1,0,0,0,39,39,108,1,,response3disk_3,rectangle
,,,,,,,,,,,,,FF,,,,,,,,0.851,,,,,,,,,,,,,,,,,,,,,,,,,5c5cad3e4ee81200018eafe2,60a7d8a0e00e07df34c64a83,2021-05-21_17h00.15.713,Simcolourproject_2stim_asymm_v5,2020.2.10,Win32,60,60a5f9bf14d0aa2821c4bb84,,,3289,109.5,269.5,1,0,0,response1disk,,7,-6.5,16.5,1,0,0,rectangle,-6.5,16.5,1,0,0,6,"[71,135,167,160,183,133,22,49,147,141,109,62,281,40,58,188,125,148,200,19]",-6.5,16.5,1,0,0,0,40,40,125,1,,,
,,,,,,,,,,,,,FF,,,,,,,,0.97,,,,,,,,,,,,,,,,,,,,,,,,,5c5cad3e4ee81200018eafe2,60a7d8a0e00e07df34c64a83,2021-05-21_17h00.15.713,Simcolourproject_2stim_asymm_v5,2020.2.10,Win32,60,60a5f9bf14d0aa2821c4bb84,,,514,103.5,223.5,1,0,0,response1disk,,7,-33.5,-6.5,1,0,0,rectangle,-33.5,-6.5,1,0,0,1,"[71,135,167,160,183,133,22,49,147,141,109,62,281,40,58,188,125,148,200,19]",-33.5,-6.5,1,0,0,0,41,41,58,1,,,
,,,,,,,,,,,,,FF,,,,,,,,1.801,,,,,,,,,,,,,,,,,,,,,,,,,5c5cad3e4ee81200018eafe2,60a7d8a0e00e07df34c64a83,2021-05-21_17h00.15.713,Simcolourproject_2stim_asymm_v5,2020.2.10,Win32,60,60a5f9bf14d0aa2821c4bb84,,,3248,-133.5,-313.5,1,0,0,response5disk,,3,-0.5,3.5,1,0,0,rectangle,-0.5,3.5,1,0,0,3,"[71,135,167,160,183,133,22,49,147,141,109,62,281,40,58,188,125,148,200,19]",-0.5,3.5,1,0,0,0,42,42,155,1,,,
,,,,,,,,,,,,,FF,,,,,,,,1.379,,,,,,,,,,,,,,,,,,,,,,,,,5c5cad3e4ee81200018eafe2,60a7d8a0e00e07df34c64a83,2021-05-21_17h00.15.713,Simcolourproject_2stim_asymm_v5,2020.2.10,Win32,60,60a5f9bf14d0aa2821c4bb84,,,643,263.5,-203.5,1,0,0,response3disk,,5,-3.5,-16.5,1,0,0,rectangle,-3.5,-16.5,1,0,0,2,"[71,135,167,160,183,133,22,49,147,141,109,62,281,40,58,188,125,148,200,19]",-3.5,-16.5,1,0,0,0,43,43,107,1,,,
,,,,,,,,,,,,,FF,,,,,,,,2.12,,,,,,,,,,,,,,,,,,,,,,,,,5c5cad3e4ee81200018eafe2,60a7d8a0e00e07df34c64a83,2021-05-21_17h00.15.713,Simcolourproject_2stim_asymm_v5,2020.2.10,Win32,60,60a5f9bf14d0aa2821c4bb84,,,1970,-173.5,-266.5,1,0,0,response5disk,,3,3.5,-3.5,1,0,0,rectangle,3.5,-3.5,1,0,0,4,"[71,135,167,160,183,133,22,49,147,141,109,62,281,40,58,188,125,148,200,19]",3.5,-3.5,1,0,0,0,44,44,122,1,,,
,,,,,,,,,,,,,FF,,,,,,,,1.329,,,,,,,,,,,,,,,,,,,,,,,,,5c5cad3e4ee81200018eafe2,60a7d8a0e00e07df34c64a83,2021-05-21_17h00.15.713,Simcolourproject_2stim_asymm_v5,2020.2.10,Win32,60,60a5f9bf14d0aa2821c4bb84,,,3611,253.5,-113.5,1,0,0,response3disk,,5,6.5,19.5,1,0,0,rectangle,6.5,19.5,1,0,0,4,"[71,135,167,160,183,133,22,49,147,141,109,62,281,40,58,188,125,148,200,19]",6.5,19.5,1,0,0,0,45,45,36,1,,,
,,,,,,,,,,,,,FF,,,,,,,,1.67,,,,,,,,,,,,,,,,,,,,,,,,,5c5cad3e4ee81200018eafe2,60a7d8a0e00e07df34c64a83,2021-05-21_17h00.15.713,Simcolourproject_2stim_asymm_v5,2020.2.10,Win32,60,60a5f9bf14d0aa2821c4bb84,,,785,219.5,-160.5,1,0,0,response3disk,,5,-13.5,-6.5,1,0,0,rectangle,-13.5,-6.5,1,0,0,6,"[71,135,167,160,183,133,22,49,147,141,109,62,281,40,58,188,125,148,200,19]",-13.5,-6.5,1,0,0,0,46,46,82,1,,,
,,,,,,,,,,,,,FF,,,,,,,,1.532,,,,,,,,,,,,,,,,,,,,,,,,,5c5cad3e4ee81200018eafe2,60a7d8a0e00e07df34c64a83,2021-05-21_17h00.15.713,Simcolourproject_2stim_asymm_v5,2020.2.10,Win32,60,60a5f9bf14d0aa2821c4bb84,,,3898,136.5,-286.5,1,0,0,response3disk,,4,-26.5,16.5,1,0,0,rectangle,-26.5,16.5,1,0,0,5,"[71,135,167,160,183,133,22,49,147,141,109,62,281,40,58,188,125,148,200,19]",-26.5,16.5,1,0,0,0,47,47,115,1,,,
,,,,,,,,,,,,,FF,,,,,,,,1.299,,,,,,,,,,,,,,,,,,,,,,,,,5c5cad3e4ee81200018eafe2,60a7d8a0e00e07df34c64a83,2021-05-21_17h00.15.713,Simcolourproject_2stim_asymm_v5,2020.2.10,Win32,60,60a5f9bf14d0aa2821c4bb84,,,1011,256.5,153.5,1,0,0,response1disk,,6,23.5,9.5,1,0,0,rectangle,256.5,-123.5,1,0,0,5,"[71,135,167,160,183,133,22,49,147,141,109,62,281,40,58,188,125,148,200,19]",13.5,13.5,1,0,0,0,48,48,120,1,,response3disk_3,rectangle
,,,,,,,,,,,,,FF,,,,,,,,1.549,,,,,,,,,,,,,,,,,,,,,,,,,5c5cad3e4ee81200018eafe2,60a7d8a0e00e07df34c64a83,2021-05-21_17h00.15.713,Simcolourproject_2stim_asymm_v5,2020.2.10,Win32,60,60a5f9bf14d0aa2821c4bb84,,,949,279.5,106.5,1,0,0,response1disk,,6,16.5,-0.5,1,0,0,rectangle,16.5,-0.5,1,0,0,1,"[71,135,167,160,183,133,22,49,147,141,109,62,281,40,58,188,125,148,200,19]",16.5,-0.5,1,0,0,0,49,49,160,1,,,
,,,,,,,,,,,,,FF,,,,,,,,3.382,,,,,,,,,,,,,,,,,,,,,,,,,5c5cad3e4ee81200018eafe2,60a7d8a0e00e07df34c64a83,2021-05-21_17h00.15.713,Simcolourproject_2stim_asymm_v5,2020.2.10,Win32,60,60a5f9bf14d0aa2821c4bb84,,,2946,-233.5,-190.5,1,0,0,response5disk,,6,9.5,9.5,1,0,0,rectangle,9.5,9.5,1,0,0,1,"[71,135,167,160,183,133,22,49,147,141,109,62,281,40,58,188,125,148,200,19]",9.5,9.5,1,0,0,0,50,50,67,1,,,
,,,,,,,,,,,,,FF,,,,,,,,2.151,,,,,,,,,,,,,,,,,,,,,,,,,5c5cad3e4ee81200018eafe2,60a7d8a0e00e07df34c64a83,2021-05-21_17h00.15.713,Simcolourproject_2stim_asymm_v5,2020.2.10,Win32,60,60a5f9bf14d0aa2821c4bb84,,,1591,256.5,-116.5,1,0,0,response3disk,,5,16.5,-0.5,1,0,0,rectangle,16.5,-0.5,1,0,0,1,"[71,135,167,160,183,133,22,49,147,141,109,62,281,40,58,188,125,148,200,19]",16.5,-0.5,1,0,0,0,51,51,48,1,,,
,,,,,,,,,,,,,FF,,,,,,,,3.201,,,,,,,,,,,,,,,,,,,,,,,,,5c5cad3e4ee81200018eafe2,60a7d8a0e00e07df34c64a83,2021-05-21_17h00.15.713,Simcolourproject_2stim_asymm_v5,2020.2.10,Win32,60,60a5f9bf14d0aa2821c4bb84,,,2797,273.5,83.5,1,0,0,response1disk,,6,9.5,9.5,1,0,0,rectangle,9.5,9.5,1,0,0,4,"[71,135,167,160,183,133,22,49,147,141,109,62,281,40,58,188,125,148,200,19]",9.5,9.5,1,0,0,0,52,52,105,1,,,
,,,,,,,,,,,,,FF,,,,,,,,1.199,,,,,,,,,,,,,,,,,,,,,,,,,5c5cad3e4ee81200018eafe2,60a7d8a0e00e07df34c64a83,2021-05-21_17h00.15.713,Simcolourproject_2stim_asymm_v5,2020.2.10,Win32,60,60a5f9bf14d0aa2821c4bb84,,,2233,-243.5,116.5,1,0,0,response7disk,,1,3.5,6.5,1,0,0,rectangle,3.5,6.5,1,0,0,5,"[71,135,167,160,183,133,22,49,147,141,109,62,281,40,58,188,125,148,200,19]",3.5,6.5,1,0,0,0,53,53,90,1,,,
,,,,,,,,,,,,,FF,,,,,,,,1.2,,,,,,,,,,,,,,,,,,,,,,,,,5c5cad3e4ee81200018eafe2,60a7d8a0e00e07df34c64a83,2021-05-21_17h00.15.713,Simcolourproject_2stim_asymm_v5,2020.2.10,Win32,60,60a5f9bf14d0aa2821c4bb84,,,3972,-230.5,-70.5,1,0,0,response5disk,,1,26.5,9.5,1,0,0,rectangle,26.5,9.5,1,0,0,5,"[71,135,167,160,183,133,22,49,147,141,109,62,281,40,58,188,125,148,200,19]",26.5,9.5,1,0,0,0,54,54,149,1,,,
,,,,,,,,,,,,,FF,,,,,,,,1.88,,,,,,,,,,,,,,,,,,,,,,,,,5c5cad3e4ee81200018eafe2,60a7d8a0e00e07df34c64a83,2021-05-21_17h00.15.713,Simcolourproject_2stim_asymm_v5,2020.2.10,Win32,60,60a5f9bf14d0aa2821c4bb84,,,310,299.5,86.5,1,0,0,response1disk,,6,19.5,-0.5,1,0,0,rectangle,19.5,-0.5,1,0,0,0,"[71,135,167,160,183,133,22,49,147,141,109,62,281,40,58,188,125,148,200,19]",19.5,-0.5,1,0,0,0,55,55,68,1,,,
,,,,,,,,,,,,,FF,,,,,,,,0.98,,,,,,,,,,,,,,,,,,,,,,,,,5c5cad3e4ee81200018eafe2,60a7d8a0e00e07df34c64a83,2021-05-21_17h00.15.713,Simcolourproject_2stim_asymm_v5,2020.2.10,Win32,60,60a5f9bf14d0aa2821c4bb84,,,497,279.5,136.5,1,0,0,response1disk,,6,3.5,-13.5,1,0,0,rectangle,3.5,-13.5,1,0,0,3,"[71,135,167,160,183,133,22,49,147,141,109,62,281,40,58,188,125,148,200,19]",3.5,-13.5,1,0,0,0,56,56,23,1,,,
,,,,,,,,,,,,,FF,,,,,,,,1.05,,,,,,,,,,,,,,,,,,,,,,,,,5c5cad3e4ee81200018eafe2,60a7d8a0e00e07df34c64a83,2021-05-21_17h00.15.713,Simcolourproject_2stim_asymm_v5,2020.2.10,Win32,60,60a5f9bf14d0aa2821c4bb84,,,401,143.5,169.5,1,0,0,response1disk,,7,26.5,-3.5,1,0,0,rectangle,-126.5,-303.5,1,0,0,3,"[71,135,167,160,183,133,22,49,147,141,109,62,281,40,58,188,125,148,200,19]",19.5,26.5,1,0,0,0,57,57,28,1,,response5disk_3,rectangle
,,,,,,,,,,,,,FF,,,,,,,,1.12,,,,,,,,,,,,,,,,,,,,,,,,,5c5cad3e4ee81200018eafe2,60a7d8a0e00e07df34c64a83,2021-05-21_17h00.15.713,Simcolourproject_2stim_asymm_v5,2020.2.10,Win32,60,60a5f9bf14d0aa2821c4bb84,,,1570,296.5,-83.5,1,0,0,response3disk,,5,16.5,39.5,1,0,0,rectangle,16.5,39.5,1,0,0,4,"[71,135,167,160,183,133,22,49,147,141,109,62,281,40,58,188,125,148,200,19]",16.5,39.5,1,0,0,0,58,58,130,1,,,
,,,,,,,,,,,,,FF,,,,,,,,1.38,,,,,,,,,,,,,,,,,,,,,,,,,5c5cad3e4ee81200018eafe2,60a7d8a0e00e07df34c64a83,2021-05-21_17h00.15.713,Simcolourproject_2stim_asymm_v5,2020.2.10,Win32,60,60a5f9bf14d0aa2821c4bb84,,,3862,246.5,189.5,1,0,0,response1disk,,6,16.5,33.5,1,0,0,rectangle,16.5,33.5,1,0,0,4,"[71,135,167,160,183,133,22,49,147,141,109,62,281,40,58,188,125,148,200,19]",16.5,33.5,1,0,0,0,59,59,139,1,,,
,,,,,,,,,,,,,FF,,,,,,,,2.05,,,,,,,,,,,,,,,,,,,,,,,,,5c5cad3e4ee81200018eafe2,60a7d8a0e00e07df34c64a83,2021-05-21_17h00.15.713,Simcolourproject_2stim_asymm_v5,2020.2.10,Win32,60,60a5f9bf14d0aa2821c4bb84,,,4,-93.5,-280.5,1,0,0,response5disk,,3,19.5,16.5,1,0,0,rectangle,19.5,16.5,1,0,0,3,"[71,135,167,160,183,133,22,49,147,141,109,62,281,40,58,188,125,148,200,19]",19.5,16.5,1,0,0,0,60,60,132,1,,,
,,,,,,,,,,,,,FF,,,,,,,,0.749,,,,,,,,,,,,,,,,,,,,,,,,,5c5cad3e4ee81200018eafe2,60a7d8a0e00e07df34c64a83,2021-05-21_17h00.15.713,Simcolourproject_2stim_asymm_v5,2020.2.10,Win32,60,60a5f9bf14d0aa2821c4bb84,,,4209,163.5,306.5,1,0,0,response1disk,,7,16.5,9.5,1,0,0,rectangle,253.5,-103.5,1,0,0,5,"[71,135,167,160,183,133,22,49,147,141,109,62,281,40,58,188,125,148,200,19]",-16.5,16.5,1,0,0,0,61,61,126,1,,response3disk_3,rectangle
,,,,,,,,,,,,,FF,,,,,,,,1.43,,,,,,,,,,,,,,,,,,,,,,,,,5c5cad3e4ee81200018eafe2,60a7d8a0e00e07df34c64a83,2021-05-21_17h00.15.713,Simcolourproject_2stim_asymm_v5,2020.2.10,Win32,60,60a5f9bf14d0aa2821c4bb84,,,2682,269.5,123.5,1,0,0,response1disk,,6,19.5,23.5,1,0,0,rectangle,19.5,23.5,1,0,0,1,"[71,135,167,160,183,133,22,49,147,141,109,62,281,40,58,188,125,148,200,19]",19.5,23.5,1,0,0,0,62,62,144,1,,,
,,,,,,,,,,,,,FF,,,,,,,,0.9,,,,,,,,,,,,,,,,,,,,,,,,,5c5cad3e4ee81200018eafe2,60a7d8a0e00e07df34c64a83,2021-05-21_17h00.15.713,Simcolourproject_2stim_asymm_v5,2020.2.10,Win32,60,60a5f9bf14d0aa2821c4bb84,,,670,176.5,259.5,1,0,0,response1disk,,7,3.5,3.5,1,0,0,rectangle,3.5,3.5,1,0,0,0,"[71,135,167,160,183,133,22,49,147,141,109,62,281,40,58,188,125,148,200,19]",3.5,3.5,1,0,0,0,63,63,66,1,,,
,,,,,,,,,,,,,FF,,,,,,,,0.8,,,,,,,,,,,,,,,,,,,,,,,,,5c5cad3e4ee81200018eafe2,60a7d8a0e00e07df34c64a83,2021-05-21_17h00.15.713,Simcolourproject_2stim_asymm_v5,2020.2.10,Win32,60,60a5f9bf14d0aa2821c4bb84,,,1488,106.5,226.5,1,0,0,response1disk,,7,3.5,-3.5,1,0,0,rectangle,3.5,-3.5,1,0,0,6,"[71,135,167,160,183,133,22,49,147,141,109,62,281,40,58,188,125,148,200,19]",3.5,-3.5,1,0,0,0,64,64,35,1,,,
,,,,,,,,,,,,,FF,,,,,,,,1.299,,,,,,,,,,,,,,,,,,,,,,,,,5c5cad3e4ee81200018eafe2,60a7d8a0e00e07df34c64a83,2021-05-21_17h00.15.713,Simcolourproject_2stim_asymm_v5,2020.2.10,Win32,60,60a5f9bf14d0aa2821c4bb84,,,1396,239.5,123.5,1,0,0,response1disk,,6,33.5,19.5,1,0,0,rectangle,33.5,19.5,1,0,0,2,"[71,135,167,160,183,133,22,49,147,141,109,62,281,40,58,188,125,148,200,19]",33.5,19.5,1,0,0,0,65,65,38,1,,,
,,,,,,,,,,,,,FF,,,,,,,,1.049,,,,,,,,,,,,,,,,,,,,,,,,,5c5cad3e4ee81200018eafe2,60a7d8a0e00e07df34c64a83,2021-05-21_17h00.15.713,Simcolourproject_2stim_asymm_v5,2020.2.10,Win32,60,60a5f9bf14d0aa2821c4bb84,,,2501,89.5,156.5,1,0,0,response1disk,,7,16.5,-0.5,1,0,0,rectangle,16.5,-0.5,1,0,0,1,"[71,135,167,160,183,133,22,49,147,141,109,62,281,40,58,188,125,148,200,19]",16.5,-0.5,1,0,0,0,66,66,123,1,,,
,,,,,,,,,,,,,FF,,,,,,,,1.421,,,,,,,,,,,,,,,,,,,,,,,,,5c5cad3e4ee81200018eafe2,60a7d8a0e00e07df34c64a83,2021-05-21_17h00.15.713,Simcolourproject_2stim_asymm_v5,2020.2.10,Win32,60,60a5f9bf14d0aa2821c4bb84,,,344,273.5,99.5,1,0,0,response1disk,,6,33.5,9.5,1,0,0,rectangle,33.5,9.5,1,0,0,2,"[71,135,167,160,183,133,22,49,147,141,109,62,281,40,58,188,125,148,200,19]",33.5,9.5,1,0,0,0,67,67,47,1,,,
,,,,,,,,,,,,,FF,,,,,,,,1.629,,,,,,,,,,,,,,,,,,,,,,,,,5c5cad3e4ee81200018eafe2,60a7d8a0e00e07df34c64a83,2021-05-21_17h00.15.713,Simcolourproject_2stim_asymm_v5,2020.2.10,Win32,60,60a5f9bf14d0aa2821c4bb84,,,3882,193.5,-83.5,1,0,0,response3disk,,5,33.5,-6.5,1,0,0,rectangle,33.5,-6.5,1,0,0,2,"[71,135,167,160,183,133,22,49,147,141,109,62,281,40,58,188,125,148,200,19]",33.5,-6.5,1,0,0,0,68,68,94,1,,,
,,,,,,,,,,,,,FF,,,,,,,,1.03,,,,,,,,,,,,,,,,,,,,,,,,,5c5cad3e4ee81200018eafe2,60a7d8a0e00e07df34c64a83,2021-05-21_17h00.15.713,Simcolourproject_2stim_asymm_v5,2020.2.10,Win32,60,60a5f9bf14d0aa2821c4bb84,,,592,186.5,-100.5,1,0,0,response3disk,,5,29.5,-3.5,1,0,0,rectangle,29.5,-3.5,1,0,0,1,"[71,135,167,160,183,133,22,49,147,141,109,62,281,40,58,188,125,148,200,19]",29.5,-3.5,1,0,0,0,69,69,16,1,,,
,,,,,,,,,,,,,FF,,,,,,,,1.033,,,,,,,,,,,,,,,,,,,,,,,,,5c5cad3e4ee81200018eafe2,60a7d8a0e00e07df34c64a83,2021-05-21_17h00.15.713,Simcolourproject_2stim_asymm_v5,2020.2.10,Win32,60,60a5f9bf14d0aa2821c4bb84,,,225,226.5,-116.5,1,0,0,response3disk,,5,16.5,-10.5,1,0,0,rectangle,303.5,-126.5,1,0,0,5,"[71,135,167,160,183,133,22,49,147,141,109,62,281,40,58,188,125,148,200,19]",36.5,3.5,1,0,0,0,70,70,44,1,,response3disk_3,rectangle
,,,,,,,,,,,,,FF,,,,,,,,1.28,,,,,,,,,,,,,,,,,,,,,,,,,5c5cad3e4ee81200018eafe2,60a7d8a0e00e07df34c64a83,2021-05-21_17h00.15.713,Simcolourproject_2stim_asymm_v5,2020.2.10,Win32,60,60a5f9bf14d0aa2821c4bb84,,,1524,-130.5,-220.5,1,0,0,response5disk,,3,3.5,16.5,1,0,0,rectangle,3.5,16.5,1,0,0,6,"[71,135,167,160,183,133,22,49,147,141,109,62,281,40,58,188,125,148,200,19]",3.5,16.5,1,0,0,0,71,71,91,1,,,
,,,,,,,,,,,,,FF,,,,,,,,1.503,,,,,,,,,,,,,,,,,,,,,,,,,5c5cad3e4ee81200018eafe2,60a7d8a0e00e07df34c64a83,2021-05-21_17h00.15.713,Simcolourproject_2stim_asymm_v5,2020.2.10,Win32,60,60a5f9bf14d0aa2821c4bb84,,,2431,76.5,-223.5,1,0,0,response3disk,,4,-16.5,-0.5,1,0,0,rectangle,-16.5,-0.5,1,0,0,4,"[71,135,167,160,183,133,22,49,147,141,109,62,281,40,58,188,125,148,200,19]",-16.5,-0.5,1,0,0,0,72,72,40,1,,,
,,,,,,,,,,,,,FF,,,,,,,,1.199,,,,,,,,,,,,,,,,,,,,,,,,,5c5cad3e4ee81200018eafe2,60a7d8a0e00e07df34c64a83,2021-05-21_17h00.15.713,Simcolourproject_2stim_asymm_v5,2020.2.10,Win32,60,60a5f9bf14d0aa2821c4bb84,,,1596,-170.5,256.5,1,0,0,response7disk,,0,-6.5,3.5,1,0,0,rectangle,-6.5,3.5,1,0,0,7,"[71,135,167,160,183,133,22,49,147,141,109,62,281,40,58,188,125,148,200,19]",-6.5,3.5,1,0,0,0,73,73,72,1,,,
,,,,,,,,,,,,,FF,,,,,,,,2.471,,,,,,,,,,,,,,,,,,,,,,,,,5c5cad3e4ee81200018eafe2,60a7d8a0e00e07df34c64a83,2021-05-21_17h00.15.713,Simcolourproject_2stim_asymm_v5,2020.2.10,Win32,60,60a5f9bf14d0aa2821c4bb84,,,3367,283.5,96.5,1,0,0,response1disk,,6,23.5,-3.5,1,0,0,rectangle,23.5,-3.5,1,0,0,0,"[71,135,167,160,183,133,22,49,147,141,109,62,281,40,58,188,125,148,200,19]",23.5,-3.5,1,0,0,0,74,74,61,1,,,
,,,,,,,,,,,,,FF,,,,,,,,1.23,,,,,,,,,,,,,,,,,,,,,,,,,5c5cad3e4ee81200018eafe2,60a7d8a0e00e07df34c64a83,2021-05-21_17h00.15.713,Simcolourproject_2stim_asymm_v5,2020.2.10,Win32,60,60a5f9bf14d0aa2821c4bb84,,,3142,269.5,126.5,1,0,0,response1disk,,6,13.5,19.5,1,0,0,rectangle,13.5,19.5,1,0,0,0,"[71,135,167,160,183,133,22,49,147,141,109,62,281,40,58,188,125,148,200,19]",13.5,19.5,1,0,0,0,75,75,117,1,,,
,,,,,,,,,,,,,FF,,,,,,,,0.969,,,,,,,,,,,,,,,,,,,,,,,,,5c5cad3e4ee81200018eafe2,60a7d8a0e00e07df34c64a83,2021-05-21_17h00.15.713,Simcolourproject_2stim_asymm_v5,2020.2.10,Win32,60,60a5f9bf14d0aa2821c4bb84,,,1151,266.5,113.5,1,0,0,response1disk,,6,13.5,3.5,1,0,0,rectangle,13.5,3.5,1,0,0,5,"[71,135,167,160,183,133,22,49,147,141,109,62,281,40,58,188,125,148,200,19]",13.5,3.5,1,0,0,0,76,76,156,1,,,
,,,,,,,,,,,,,FF,,,,,,,,1.103,,,,,,,,,,,,,,,,,,,,,,,,,5c5cad3e4ee81200018eafe2,60a7d8a0e00e07df34c64a83,2021-05-21_17h00.15.713,Simcolourproject_2stim_asymm_v5,2020.2.10,Win32,60,60a5f9bf14d0aa2821c4bb84,,,276,-230.5,109.5,1,0,0,response7disk,,1,-40.5,29.5,1,0,0,rectangle,-40.5,29.5,1,0,0,6,"[71,135,167,160,183,133,22,49,147,141,109,62,281,40,58,188,125,148,200,19]",-40.5,29.5,1,0,0,0,77,77,9,1,,,
,,,,,,,,,,,,,FF,,,,,,,,1.121,,,,,,,,,,,,,,,,,,,,,,,,,5c5cad3e4ee81200018eafe2,60a7d8a0e00e07df34c64a83,2021-05-21_17h00.15.713,Simcolourproject_2stim_asymm_v5,2020.2.10,Win32,60,60a5f9bf14d0aa2821c4bb84,,,938,163.5,256.5,1,0,0,response1disk,,7,13.5,-3.5,1,0,0,rectangle,13.5,-3.5,1,0,0,5,"[71,135,167,160,183,133,22,49,147,141,109,62,281,40,58,188,125,148,200,19]",13.5,-3.5,1,0,0,0,78,78,46,1,,,
,,,,,,,,,,,,,FF,,,,,,,,1.885,,,,,,,,,,,,,,,,,,,,,,,,,5c5cad3e4ee81200018eafe2,60a7d8a0e00e07df34c64a83,2021-05-21_17h00.15.713,Simcolourproject_2stim_asymm_v5,2020.2.10,Win32,60,60a5f9bf14d0aa2821c4bb84,,,544,293.5,-160.5,1,0,0,response3disk,,5,-10.5,-3.5,1,0,0,rectangle,-10.5,-3.5,1,0,0,4,"[71,135,167,160,183,133,22,49,147,141,109,62,281,40,58,188,125,148,200,19]",-10.5,-3.5,1,0,0,0,79,79,8,1,,,
,,,,,,,,,,,,,FF,,,,,,,,2.28,,,,,,,,,,,,,,,,,,,,,,,,,5c5cad3e4ee81200018eafe2,60a7d8a0e00e07df34c64a83,2021-05-21_17h00.15.713,Simcolourproject_2stim_asymm_v5,2020.2.10,Win32,60,60a5f9bf14d0aa2821c4bb84,,,1682,-116.5,-246.5,1,0,0,response5disk,,3,13.5,9.5,1,0,0,rectangle,13.5,9.5,1,0,0,3,"[71,135,167,160,183,133,22,49,147,141,109,62,281,40,58,188,125,148,200,19]",13.5,9.5,1,0,0,0,80,80,116,1,,,
,,,,,,,,,,,,,FF,,,,,,,,1.121,,,,,,,,,,,,,,,,,,,,,,,,,5c5cad3e4ee81200018eafe2,60a7d8a0e00e07df34c64a83,2021-05-21_17h00.15.713,Simcolourproject_2stim_asymm_v5,2020.2.10,Win32,60,60a5f9bf14d0aa2821c4bb84,,,2026,-140.5,-233.5,1,0,0,response5disk,,3,16.5,23.5,1,0,0,rectangle,16.5,23.5,1,0,0,4,"[71,135,167,160,183,133,22,49,147,141,109,62,281,40,58,188,125,148,200,19]",16.5,23.5,1,0,0,0,81,81,152,1,,,
,,,,,,,,,,,,,FF,,,,,,,,3.07,,,,,,,,,,,,,,,,,,,,,,,,,5c5cad3e4ee81200018eafe2,60a7d8a0e00e07df34c64a83,2021-05-21_17h00.15.713,Simcolourproject_2stim_asymm_v5,2020.2.10,Win32,60,60a5f9bf14d0aa2821c4bb84,,,3876,239.5,-110.5,1,0,0,response3disk,,5,43.5,-20.5,1,0,0,rectangle,43.5,-20.5,1,0,0,5,"[71,135,167,160,183,133,22,49,147,141,109,62,281,40,58,188,125,148,200,19]",43.5,-20.5,1,0,0,0,82,82,133,1,,,
,,,,,,,,,,,,,FF,,,,,,,,1.131,,,,,,,,,,,,,,,,,,,,,,,,,5c5cad3e4ee81200018eafe2,60a7d8a0e00e07df34c64a83,2021-05-21_17h00.15.713,Simcolourproject_2stim_asymm_v5,2020.2.10,Win32,60,60a5f9bf14d0aa2821c4bb84,,,3994,-223.5,-100.5,1,0,0,response5disk,,5,-40.5,-0.5,1,0,0,rectangle,-40.5,-0.5,1,0,0,2,"[71,135,167,160,183,133,22,49,147,141,109,62,281,40,58,188,125,148,200,19]",-40.5,-0.5,1,0,0,0,83,83,102,1,,,
,,,,,,,,,,,,,FF,,,,,,,,1.529,,,,,,,,,,,,,,,,,,,,,,,,,5c5cad3e4ee81200018eafe2,60a7d8a0e00e07df34c64a83,2021-05-21_17h00.15.713,Simcolourproject_2stim_asymm_v5,2020.2.10,Win32,60,60a5f9bf14d0aa2821c4bb84,,,1162,273.5,93.5,1,0,0,response1disk,,6,53.5,-6.5,1,0,0,rectangle,53.5,-6.5,1,0,0,2,"[71,135,167,160,183,133,22,49,147,141,109,62,281,40,58,188,125,148,200,19]",53.5,-6.5,1,0,0,0,84,84,56,1,,,
,,,,,,,,,,,,,FF,,,,,,,,0.828,,,,,,,,,,,,,,,,,,,,,,,,,5c5cad3e4ee81200018eafe2,60a7d8a0e00e07df34c64a83,2021-05-21_17h00.15.713,Simcolourproject_2stim_asymm_v5,2020.2.10,Win32,60,60a5f9bf14d0aa2821c4bb84,,,4180,166.5,313.5,1,0,0,response1disk,,7,29.5,16.5,1,0,0,rectangle,29.5,16.5,1,0,0,6,"[71,135,167,160,183,133,22,49,147,141,109,62,281,40,58,188,125,148,200,19]",29.5,16.5,1,0,0,0,85,85,85,1,,,
,,,,,,,,,,,,,FF,,,,,,,,0.9,,,,,,,,,,,,,,,,,,,,,,,,,5c5cad3e4ee81200018eafe2,60a7d8a0e00e07df34c64a83,2021-05-21_17h00.15.713,Simcolourproject_2stim_asymm_v5,2020.2.10,Win32,60,60a5f9bf14d0aa2821c4bb84,,,267,113.5,253.5,1,0,0,response1disk,,7,-20.5,-0.5,1,0,0,rectangle,-20.5,-0.5,1,0,0,4,"[71,135,167,160,183,133,22,49,147,141,109,62,281,40,58,188,125,148,200,19]",-20.5,-0.5,1,0,0,0,86,86,34,1,,,
,,,,,,,,,,,,,FF,,,,,,,,1.329,,,,,,,,,,,,,,,,,,,,,,,,,5c5cad3e4ee81200018eafe2,60a7d8a0e00e07df34c64a83,2021-05-21_17h00.15.713,Simcolourproject_2stim_asymm_v5,2020.2.10,Win32,60,60a5f9bf14d0aa2821c4bb84,,,1166,243.5,103.5,1,0,0,response1disk,,6,26.5,-30.5,1,0,0,rectangle,26.5,-30.5,1,0,0,7,"[71,135,167,160,183,133,22,49,147,141,109,62,281,40,58,188,125,148,200,19]",26.5,-30.5,1,0,0,0,87,87,51,1,,,
,,,,,,,,,,,,,FF,,,,,,,,0.949,,,,,,,,,,,,,,,,,,,,,,,,,5c5cad3e4ee81200018eafe2,60a7d8a0e00e07df34c64a83,2021-05-21_17h00.15.713,Simcolourproject_2stim_asymm_v5,2020.2.10,Win32,60,60a5f9bf14d0aa2821c4bb84,,,2124,143.5,273.5,1,0,0,response1disk,,7,19.5,16.5,1,0,0,rectangle,19.5,16.5,1,0,0,7,"[71,135,167,160,183,133,22,49,147,141,109,62,281,40,58,188,125,148,200,19]",19.5,16.5,1,0,0,0,88,88,153,1,,,
,,,,,,,,,,,,,FF,,,,,,,,0.951,,,,,,,,,,,,,,,,,,,,,,,,,5c5cad3e4ee81200018eafe2,60a7d8a0e00e07df34c64a83,2021-05-21_17h00.15.713,Simcolourproject_2stim_asymm_v5,2020.2.10,Win32,60,60a5f9bf14d0aa2821c4bb84,,,1170,69.5,263.5,1,0,0,response1disk,,7,-0.5,3.5,1,0,0,rectangle,-0.5,3.5,1,0,0,3,"[71,135,167,160,183,133,22,49,147,141,109,62,281,40,58,188,125,148,200,19]",-0.5,3.5,1,0,0,0,89,89,53,1,,,
,,,,,,,,,,,,,FF,,,,,,,,1.979,,,,,,,,,,,,,,,,,,,,,,,,,5c5cad3e4ee81200018eafe2,60a7d8a0e00e07df34c64a83,2021-05-21_17h00.15.713,Simcolourproject_2stim_asymm_v5,2020.2.10,Win32,60,60a5f9bf14d0aa2821c4bb84,,,4288,109.5,199.5,1,0,0,response1disk,,7,-3.5,-0.5,1,0,0,rectangle,-3.5,-0.5,1,0,0,6,"[71,135,167,160,183,133,22,49,147,141,109,62,281,40,58,188,125,148,200,19]",-3.5,-0.5,1,0,0,0,90,90,79,1,,,
,,,,,,,,,,,,,FF,,,,,,,,0.921,,,,,,,,,,,,,,,,,,,,,,,,,5c5cad3e4ee81200018eafe2,60a7d8a0e00e07df34c64a83,2021-05-21_17h00.15.713,Simcolourproject_2stim_asymm_v5,2020.2.10,Win32,60,60a5f9bf14d0aa2821c4bb84,,,928,129.5,206.5,1,0,0,response1disk,,7,13.5,6.5,1,0,0,rectangle,13.5,6.5,1,0,0,4,"[71,135,167,160,183,133,22,49,147,141,109,62,281,40,58,188,125,148,200,19]",13.5,6.5,1,0,0,0,91,91,30,1,,,
,,,,,,,,,,,,,FF,,,,,,,,1.071,,,,,,,,,,,,,,,,,,,,,,,,,5c5cad3e4ee81200018eafe2,60a7d8a0e00e07df34c64a83,2021-05-21_17h00.15.713,Simcolourproject_2stim_asymm_v5,2020.2.10,Win32,60,60a5f9bf14d0aa2821c4bb84,,,1174,86.5,203.5,1,0,0,response1disk,,7,-10.5,6.5,1,0,0,rectangle,-10.5,6.5,1,0,0,6,"[71,135,167,160,183,133,22,49,147,141,109,62,281,40,58,188,125,148,200,19]",-10.5,6.5,1,0,0,0,92,92,97,1,,,
,,,,,,,,,,,,,FF,,,,,,,,2.122,,,,,,,,,,,,,,,,,,,,,,,,,5c5cad3e4ee81200018eafe2,60a7d8a0e00e07df34c64a83,2021-05-21_17h00.15.713,Simcolourproject_2stim_asymm_v5,2020.2.10,Win32,60,60a5f9bf14d0aa2821c4bb84,,,2419,79.5,-283.5,1,0,0,response3disk,,4,3.5,6.5,1,0,0,rectangle,3.5,6.5,1,0,0,7,"[71,135,167,160,183,133,22,49,147,141,109,62,281,40,58,188,125,148,200,19]",3.5,6.5,1,0,0,0,93,93,81,1,,,
,,,,,,,,,,,,,FF,,,,,,,,1.05,,,,,,,,,,,,,,,,,,,,,,,,,5c5cad3e4ee81200018eafe2,60a7d8a0e00e07df34c64a83,2021-05-21_17h00.15.713,Simcolourproject_2stim_asymm_v5,2020.2.10,Win32,60,60a5f9bf14d0aa2821c4bb84,,,916,253.5,-120.5,1,0,0,response3disk,,5,6.5,-10.5,1,0,0,rectangle,6.5,-10.5,1,0,0,0,"[71,135,167,160,183,133,22,49,147,141,109,62,281,40,58,188,125,148,200,19]",6.5,-10.5,1,0,0,0,94,94,12,1,,,
,,,,,,,,,,,,,FF,,,,,,,,0.85,,,,,,,,,,,,,,,,,,,,,,,,,5c5cad3e4ee81200018eafe2,60a7d8a0e00e07df34c64a83,2021-05-21_17h00.15.713,Simcolourproject_2stim_asymm_v5,2020.2.10,Win32,60,60a5f9bf14d0aa2821c4bb84,,,3017,119.5,266.5,1,0,0,response1disk,,7,23.5,13.5,1,0,0,rectangle,23.5,13.5,1,0,0,5,"[71,135,167,160,183,133,22,49,147,141,109,62,281,40,58,188,125,148,200,19]",23.5,13.5,1,0,0,0,95,95,45,1,,,
,,,,,,,,,,,,,FF,,,,,,,,0.82,,,,,,,,,,,,,,,,,,,,,,,,,5c5cad3e4ee81200018eafe2,60a7d8a0e00e07df34c64a83,2021-05-21_17h00.15.713,Simcolourproject_2stim_asymm_v5,2020.2.10,Win32,60,60a5f9bf14d0aa2821c4bb84,,,87,113.5,219.5,1,0,0,response1disk,,7,6.5,9.5,1,0,0,rectangle,6.5,9.5,1,0,0,7,"[71,135,167,160,183,133,22,49,147,141,109,62,281,40,58,188,125,148,200,19]",6.5,9.5,1,0,0,0,96,96,49,1,,,
,,,,,,,,,,,,,FF,,,,,,,,1.783,,,,,,,,,,,,,,,,,,,,,,,,,5c5cad3e4ee81200018eafe2,60a7d8a0e00e07df34c64a83,2021-05-21_17h00.15.713,Simcolourproject_2stim_asymm_v5,2020.2.10,Win32,60,60a5f9bf14d0aa2821c4bb84,,,3386,166.5,-253.5,1,0,0,response3disk,,4,16.5,-10.5,1,0,0,rectangle,16.5,-10.5,1,0,0,7,"[71,135,167,160,183,133,22,49,147,141,109,62,281,40,58,188,125,148,200,19]",16.5,-10.5,1,0,0,0,97,97,150,1,,,
,,,,,,,,,,,,,FF,,,,,,,,2.771,,,,,,,,,,,,,,,,,,,,,,,,,5c5cad3e4ee81200018eafe2,60a7d8a0e00e07df34c64a83,2021-05-21_17h00.15.713,Simcolourproject_2stim_asymm_v5,2020.2.10,Win32,60,60a5f9bf14d0aa2821c4bb84,,,368,93.5,-263.5,1,0,0,response3disk,,4,-3.5,3.5,1,0,0,rectangle,-3.5,3.5,1,0,0,3,"[71,135,167,160,183,133,22,49,147,141,109,62,281,40,58,188,125,148,200,19]",-3.5,3.5,1,0,0,0,98,98,19,1,,,
,,,,,,,,,,,,,FF,,,,,,,,2.099,,,,,,,,,,,,,,,,,,,,,,,,,5c5cad3e4ee81200018eafe2,60a7d8a0e00e07df34c64a83,2021-05-21_17h00.15.713,Simcolourproject_2stim_asymm_v5,2020.2.10,Win32,60,60a5f9bf14d0aa2821c4bb84,,,947,236.5,146.5,1,0,0,response1disk,,6,33.5,-13.5,1,0,0,rectangle,33.5,-13.5,1,0,0,2,"[71,135,167,160,183,133,22,49,147,141,109,62,281,40,58,188,125,148,200,19]",33.5,-13.5,1,0,0,0,99,99,21,1,,,
,,,,,,,,,,,,,FF,,,,,,,,1.6,,,,,,,,,,,,,,,,,,,,,,,,,5c5cad3e4ee81200018eafe2,60a7d8a0e00e07df34c64a83,2021-05-21_17h00.15.713,Simcolourproject_2stim_asymm_v5,2020.2.10,Win32,60,60a5f9bf14d0aa2821c4bb84,,,1914,243.5,-213.5,1,0,0,response3disk,,5,-10.5,-10.5,1,0,0,rectangle,-10.5,-10.5,1,0,0,0,"[71,135,167,160,183,133,22,49,147,141,109,62,281,40,58,188,125,148,200,19]",-10.5,-10.5,1,0,0,0,100,100,146,1,,,
,,,,,,,,,,,,,FF,,,,,,,,0.92,,,,,,,,,,,,,,,,,,,,,,,,,5c5cad3e4ee81200018eafe2,60a7d8a0e00e07df34c64a83,2021-05-21_17h00.15.713,Simcolourproject_2stim_asymm_v5,2020.2.10,Win32,60,60a5f9bf14d0aa2821c4bb84,,,4217,119.5,296.5,1,0,0,response1disk,,7,29.5,23.5,1,0,0,rectangle,29.5,23.5,1,0,0,7,"[71,135,167,160,183,133,22,49,147,141,109,62,281,40,58,188,125,148,200,19]",29.5,23.5,1,0,0,0,101,101,54,1,,,
,,,,,,,,,,,,,FF,,,,,,,,0.849,,,,,,,,,,,,,,,,,,,,,,,,,5c5cad3e4ee81200018eafe2,60a7d8a0e00e07df34c64a83,2021-05-21_17h00.15.713,Simcolourproject_2stim_asymm_v5,2020.2.10,Win32,60,60a5f9bf14d0aa2821c4bb84,,,294,116.5,216.5,1,0,0,response1disk,,7,13.5,6.5,1,0,0,rectangle,13.5,6.5,1,0,0,0,"[71,135,167,160,183,133,22,49,147,141,109,62,281,40,58,188,125,148,200,19]",13.5,6.5,1,0,0,0,102,102,33,1,,,
,,,,,,,,,,,,,FF,,,,,,,,1.531,,,,,,,,,,,,,,,,,,,,,,,,,5c5cad3e4ee81200018eafe2,60a7d8a0e00e07df34c64a83,2021-05-21_17h00.15.713,Simcolourproject_2stim_asymm_v5,2020.2.10,Win32,60,60a5f9bf14d0aa2821c4bb84,,,2949,226.5,69.5,1,0,0,response1disk,,6,19.5,-20.5,1,0,0,rectangle,19.5,-20.5,1,0,0,5,"[71,135,167,160,183,133,22,49,147,141,109,62,281,40,58,188,125,148,200,19]",19.5,-20.5,1,0,0,0,103,103,52,1,,,
,,,,,,,,,,,,,FF,,,,,,,,1.431,,,,,,,,,,,,,,,,,,,,,,,,,5c5cad3e4ee81200018eafe2,60a7d8a0e00e07df34c64a83,2021-05-21_17h00.15.713,Simcolourproject_2stim_asymm_v5,2020.2.10,Win32,60,60a5f9bf14d0aa2821c4bb84,,,1911,183.5,-90.5,1,0,0,response3disk,,5,36.5,-23.5,1,0,0,rectangle,36.5,-23.5,1,0,0,2,"[71,135,167,160,183,133,22,49,147,141,109,62,281,40,58,188,125,148,200,19]",36.5,-23.5,1,0,0,0,104,104,14,1,,,
,,,,,,,,,,,,,FF,,,,,,,,0.78,,,,,,,,,,,,,,,,,,,,,,,,,5c5cad3e4ee81200018eafe2,60a7d8a0e00e07df34c64a83,2021-05-21_17h00.15.713,Simcolourproject_2stim_asymm_v5,2020.2.10,Win32,60,60a5f9bf14d0aa2821c4bb84,,,3025,129.5,279.5,1,0,0,response1disk,,7,29.5,9.5,1,0,0,rectangle,29.5,9.5,1,0,0,6,"[71,135,167,160,183,133,22,49,147,141,109,62,281,40,58,188,125,148,200,19]",29.5,9.5,1,0,0,0,105,105,140,1,,,
,,,,,,,,,,,,,FF,,,,,,,,1.32,,,,,,,,,,,,,,,,,,,,,,,,,5c5cad3e4ee81200018eafe2,60a7d8a0e00e07df34c64a83,2021-05-21_17h00.15.713,Simcolourproject_2stim_asymm_v5,2020.2.10,Win32,60,60a5f9bf14d0aa2821c4bb84,,,2039,-133.5,-186.5,1,0,0,response5disk,,3,-23.5,23.5,1,0,0,rectangle,-23.5,23.5,1,0,0,6,"[71,135,167,160,183,133,22,49,147,141,109,62,281,40,58,188,125,148,200,19]",-23.5,23.5,1,0,0,0,106,106,92,1,,,
,,,,,,,,,,,,,FF,,,,,,,,1.3,,,,,,,,,,,,,,,,,,,,,,,,,5c5cad3e4ee81200018eafe2,60a7d8a0e00e07df34c64a83,2021-05-21_17h00.15.713,Simcolourproject_2stim_asymm_v5,2020.2.10,Win32,60,60a5f9bf14d0aa2821c4bb84,,,2550,126.5,-203.5,1,0,0,response3disk,,4,43.5,-3.5,1,0,0,rectangle,43.5,-3.5,1,0,0,1,"[71,135,167,160,183,133,22,49,147,141,109,62,281,40,58,188,125,148,200,19]",43.5,-3.5,1,0,0,0,107,107,135,1,,,
,,,,,,,,,,,,,FF,,,,,,,,1.35,,,,,,,,,,,,,,,,,,,,,,,,,5c5cad3e4ee81200018eafe2,60a7d8a0e00e07df34c64a83,2021-05-21_17h00.15.713,Simcolourproject_2stim_asymm_v5,2020.2.10,Win32,60,60a5f9bf14d0aa2821c4bb84,,,3746,-210.5,-96.5,1,0,0,response5disk,,4,23.5,-0.5,1,0,0,rectangle,143.5,266.5,1,0,0,7,"[71,135,167,160,183,133,22,49,147,141,109,62,281,40,58,188,125,148,200,19]",19.5,26.5,1,0,0,0,108,108,83,1,,response1disk_3,rectangle
,,,,,,,,,,,,,FF,,,,,,,,0.93,,,,,,,,,,,,,,,,,,,,,,,,,5c5cad3e4ee81200018eafe2,60a7d8a0e00e07df34c64a83,2021-05-21_17h00.15.713,Simcolourproject_2stim_asymm_v5,2020.2.10,Win32,60,60a5f9bf14d0aa2821c4bb84,,,2334,129.5,259.5,1,0,0,response1disk,,7,26.5,-3.5,1,0,0,rectangle,26.5,-3.5,1,0,0,5,"[71,135,167,160,183,133,22,49,147,141,109,62,281,40,58,188,125,148,200,19]",26.5,-3.5,1,0,0,0,109,109,157,1,,,
,,,,,,,,,,,,,FF,,,,,,,,0.78,,,,,,,,,,,,,,,,,,,,,,,,,5c5cad3e4ee81200018eafe2,60a7d8a0e00e07df34c64a83,2021-05-21_17h00.15.713,Simcolourproject_2stim_asymm_v5,2020.2.10,Win32,60,60a5f9bf14d0aa2821c4bb84,,,3614,106.5,229.5,1,0,0,response1disk,,7,33.5,-3.5,1,0,0,rectangle,33.5,-3.5,1,0,0,0,"[71,135,167,160,183,133,22,49,147,141,109,62,281,40,58,188,125,148,200,19]",33.5,-3.5,1,0,0,0,110,110,5,1,,,
,,,,,,,,,,,,,FF,,,,,,,,1.15,,,,,,,,,,,,,,,,,,,,,,,,,5c5cad3e4ee81200018eafe2,60a7d8a0e00e07df34c64a83,2021-05-21_17h00.15.713,Simcolourproject_2stim_asymm_v5,2020.2.10,Win32,60,60a5f9bf14d0aa2821c4bb84,,,2352,303.5,-143.5,1,0,0,response3disk,,5,16.5,-0.5,1,0,0,rectangle,16.5,-0.5,1,0,0,5,"[71,135,167,160,183,133,22,49,147,141,109,62,281,40,58,188,125,148,200,19]",16.5,-0.5,1,0,0,0,111,111,62,1,,,
,,,,,,,,,,,,,FF,,,,,,,,1.649,,,,,,,,,,,,,,,,,,,,,,,,,5c5cad3e4ee81200018eafe2,60a7d8a0e00e07df34c64a83,2021-05-21_17h00.15.713,Simcolourproject_2stim_asymm_v5,2020.2.10,Win32,60,60a5f9bf14d0aa2821c4bb84,,,3062,256.5,76.5,1,0,0,response1disk,,6,53.5,-23.5,1,0,0,rectangle,53.5,-23.5,1,0,0,7,"[71,135,167,160,183,133,22,49,147,141,109,62,281,40,58,188,125,148,200,19]",53.5,-23.5,1,0,0,0,112,112,100,1,,,
,,,,,,,,,,,,,FF,,,,,,,,0.8,,,,,,,,,,,,,,,,,,,,,,,,,5c5cad3e4ee81200018eafe2,60a7d8a0e00e07df34c64a83,2021-05-21_17h00.15.713,Simcolourproject_2stim_asymm_v5,2020.2.10,Win32,60,60a5f9bf14d0aa2821c4bb84,,,3225,143.5,279.5,1,0,0,response1disk,,7,53.5,13.5,1,0,0,rectangle,53.5,13.5,1,0,0,7,"[71,135,167,160,183,133,22,49,147,141,109,62,281,40,58,188,125,148,200,19]",53.5,13.5,1,0,0,0,113,113,74,1,,,
,,,,,,,,,,,,,FF,,,,,,,,0.867,,,,,,,,,,,,,,,,,,,,,,,,,5c5cad3e4ee81200018eafe2,60a7d8a0e00e07df34c64a83,2021-05-21_17h00.15.713,Simcolourproject_2stim_asymm_v5,2020.2.10,Win32,60,60a5f9bf14d0aa2821c4bb84,,,2632,109.5,243.5,1,0,0,response1disk,,7,39.5,23.5,1,0,0,rectangle,39.5,23.5,1,0,0,1,"[71,135,167,160,183,133,22,49,147,141,109,62,281,40,58,188,125,148,200,19]",39.5,23.5,1,0,0,0,114,114,80,1,,,
,,,,,,,,,,,,,FF,,,,,,,,0.981,,,,,,,,,,,,,,,,,,,,,,,,,5c5cad3e4ee81200018eafe2,60a7d8a0e00e07df34c64a83,2021-05-21_17h00.15.713,Simcolourproject_2stim_asymm_v5,2020.2.10,Win32,60,60a5f9bf14d0aa2821c4bb84,,,738,113.5,186.5,1,0,0,response1disk,,7,29.5,9.5,1,0,0,rectangle,29.5,9.5,1,0,0,3,"[71,135,167,160,183,133,22,49,147,141,109,62,281,40,58,188,125,148,200,19]",29.5,9.5,1,0,0,0,115,115,154,1,,,
,,,,,,,,,,,,,FF,,,,,,,,2.05,,,,,,,,,,,,,,,,,,,,,,,,,5c5cad3e4ee81200018eafe2,60a7d8a0e00e07df34c64a83,2021-05-21_17h00.15.713,Simcolourproject_2stim_asymm_v5,2020.2.10,Win32,60,60a5f9bf14d0aa2821c4bb84,,,720,-70.5,-260.5,1,0,0,response5disk,,3,19.5,-6.5,1,0,0,rectangle,19.5,-6.5,1,0,0,7,"[71,135,167,160,183,133,22,49,147,141,109,62,281,40,58,188,125,148,200,19]",19.5,-6.5,1,0,0,0,116,116,39,1,,,
,,,,,,,,,,,,,FF,,,,,,,,1.47,,,,,,,,,,,,,,,,,,,,,,,,,5c5cad3e4ee81200018eafe2,60a7d8a0e00e07df34c64a83,2021-05-21_17h00.15.713,Simcolourproject_2stim_asymm_v5,2020.2.10,Win32,60,60a5f9bf14d0aa2821c4bb84,,,1978,239.5,-180.5,1,0,0,response3disk,,5,9.5,-3.5,1,0,0,rectangle,9.5,-3.5,1,0,0,6,"[71,135,167,160,183,133,22,49,147,141,109,62,281,40,58,188,125,148,200,19]",9.5,-3.5,1,0,0,0,117,117,109,1,,,
,,,,,,,,,,,,,FF,,,,,,,,1.18,,,,,,,,,,,,,,,,,,,,,,,,,5c5cad3e4ee81200018eafe2,60a7d8a0e00e07df34c64a83,2021-05-21_17h00.15.713,Simcolourproject_2stim_asymm_v5,2020.2.10,Win32,60,60a5f9bf14d0aa2821c4bb84,,,3830,243.5,-113.5,1,0,0,response3disk,,5,-16.5,-16.5,1,0,0,rectangle,-16.5,-16.5,1,0,0,2,"[71,135,167,160,183,133,22,49,147,141,109,62,281,40,58,188,125,148,200,19]",-16.5,-16.5,1,0,0,0,118,118,60,1,,,
,,,,,,,,,,,,,FF,,,,,,,,1.132,,,,,,,,,,,,,,,,,,,,,,,,,5c5cad3e4ee81200018eafe2,60a7d8a0e00e07df34c64a83,2021-05-21_17h00.15.713,Simcolourproject_2stim_asymm_v5,2020.2.10,Win32,60,60a5f9bf14d0aa2821c4bb84,,,3146,-146.5,259.5,1,0,0,response7disk,,0,16.5,-10.5,1,0,0,rectangle,16.5,-10.5,1,0,0,6,"[71,135,167,160,183,133,22,49,147,141,109,62,281,40,58,188,125,148,200,19]",16.5,-10.5,1,0,0,0,119,119,95,1,,,
,,,,,,,,,,,,,FF,,,,,,,,1.28,,,,,,,,,,,,,,,,,,,,,,,,,5c5cad3e4ee81200018eafe2,60a7d8a0e00e07df34c64a83,2021-05-21_17h00.15.713,Simcolourproject_2stim_asymm_v5,2020.2.10,Win32,60,60a5f9bf14d0aa2821c4bb84,,,3711,-186.5,-130.5,1,0,0,response5disk,,0,16.5,-13.5,1,0,0,rectangle,16.5,-13.5,1,0,0,6,"[71,135,167,160,183,133,22,49,147,141,109,62,281,40,58,188,125,148,200,19]",16.5,-13.5,1,0,0,0,120,120,69,1,,,
,,,,,,,,,,,,,FF,,,,,,,,0.999,,,,,,,,,,,,,,,,,,,,,,,,,5c5cad3e4ee81200018eafe2,60a7d8a0e00e07df34c64a83,2021-05-21_17h00.15.713,Simcolourproject_2stim_asymm_v5,2020.2.10,Win32,60,60a5f9bf14d0aa2821c4bb84,,,2425,-220.5,-116.5,1,0,0,response5disk,,0,-10.5,-43.5,1,0,0,rectangle,-10.5,-43.5,1,0,0,2,"[71,135,167,160,183,133,22,49,147,141,109,62,281,40,58,188,125,148,200,19]",-10.5,-43.5,1,0,0,0,121,121,93,1,,,
,,,,,,,,,,,,,FF,,,,,,,,1.86,,,,,,,,,,,,,,,,,,,,,,,,,5c5cad3e4ee81200018eafe2,60a7d8a0e00e07df34c64a83,2021-05-21_17h00.15.713,Simcolourproject_2stim_asymm_v5,2020.2.10,Win32,60,60a5f9bf14d0aa2821c4bb84,,,1695,213.5,-166.5,1,0,0,response3disk,,5,23.5,-3.5,1,0,0,rectangle,23.5,-3.5,1,0,0,7,"[71,135,167,160,183,133,22,49,147,141,109,62,281,40,58,188,125,148,200,19]",23.5,-3.5,1,0,0,0,122,122,41,1,,,
,,,,,,,,,,,,,FF,,,,,,,,1.38,,,,,,,,,,,,,,,,,,,,,,,,,5c5cad3e4ee81200018eafe2,60a7d8a0e00e07df34c64a83,2021-05-21_17h00.15.713,Simcolourproject_2stim_asymm_v5,2020.2.10,Win32,60,60a5f9bf14d0aa2821c4bb84,,,3884,99.5,196.5,1,0,0,response1disk,,7,9.5,-6.5,1,0,0,rectangle,9.5,-6.5,1,0,0,1,"[71,135,167,160,183,133,22,49,147,141,109,62,281,40,58,188,125,148,200,19]",9.5,-6.5,1,0,0,0,123,123,148,1,,,
,,,,,,,,,,,,,FF,,,,,,,,1.37,,,,,,,,,,,,,,,,,,,,,,,,,5c5cad3e4ee81200018eafe2,60a7d8a0e00e07df34c64a83,2021-05-21_17h00.15.713,Simcolourproject_2stim_asymm_v5,2020.2.10,Win32,60,60a5f9bf14d0aa2821c4bb84,,,2570,166.5,103.5,1,0,0,response1disk,,6,23.5,16.5,1,0,0,rectangle,-250.5,-133.5,1,0,0,2,"[71,135,167,160,183,133,22,49,147,141,109,62,281,40,58,188,125,148,200,19]",-10.5,23.5,1,0,0,0,124,124,121,1,,response5disk_3,rectangle
,,,,,,,,,,,,,FF,,,,,,,,1.53,,,,,,,,,,,,,,,,,,,,,,,,,5c5cad3e4ee81200018eafe2,60a7d8a0e00e07df34c64a83,2021-05-21_17h00.15.713,Simcolourproject_2stim_asymm_v5,2020.2.10,Win32,60,60a5f9bf14d0aa2821c4bb84,,,561,279.5,-170.5,1,0,0,response3disk,,5,-3.5,6.5,1,0,0,rectangle,-3.5,6.5,1,0,0,6,"[71,135,167,160,183,133,22,49,147,141,109,62,281,40,58,188,125,148,200,19]",-3.5,6.5,1,0,0,0,125,125,96,1,,,
,,,,,,,,,,,,,FF,,,,,,,,0.871,,,,,,,,,,,,,,,,,,,,,,,,,5c5cad3e4ee81200018eafe2,60a7d8a0e00e07df34c64a83,2021-05-21_17h00.15.713,Simcolourproject_2stim_asymm_v5,2020.2.10,Win32,60,60a5f9bf14d0aa2821c4bb84,,,1418,153.5,319.5,1,0,0,response1disk,,7,-0.5,-20.5,1,0,0,rectangle,-0.5,-20.5,1,0,0,0,"[71,135,167,160,183,133,22,49,147,141,109,62,281,40,58,188,125,148,200,19]",-0.5,-20.5,1,0,0,0,126,126,73,1,,,
,,,,,,,,,,,,,FF,,,,,,,,1.479,,,,,,,,,,,,,,,,,,,,,,,,,5c5cad3e4ee81200018eafe2,60a7d8a0e00e07df34c64a83,2021-05-21_17h00.15.713,Simcolourproject_2stim_asymm_v5,2020.2.10,Win32,60,60a5f9bf14d0aa2821c4bb84,,,3521,216.5,119.5,1,0,0,response1disk,,6,26.5,-10.5,1,0,0,rectangle,26.5,-10.5,1,0,0,6,"[71,135,167,160,183,133,22,49,147,141,109,62,281,40,58,188,125,148,200,19]",26.5,-10.5,1,0,0,0,127,127,25,1,,,
,,,,,,,,,,,,,FF,,,,,,,,1.471,,,,,,,,,,,,,,,,,,,,,,,,,5c5cad3e4ee81200018eafe2,60a7d8a0e00e07df34c64a83,2021-05-21_17h00.15.713,Simcolourproject_2stim_asymm_v5,2020.2.10,Win32,60,60a5f9bf14d0aa2821c4bb84,,,1531,243.5,-190.5,1,0,0,response3disk,,5,-10.5,6.5,1,0,0,rectangle,-10.5,6.5,1,0,0,3,"[71,135,167,160,183,133,22,49,147,141,109,62,281,40,58,188,125,148,200,19]",-10.5,6.5,1,0,0,0,128,128,22,1,,,
,,,,,,,,,,,,,FF,,,,,,,,0.95,,,,,,,,,,,,,,,,,,,,,,,,,5c5cad3e4ee81200018eafe2,60a7d8a0e00e07df34c64a83,2021-05-21_17h00.15.713,Simcolourproject_2stim_asymm_v5,2020.2.10,Win32,60,60a5f9bf14d0aa2821c4bb84,,,4110,156.5,229.5,1,0,0,response1disk,,7,-13.5,-0.5,1,0,0,rectangle,-13.5,-0.5,1,0,0,0,"[71,135,167,160,183,133,22,49,147,141,109,62,281,40,58,188,125,148,200,19]",-13.5,-0.5,1,0,0,0,129,129,119,1,,,
,,,,,,,,,,,,,FF,,,,,,,,2.931,,,,,,,,,,,,,,,,,,,,,,,,,5c5cad3e4ee81200018eafe2,60a7d8a0e00e07df34c64a83,2021-05-21_17h00.15.713,Simcolourproject_2stim_asymm_v5,2020.2.10,Win32,60,60a5f9bf14d0aa2821c4bb84,,,2841,-123.5,-220.5,1,0,0,response5disk,,3,-3.5,3.5,1,0,0,rectangle,-3.5,3.5,1,0,0,4,"[71,135,167,160,183,133,22,49,147,141,109,62,281,40,58,188,125,148,200,19]",-3.5,3.5,1,0,0,0,130,130,104,1,,,
,,,,,,,,,,,,,FF,,,,,,,,1.42,,,,,,,,,,,,,,,,,,,,,,,,,5c5cad3e4ee81200018eafe2,60a7d8a0e00e07df34c64a83,2021-05-21_17h00.15.713,Simcolourproject_2stim_asymm_v5,2020.2.10,Win32,60,60a5f9bf14d0aa2821c4bb84,,,3082,266.5,149.5,1,0,0,response1disk,,6,36.5,-0.5,1,0,0,rectangle,36.5,-0.5,1,0,0,1,"[71,135,167,160,183,133,22,49,147,141,109,62,281,40,58,188,125,148,200,19]",36.5,-0.5,1,0,0,0,131,131,18,1,,,
,,,,,,,,,,,,,FF,,,,,,,,1.401,,,,,,,,,,,,,,,,,,,,,,,,,5c5cad3e4ee81200018eafe2,60a7d8a0e00e07df34c64a83,2021-05-21_17h00.15.713,Simcolourproject_2stim_asymm_v5,2020.2.10,Win32,60,60a5f9bf14d0aa2821c4bb84,,,1146,239.5,136.5,1,0,0,response1disk,,6,3.5,6.5,1,0,0,rectangle,-90.5,-260.5,1,0,0,3,"[71,135,167,160,183,133,22,49,147,141,109,62,281,40,58,188,125,148,200,19]",9.5,23.5,1,0,0,0,132,132,143,1,,response5disk_3,rectangle
,,,,,,,,,,,,,FF,,,,,,,,1.319,,,,,,,,,,,,,,,,,,,,,,,,,5c5cad3e4ee81200018eafe2,60a7d8a0e00e07df34c64a83,2021-05-21_17h00.15.713,Simcolourproject_2stim_asymm_v5,2020.2.10,Win32,60,60a5f9bf14d0aa2821c4bb84,,,2783,-143.5,-236.5,1,0,0,response5disk,,3,-30.5,-33.5,1,0,0,rectangle,-30.5,-33.5,1,0,0,3,"[71,135,167,160,183,133,22,49,147,141,109,62,281,40,58,188,125,148,200,19]",-30.5,-33.5,1,0,0,0,133,133,20,1,,,
,,,,,,,,,,,,,FF,,,,,,,,1.32,,,,,,,,,,,,,,,,,,,,,,,,,5c5cad3e4ee81200018eafe2,60a7d8a0e00e07df34c64a83,2021-05-21_17h00.15.713,Simcolourproject_2stim_asymm_v5,2020.2.10,Win32,60,60a5f9bf14d0aa2821c4bb84,,,159,76.5,-226.5,1,0,0,response3disk,,4,-6.5,16.5,1,0,0,rectangle,233.5,133.5,1,0,0,6,"[71,135,167,160,183,133,22,49,147,141,109,62,281,40,58,188,125,148,200,19]",3.5,-0.5,1,0,0,0,134,134,84,1,,response1disk_3,rectangle
,,,,,,,,,,,,,FF,,,,,,,,2.179,,,,,,,,,,,,,,,,,,,,,,,,,5c5cad3e4ee81200018eafe2,60a7d8a0e00e07df34c64a83,2021-05-21_17h00.15.713,Simcolourproject_2stim_asymm_v5,2020.2.10,Win32,60,60a5f9bf14d0aa2821c4bb84,,,3752,276.5,-83.5,1,0,0,response3disk,,5,16.5,6.5,1,0,0,rectangle,16.5,6.5,1,0,0,4,"[71,135,167,160,183,133,22,49,147,141,109,62,281,40,58,188,125,148,200,19]",16.5,6.5,1,0,0,0,135,135,88,1,,,
,,,,,,,,,,,,,FF,,,,,,,,0.8,,,,,,,,,,,,,,,,,,,,,,,,,5c5cad3e4ee81200018eafe2,60a7d8a0e00e07df34c64a83,2021-05-21_17h00.15.713,Simcolourproject_2stim_asymm_v5,2020.2.10,Win32,60,60a5f9bf14d0aa2821c4bb84,,,966,123.5,249.5,1,0,0,response1disk,,7,23.5,19.5,1,0,0,rectangle,23.5,19.5,1,0,0,2,"[71,135,167,160,183,133,22,49,147,141,109,62,281,40,58,188,125,148,200,19]",23.5,19.5,1,0,0,0,136,136,127,1,,,
,,,,,,,,,,,,,FF,,,,,,,,2.488,,,,,,,,,,,,,,,,,,,,,,,,,5c5cad3e4ee81200018eafe2,60a7d8a0e00e07df34c64a83,2021-05-21_17h00.15.713,Simcolourproject_2stim_asymm_v5,2020.2.10,Win32,60,60a5f9bf14d0aa2821c4bb84,,,2943,-256.5,-166.5,1,0,0,response5disk,,7,-6.5,3.5,1,0,0,rectangle,-6.5,3.5,1,0,0,3,"[71,135,167,160,183,133,22,49,147,141,109,62,281,40,58,188,125,148,200,19]",-6.5,3.5,1,0,0,0,137,137,87,1,,,
,,,,,,,,,,,,,FF,,,,,,,,1.981,,,,,,,,,,,,,,,,,,,,,,,,,5c5cad3e4ee81200018eafe2,60a7d8a0e00e07df34c64a83,2021-05-21_17h00.15.713,Simcolourproject_2stim_asymm_v5,2020.2.10,Win32,60,60a5f9bf14d0aa2821c4bb84,,,1208,259.5,143.5,1,0,0,response1disk,,6,29.5,-6.5,1,0,0,rectangle,29.5,-6.5,1,0,0,2,"[71,135,167,160,183,133,22,49,147,141,109,62,281,40,58,188,125,148,200,19]",29.5,-6.5,1,0,0,0,138,138,131,1,,,
,,,,,,,,,,,,,FF,,,,,,,,1.731,,,,,,,,,,,,,,,,,,,,,,,,,5c5cad3e4ee81200018eafe2,60a7d8a0e00e07df34c64a83,2021-05-21_17h00.15.713,Simcolourproject_2stim_asymm_v5,2020.2.10,Win32,60,60a5f9bf14d0aa2821c4bb84,,,1691,103.5,-250.5,1,0,0,response3disk,,4,13.5,3.5,1,0,0,rectangle,13.5,3.5,1,0,0,1,"[71,135,167,160,183,133,22,49,147,141,109,62,281,40,58,188,125,148,200,19]",13.5,3.5,1,0,0,0,139,139,129,1,,,
,,,,,,,,,,,,,FF,,,,,,,,1.45,,,,,,,,,,,,,,,,,,,,,,,,,5c5cad3e4ee81200018eafe2,60a7d8a0e00e07df34c64a83,2021-05-21_17h00.15.713,Simcolourproject_2stim_asymm_v5,2020.2.10,Win32,60,60a5f9bf14d0aa2821c4bb84,,,113,143.5,226.5,1,0,0,response1disk,,7,19.5,6.5,1,0,0,rectangle,-113.5,246.5,1,0,0,0,"[71,135,167,160,183,133,22,49,147,141,109,62,281,40,58,188,125,148,200,19]",26.5,26.5,1,0,0,0,140,140,70,1,,response7disk_3,rectangle
,,,,,,,,,,,,,FF,,,,,,,,1.9,,,,,,,,,,,,,,,,,,,,,,,,,5c5cad3e4ee81200018eafe2,60a7d8a0e00e07df34c64a83,2021-05-21_17h00.15.713,Simcolourproject_2stim_asymm_v5,2020.2.10,Win32,60,60a5f9bf14d0aa2821c4bb84,,,2810,133.5,249.5,1,0,0,response1disk,,7,6.5,23.5,1,0,0,rectangle,6.5,23.5,1,0,0,0,"[71,135,167,160,183,133,22,49,147,141,109,62,281,40,58,188,125,148,200,19]",6.5,23.5,1,0,0,0,141,141,26,1,,,
,,,,,,,,,,,,,FF,,,,,,,,1.03,,,,,,,,,,,,,,,,,,,,,,,,,5c5cad3e4ee81200018eafe2,60a7d8a0e00e07df34c64a83,2021-05-21_17h00.15.713,Simcolourproject_2stim_asymm_v5,2020.2.10,Win32,60,60a5f9bf14d0aa2821c4bb84,,,3035,99.5,226.5,1,0,0,response1disk,,7,23.5,3.5,1,0,0,rectangle,23.5,3.5,1,0,0,5,"[71,135,167,160,183,133,22,49,147,141,109,62,281,40,58,188,125,148,200,19]",23.5,3.5,1,0,0,0,142,142,158,1,,,
,,,,,,,,,,,,,FF,,,,,,,,1.27,,,,,,,,,,,,,,,,,,,,,,,,,5c5cad3e4ee81200018eafe2,60a7d8a0e00e07df34c64a83,2021-05-21_17h00.15.713,Simcolourproject_2stim_asymm_v5,2020.2.10,Win32,60,60a5f9bf14d0aa2821c4bb84,,,1455,-193.5,-140.5,1,0,0,response5disk,,7,16.5,-23.5,1,0,0,rectangle,16.5,-23.5,1,0,0,6,"[71,135,167,160,183,133,22,49,147,141,109,62,281,40,58,188,125,148,200,19]",16.5,-23.5,1,0,0,0,143,143,17,1,,,
,,,,,,,,,,,,,FF,,,,,,,,1.75,,,,,,,,,,,,,,,,,,,,,,,,,5c5cad3e4ee81200018eafe2,60a7d8a0e00e07df34c64a83,2021-05-21_17h00.15.713,Simcolourproject_2stim_asymm_v5,2020.2.10,Win32,60,60a5f9bf14d0aa2821c4bb84,,,999,223.5,139.5,1,0,0,response1disk,,6,33.5,6.5,1,0,0,rectangle,33.5,6.5,1,0,0,5,"[71,135,167,160,183,133,22,49,147,141,109,62,281,40,58,188,125,148,200,19]",33.5,6.5,1,0,0,0,144,144,15,1,,,
,,,,,,,,,,,,,FF,,,,,,,,1.4,,,,,,,,,,,,,,,,,,,,,,,,,5c5cad3e4ee81200018eafe2,60a7d8a0e00e07df34c64a83,2021-05-21_17h00.15.713,Simcolourproject_2stim_asymm_v5,2020.2.10,Win32,60,60a5f9bf14d0aa2821c4bb84,,,2250,179.5,119.5,1,0,0,response1disk,,6,9.5,6.5,1,0,0,rectangle,9.5,6.5,1,0,0,2,"[71,135,167,160,183,133,22,49,147,141,109,62,281,40,58,188,125,148,200,19]",9.5,6.5,1,0,0,0,145,145,106,1,,,
,,,,,,,,,,,,,FF,,,,,,,,1.72,,,,,,,,,,,,,,,,,,,,,,,,,5c5cad3e4ee81200018eafe2,60a7d8a0e00e07df34c64a83,2021-05-21_17h00.15.713,Simcolourproject_2stim_asymm_v5,2020.2.10,Win32,60,60a5f9bf14d0aa2821c4bb84,,,2348,229.5,86.5,1,0,0,response1disk,,6,19.5,6.5,1,0,0,rectangle,-253.5,123.5,1,0,0,1,"[71,135,167,160,183,133,22,49,147,141,109,62,281,40,58,188,125,148,200,19]",-3.5,13.5,1,0,0,0,146,146,50,1,,response7disk_3,rectangle
,,,,,,,,,,,,,FF,,,,,,,,1.15,,,,,,,,,,,,,,,,,,,,,,,,,5c5cad3e4ee81200018eafe2,60a7d8a0e00e07df34c64a83,2021-05-21_17h00.15.713,Simcolourproject_2stim_asymm_v5,2020.2.10,Win32,60,60a5f9bf14d0aa2821c4bb84,,,2203,69.5,299.5,1,0,0,response1disk,,7,26.5,23.5,1,0,0,rectangle,176.5,96.5,1,0,0,1,"[71,135,167,160,183,133,22,49,147,141,109,62,281,40,58,188,125,148,200,19]",43.5,13.5,1,0,0,0,147,147,3,1,,response1disk_3,rectangle
,,,,,,,,,,,,,FF,,,,,,,,0.969,,,,,,,,,,,,,,,,,,,,,,,,,5c5cad3e4ee81200018eafe2,60a7d8a0e00e07df34c64a83,2021-05-21_17h00.15.713,Simcolourproject_2stim_asymm_v5,2020.2.10,Win32,60,60a5f9bf14d0aa2821c4bb84,,,1074,186.5,143.5,1,0,0,response1disk,,6,66.5,13.5,1,0,0,rectangle,66.5,13.5,1,0,0,2,"[71,135,167,160,183,133,22,49,147,141,109,62,281,40,58,188,125,148,200,19]",66.5,13.5,1,0,0,0,148,148,141,1,,,
,,,,,,,,,,,,,FF,,,,,,,,1.3,,,,,,,,,,,,,,,,,,,,,,,,,5c5cad3e4ee81200018eafe2,60a7d8a0e00e07df34c64a83,2021-05-21_17h00.15.713,Simcolourproject_2stim_asymm_v5,2020.2.10,Win32,60,60a5f9bf14d0aa2821c4bb84,,,3377,246.5,-146.5,1,0,0,response3disk,,5,29.5,3.5,1,0,0,rectangle,29.5,3.5,1,0,0,4,"[71,135,167,160,183,133,22,49,147,141,109,62,281,40,58,188,125,148,200,19]",29.5,3.5,1,0,0,0,149,149,0,1,,,
,,,,,,,,,,,,,FF,,,,,,,,0.8,,,,,,,,,,,,,,,,,,,,,,,,,5c5cad3e4ee81200018eafe2,60a7d8a0e00e07df34c64a83,2021-05-21_17h00.15.713,Simcolourproject_2stim_asymm_v5,2020.2.10,Win32,60,60a5f9bf14d0aa2821c4bb84,,,143,123.5,269.5,1,0,0,response1disk,,7,46.5,9.5,1,0,0,rectangle,46.5,9.5,1,0,0,7,"[71,135,167,160,183,133,22,49,147,141,109,62,281,40,58,188,125,148,200,19]",46.5,9.5,1,0,0,0,150,150,42,1,,,
,,,,,,,,,,,,,FF,,,,,,,,1.149,,,,,,,,,,,,,,,,,,,,,,,,,5c5cad3e4ee81200018eafe2,60a7d8a0e00e07df34c64a83,2021-05-21_17h00.15.713,Simcolourproject_2stim_asymm_v5,2020.2.10,Win32,60,60a5f9bf14d0aa2821c4bb84,,,1584,299.5,123.5,1,0,0,response1disk,,6,13.5,3.5,1,0,0,rectangle,13.5,3.5,1,0,0,6,"[71,135,167,160,183,133,22,49,147,141,109,62,281,40,58,188,125,148,200,19]",13.5,3.5,1,0,0,0,151,151,64,1,,,
,,,,,,,,,,,,,FF,,,,,,,,2.329,,,,,,,,,,,,,,,,,,,,,,,,,5c5cad3e4ee81200018eafe2,60a7d8a0e00e07df34c64a83,2021-05-21_17h00.15.713,Simcolourproject_2stim_asymm_v5,2020.2.10,Win32,60,60a5f9bf14d0aa2821c4bb84,,,867,266.5,-103.5,1,0,0,response3disk,,5,33.5,-10.5,1,0,0,rectangle,33.5,-10.5,1,0,0,4,"[71,135,167,160,183,133,22,49,147,141,109,62,281,40,58,188,125,148,200,19]",33.5,-10.5,1,0,0,0,152,152,114,1,,,
,,,,,,,,,,,,,FF,,,,,,,,1.401,,,,,,,,,,,,,,,,,,,,,,,,,5c5cad3e4ee81200018eafe2,60a7d8a0e00e07df34c64a83,2021-05-21_17h00.15.713,Simcolourproject_2stim_asymm_v5,2020.2.10,Win32,60,60a5f9bf14d0aa2821c4bb84,,,717,-110.5,223.5,1,0,0,response7disk,,0,-0.5,19.5,1,0,0,rectangle,-0.5,19.5,1,0,0,6,"[71,135,167,160,183,133,22,49,147,141,109,62,281,40,58,188,125,148,200,19]",-0.5,19.5,1,0,0,0,153,153,37,1,,,
,,,,,,,,,,,,,FF,,,,,,,,1.62,,,,,,,,,,,,,,,,,,,,,,,,,5c5cad3e4ee81200018eafe2,60a7d8a0e00e07df34c64a83,2021-05-21_17h00.15.713,Simcolourproject_2stim_asymm_v5,2020.2.10,Win32,60,60a5f9bf14d0aa2821c4bb84,,,239,239.5,143.5,1,0,0,response1disk,,6,13.5,19.5,1,0,0,rectangle,13.5,19.5,1,0,0,2,"[71,135,167,160,183,133,22,49,147,141,109,62,281,40,58,188,125,148,200,19]",13.5,19.5,1,0,0,0,154,154,65,1,,,
,,,,,,,,,,,,,FF,,,,,,,,1.58,,,,,,,,,,,,,,,,,,,,,,,,,5c5cad3e4ee81200018eafe2,60a7d8a0e00e07df34c64a83,2021-05-21_17h00.15.713,Simcolourproject_2stim_asymm_v5,2020.2.10,Win32,60,60a5f9bf14d0aa2821c4bb84,,,1968,179.5,-286.5,1,0,0,response3disk,,4,56.5,-13.5,1,0,0,rectangle,56.5,-13.5,1,0,0,3,"[71,135,167,160,183,133,22,49,147,141,109,62,281,40,58,188,125,148,200,19]",56.5,-13.5,1,0,0,0,155,155,112,1,,,
,,,,,,,,,,,,,FF,,,,,,,,1.2,,,,,,,,,,,,,,,,,,,,,,,,,5c5cad3e4ee81200018eafe2,60a7d8a0e00e07df34c64a83,2021-05-21_17h00.15.713,Simcolourproject_2stim_asymm_v5,2020.2.10,Win32,60,60a5f9bf14d0aa2821c4bb84,,,2013,169.5,259.5,1,0,0,response1disk,,7,26.5,19.5,1,0,0,rectangle,26.5,19.5,1,0,0,4,"[71,135,167,160,183,133,22,49,147,141,109,62,281,40,58,188,125,148,200,19]",26.5,19.5,1,0,0,0,156,156,29,1,,,
,,,,,,,,,,,,,FF,,,,,,,,0.881,,,,,,,,,,,,,,,,,,,,,,,,,5c5cad3e4ee81200018eafe2,60a7d8a0e00e07df34c64a83,2021-05-21_17h00.15.713,Simcolourproject_2stim_asymm_v5,2020.2.10,Win32,60,60a5f9bf14d0aa2821c4bb84,,,2445,89.5,236.5,1,0,0,response1disk,,7,-0.5,13.5,1,0,0,rectangle,-0.5,13.5,1,0,0,7,"[71,135,167,160,183,133,22,49,147,141,109,62,281,40,58,188,125,148,200,19]",-0.5,13.5,1,0,0,0,157,157,7,1,,,
,,,,,,,,,,,,,FF,,,,,,,,2.051,,,,,,,,,,,,,,,,,,,,,,,,,5c5cad3e4ee81200018eafe2,60a7d8a0e00e07df34c64a83,2021-05-21_17h00.15.713,Simcolourproject_2stim_asymm_v5,2020.2.10,Win32,60,60a5f9bf14d0aa2821c4bb84,,,2367,-136.5,-303.5,1,0,0,response5disk,,3,-10.5,-13.5,1,0,0,rectangle,-10.5,-13.5,1,0,0,6,"[71,135,167,160,183,133,22,49,147,141,109,62,281,40,58,188,125,148,200,19]",-10.5,-13.5,1,0,0,0,158,158,89,1,,,
,,,,,,,,,,,,,FF,,,,,,,,0.971,,,,,,,,,,,,,,,,,,,,,,,,,5c5cad3e4ee81200018eafe2,60a7d8a0e00e07df34c64a83,2021-05-21_17h00.15.713,Simcolourproject_2stim_asymm_v5,2020.2.10,Win32,60,60a5f9bf14d0aa2821c4bb84,,,2401,123.5,263.5,1,0,0,response1disk,,7,29.5,-6.5,1,0,0,rectangle,-113.5,-253.5,1,0,0,3,"[71,135,167,160,183,133,22,49,147,141,109,62,281,40,58,188,125,148,200,19]",6.5,9.5,1,0,0,0,159,159,63,1,,response5disk_3,rectangle
,,,,,,,,,,,,,FF,,,,,,,,0.901,,,,,,,,,,,,,,,,,,,,,,,,,5c5cad3e4ee81200018eafe2,60a7d8a0e00e07df34c64a83,2021-05-21_17h00.15.713,Simcolourproject_2stim_asymm_v5,2020.2.10,Win32,60,60a5f9bf14d0aa2821c4bb84,,,229,129.5,263.5,1,0,0,response1disk,,7,9.5,13.5,1,0,0,rectangle,9.5,13.5,1,0,0,0,"[71,135,167,160,183,133,22,49,147,141,109,62,281,40,58,188,125,148,200,19]",9.5,13.5,1,0,0,0,160,160,101,1,,,
,,,,,,,,,,,,,FF,,,,,,,,0.9,,,,,,,,,,,,,,,,,,,,,,,,,5c5cad3e4ee81200018eafe2,60a7d8a0e00e07df34c64a83,2021-05-21_17h00.15.713,Simcolourproject_2stim_asymm_v5,2020.2.10,Win32,60,60a5f9bf14d0aa2821c4bb84,,,3165,106.5,223.5,1,0,0,response1disk,,7,19.5,19.5,1,0,0,rectangle,19.5,19.5,1,0,0,4,"[71,135,167,160,183,133,22,49,147,141,109,62,281,40,58,188,125,148,200,19]",19.5,19.5,1,0,0,1,0,161,59,1,,,
,,,,,,,,,,,,,FF,,,,,,,,0.87,,,,,,,,,,,,,,,,,,,,,,,,,5c5cad3e4ee81200018eafe2,60a7d8a0e00e07df34c64a83,2021-05-21_17h00.15.713,Simcolourproject_2stim_asymm_v5,2020.2.10,Win32,60,60a5f9bf14d0aa2821c4bb84,,,670,89.5,246.5,1,0,0,response1disk,,7,9.5,9.5,1,0,0,rectangle,9.5,9.5,1,0,0,7,"[71,135,167,160,183,133,22,49,147,141,109,62,281,40,58,188,125,148,200,19]",9.5,9.5,1,0,0,1,1,162,130,1,,,
,,,,,,,,,,,,,FF,,,,,,,,0.929,,,,,,,,,,,,,,,,,,,,,,,,,5c5cad3e4ee81200018eafe2,60a7d8a0e00e07df34c64a83,2021-05-21_17h00.15.713,Simcolourproject_2stim_asymm_v5,2020.2.10,Win32,60,60a5f9bf14d0aa2821c4bb84,,,3082,123.5,226.5,1,0,0,response1disk,,7,9.5,-3.5,1,0,0,rectangle,9.5,-3.5,1,0,0,7,"[71,135,167,160,183,133,22,49,147,141,109,62,281,40,58,188,125,148,200,19]",9.5,-3.5,1,0,0,1,2,163,83,1,,,
,,,,,,,,,,,,,FF,,,,,,,,0.8,,,,,,,,,,,,,,,,,,,,,,,,,5c5cad3e4ee81200018eafe2,60a7d8a0e00e07df34c64a83,2021-05-21_17h00.15.713,Simcolourproject_2stim_asymm_v5,2020.2.10,Win32,60,60a5f9bf14d0aa2821c4bb84,,,391,103.5,223.5,1,0,0,response1disk,,7,13.5,13.5,1,0,0,rectangle,13.5,13.5,1,0,0,5,"[71,135,167,160,183,133,22,49,147,141,109,62,281,40,58,188,125,148,200,19]",13.5,13.5,1,0,0,1,3,164,104,1,,,
,,,,,,,,,,,,,FF,,,,,,,,1.58,,,,,,,,,,,,,,,,,,,,,,,,,5c5cad3e4ee81200018eafe2,60a7d8a0e00e07df34c64a83,2021-05-21_17h00.15.713,Simcolourproject_2stim_asymm_v5,2020.2.10,Win32,60,60a5f9bf14d0aa2821c4bb84,,,294,66.5,233.5,1,0,0,response1disk,,7,16.5,-33.5,1,0,0,rectangle,16.5,-33.5,1,0,0,4,"[71,135,167,160,183,133,22,49,147,141,109,62,281,40,58,188,125,148,200,19]",16.5,-33.5,1,0,0,1,4,165,24,1,,,
,,,,,,,,,,,,,FF,,,,,,,,1.352,,,,,,,,,,,,,,,,,,,,,,,,,5c5cad3e4ee81200018eafe2,60a7d8a0e00e07df34c64a83,2021-05-21_17h00.15.713,Simcolourproject_2stim_asymm_v5,2020.2.10,Win32,60,60a5f9bf14d0aa2821c4bb84,,,717,-90.5,259.5,1,0,0,response7disk,,0,63.5,-10.5,1,0,0,rectangle,69.5,293.5,1,0,0,7,"[71,135,167,160,183,133,22,49,147,141,109,62,281,40,58,188,125,148,200,19]",36.5,16.5,1,0,0,1,5,166,41,1,,response1disk_3,rectangle
,,,,,,,,,,,,,FF,,,,,,,,1.27,,,,,,,,,,,,,,,,,,,,,,,,,5c5cad3e4ee81200018eafe2,60a7d8a0e00e07df34c64a83,2021-05-21_17h00.15.713,Simcolourproject_2stim_asymm_v5,2020.2.10,Win32,60,60a5f9bf14d0aa2821c4bb84,,,3676,-196.5,-100.5,1,0,0,response5disk,,7,-6.5,-10.5,1,0,0,rectangle,-6.5,-10.5,1,0,0,4,"[71,135,167,160,183,133,22,49,147,141,109,62,281,40,58,188,125,148,200,19]",-6.5,-10.5,1,0,0,1,6,167,91,1,,,
,,,,,,,,,,,,,FF,,,,,,,,1.302,,,,,,,,,,,,,,,,,,,,,,,,,5c5cad3e4ee81200018eafe2,60a7d8a0e00e07df34c64a83,2021-05-21_17h00.15.713,Simcolourproject_2stim_asymm_v5,2020.2.10,Win32,60,60a5f9bf14d0aa2821c4bb84,,,4,-83.5,-196.5,1,0,0,response5disk,,3,3.5,-0.5,1,0,0,rectangle,3.5,-0.5,1,0,0,4,"[71,135,167,160,183,133,22,49,147,141,109,62,281,40,58,188,125,148,200,19]",3.5,-0.5,1,0,0,1,7,168,80,1,,,
,,,,,,,,,,,,,FF,,,,,,,,0.999,,,,,,,,,,,,,,,,,,,,,,,,,5c5cad3e4ee81200018eafe2,60a7d8a0e00e07df34c64a83,2021-05-21_17h00.15.713,Simcolourproject_2stim_asymm_v5,2020.2.10,Win32,60,60a5f9bf14d0aa2821c4bb84,,,2026,-176.5,-90.5,1,0,0,response5disk,,3,26.5,9.5,1,0,0,rectangle,26.5,9.5,1,0,0,4,"[71,135,167,160,183,133,22,49,147,141,109,62,281,40,58,188,125,148,200,19]",26.5,9.5,1,0,0,1,8,169,154,1,,,
,,,,,,,,,,,,,FF,,,,,,,,1.069,,,,,,,,,,,,,,,,,,,,,,,,,5c5cad3e4ee81200018eafe2,60a7d8a0e00e07df34c64a83,2021-05-21_17h00.15.713,Simcolourproject_2stim_asymm_v5,2020.2.10,Win32,60,60a5f9bf14d0aa2821c4bb84,,,643,259.5,113.5,1,0,0,response1disk,,6,33.5,-10.5,1,0,0,rectangle,33.5,-10.5,1,0,0,6,"[71,135,167,160,183,133,22,49,147,141,109,62,281,40,58,188,125,148,200,19]",33.5,-10.5,1,0,0,1,9,170,82,1,,,
,,,,,,,,,,,,,FF,,,,,,,,0.93,,,,,,,,,,,,,,,,,,,,,,,,,5c5cad3e4ee81200018eafe2,60a7d8a0e00e07df34c64a83,2021-05-21_17h00.15.713,Simcolourproject_2stim_asymm_v5,2020.2.10,Win32,60,60a5f9bf14d0aa2821c4bb84,,,3611,146.5,306.5,1,0,0,response1disk,,7,6.5,19.5,1,0,0,rectangle,6.5,19.5,1,0,0,7,"[71,135,167,160,183,133,22,49,147,141,109,62,281,40,58,188,125,148,200,19]",6.5,19.5,1,0,0,1,10,171,57,1,,,
,,,,,,,,,,,,,FF,,,,,,,,1.121,,,,,,,,,,,,,,,,,,,,,,,,,5c5cad3e4ee81200018eafe2,60a7d8a0e00e07df34c64a83,2021-05-21_17h00.15.713,Simcolourproject_2stim_asymm_v5,2020.2.10,Win32,60,60a5f9bf14d0aa2821c4bb84,,,3248,-113.5,-196.5,1,0,0,response5disk,,3,-16.5,-10.5,1,0,0,rectangle,-16.5,-10.5,1,0,0,7,"[71,135,167,160,183,133,22,49,147,141,109,62,281,40,58,188,125,148,200,19]",-16.5,-10.5,1,0,0,1,11,172,73,1,,,
,,,,,,,,,,,,,FF,,,,,,,,1.151,,,,,,,,,,,,,,,,,,,,,,,,,5c5cad3e4ee81200018eafe2,60a7d8a0e00e07df34c64a83,2021-05-21_17h00.15.713,Simcolourproject_2stim_asymm_v5,2020.2.10,Win32,60,60a5f9bf14d0aa2821c4bb84,,,435,-80.5,-196.5,1,0,0,response5disk,,3,23.5,23.5,1,0,0,rectangle,23.5,23.5,1,0,0,2,"[71,135,167,160,183,133,22,49,147,141,109,62,281,40,58,188,125,148,200,19]",23.5,23.5,1,0,0,1,12,173,49,1,,,
,,,,,,,,,,,,,FF,,,,,,,,0.8,,,,,,,,,,,,,,,,,,,,,,,,,5c5cad3e4ee81200018eafe2,60a7d8a0e00e07df34c64a83,2021-05-21_17h00.15.713,Simcolourproject_2stim_asymm_v5,2020.2.10,Win32,60,60a5f9bf14d0aa2821c4bb84,,,2458,156.5,283.5,1,0,0,response1disk,,7,39.5,29.5,1,0,0,rectangle,39.5,29.5,1,0,0,2,"[71,135,167,160,183,133,22,49,147,141,109,62,281,40,58,188,125,148,200,19]",39.5,29.5,1,0,0,1,13,174,55,1,,,
,,,,,,,,,,,,,FF,,,,,,,,1.451,,,,,,,,,,,,,,,,,,,,,,,,,5c5cad3e4ee81200018eafe2,60a7d8a0e00e07df34c64a83,2021-05-21_17h00.15.713,Simcolourproject_2stim_asymm_v5,2020.2.10,Win32,60,60a5f9bf14d0aa2821c4bb84,,,1914,219.5,-93.5,1,0,0,response3disk,,5,29.5,23.5,1,0,0,rectangle,29.5,23.5,1,0,0,3,"[71,135,167,160,183,133,22,49,147,141,109,62,281,40,58,188,125,148,200,19]",29.5,23.5,1,0,0,1,14,175,113,1,,,
,,,,,,,,,,,,,FF,,,,,,,,1.78,,,,,,,,,,,,,,,,,,,,,,,,,5c5cad3e4ee81200018eafe2,60a7d8a0e00e07df34c64a83,2021-05-21_17h00.15.713,Simcolourproject_2stim_asymm_v5,2020.2.10,Win32,60,60a5f9bf14d0aa2821c4bb84,,,1911,246.5,103.5,1,0,0,response1disk,,6,29.5,-6.5,1,0,0,rectangle,29.5,-6.5,1,0,0,3,"[71,135,167,160,183,133,22,49,147,141,109,62,281,40,58,188,125,148,200,19]",29.5,-6.5,1,0,0,1,15,176,76,1,,,
,,,,,,,,,,,,,FF,,,,,,,,0.92,,,,,,,,,,,,,,,,,,,,,,,,,5c5cad3e4ee81200018eafe2,60a7d8a0e00e07df34c64a83,2021-05-21_17h00.15.713,Simcolourproject_2stim_asymm_v5,2020.2.10,Win32,60,60a5f9bf14d0aa2821c4bb84,,,4217,103.5,263.5,1,0,0,response1disk,,7,-20.5,-23.5,1,0,0,rectangle,-20.5,-23.5,1,0,0,5,"[71,135,167,160,183,133,22,49,147,141,109,62,281,40,58,188,125,148,200,19]",-20.5,-23.5,1,0,0,1,16,177,86,1,,,
,,,,,,,,,,,,,FF,,,,,,,,0.8,,,,,,,,,,,,,,,,,,,,,,,,,5c5cad3e4ee81200018eafe2,60a7d8a0e00e07df34c64a83,2021-05-21_17h00.15.713,Simcolourproject_2stim_asymm_v5,2020.2.10,Win32,60,60a5f9bf14d0aa2821c4bb84,,,1929,109.5,213.5,1,0,0,response1disk,,7,26.5,26.5,1,0,0,rectangle,26.5,26.5,1,0,0,4,"[71,135,167,160,183,133,22,49,147,141,109,62,281,40,58,188,125,148,200,19]",26.5,26.5,1,0,0,1,17,178,16,1,,,
,,,,,,,,,,,,,FF,,,,,,,,0.921,,,,,,,,,,,,,,,,,,,,,,,,,5c5cad3e4ee81200018eafe2,60a7d8a0e00e07df34c64a83,2021-05-21_17h00.15.713,Simcolourproject_2stim_asymm_v5,2020.2.10,Win32,60,60a5f9bf14d0aa2821c4bb84,,,692,93.5,219.5,1,0,0,response1disk,,7,-6.5,29.5,1,0,0,rectangle,-6.5,29.5,1,0,0,0,"[71,135,167,160,183,133,22,49,147,141,109,62,281,40,58,188,125,148,200,19]",-6.5,29.5,1,0,0,1,18,179,38,1,,,
,,,,,,,,,,,,,FF,,,,,,,,0.9,,,,,,,,,,,,,,,,,,,,,,,,,5c5cad3e4ee81200018eafe2,60a7d8a0e00e07df34c64a83,2021-05-21_17h00.15.713,Simcolourproject_2stim_asymm_v5,2020.2.10,Win32,60,60a5f9bf14d0aa2821c4bb84,,,267,99.5,216.5,1,0,0,response1disk,,7,13.5,-0.5,1,0,0,rectangle,13.5,-0.5,1,0,0,4,"[71,135,167,160,183,133,22,49,147,141,109,62,281,40,58,188,125,148,200,19]",13.5,-0.5,1,0,0,1,19,180,42,1,,,
,,,,,,,,,,,,,FF,,,,,,,,0.829,,,,,,,,,,,,,,,,,,,,,,,,,5c5cad3e4ee81200018eafe2,60a7d8a0e00e07df34c64a83,2021-05-21_17h00.15.713,Simcolourproject_2stim_asymm_v5,2020.2.10,Win32,60,60a5f9bf14d0aa2821c4bb84,,,2689,96.5,256.5,1,0,0,response1disk,,7,19.5,6.5,1,0,0,rectangle,19.5,6.5,1,0,0,6,"[71,135,167,160,183,133,22,49,147,141,109,62,281,40,58,188,125,148,200,19]",19.5,6.5,1,0,0,1,20,181,101,1,,,
,,,,,,,,,,,,,FF,,,,,,,,2.08,,,,,,,,,,,,,,,,,,,,,,,,,5c5cad3e4ee81200018eafe2,60a7d8a0e00e07df34c64a83,2021-05-21_17h00.15.713,Simcolourproject_2stim_asymm_v5,2020.2.10,Win32,60,60a5f9bf14d0aa2821c4bb84,,,3049,-226.5,-153.5,1,0,0,response5disk,,7,-43.5,-16.5,1,0,0,rectangle,-126.5,289.5,1,0,0,0,"[71,135,167,160,183,133,22,49,147,141,109,62,281,40,58,188,125,148,200,19]",-10.5,6.5,1,0,0,1,21,182,56,1,,response7disk_3,rectangle
,,,,,,,,,,,,,FF,,,,,,,,0.93,,,,,,,,,,,,,,,,,,,,,,,,,5c5cad3e4ee81200018eafe2,60a7d8a0e00e07df34c64a83,2021-05-21_17h00.15.713,Simcolourproject_2stim_asymm_v5,2020.2.10,Win32,60,60a5f9bf14d0aa2821c4bb84,,,2401,136.5,219.5,1,0,0,response1disk,,7,16.5,-13.5,1,0,0,rectangle,16.5,-13.5,1,0,0,7,"[71,135,167,160,183,133,22,49,147,141,109,62,281,40,58,188,125,148,200,19]",16.5,-13.5,1,0,0,1,22,183,132,1,,,
,,,,,,,,,,,,,FF,,,,,,,,1.351,,,,,,,,,,,,,,,,,,,,,,,,,5c5cad3e4ee81200018eafe2,60a7d8a0e00e07df34c64a83,2021-05-21_17h00.15.713,Simcolourproject_2stim_asymm_v5,2020.2.10,Win32,60,60a5f9bf14d0aa2821c4bb84,,,2533,-113.5,-180.5,1,0,0,response5disk,,3,13.5,6.5,1,0,0,rectangle,13.5,6.5,1,0,0,3,"[71,135,167,160,183,133,22,49,147,141,109,62,281,40,58,188,125,148,200,19]",13.5,6.5,1,0,0,1,23,184,153,1,,,
,,,,,,,,,,,,,FF,,,,,,,,0.98,,,,,,,,,,,,,,,,,,,,,,,,,5c5cad3e4ee81200018eafe2,60a7d8a0e00e07df34c64a83,2021-05-21_17h00.15.713,Simcolourproject_2stim_asymm_v5,2020.2.10,Win32,60,60a5f9bf14d0aa2821c4bb84,,,2558,163.5,216.5,1,0,0,response1disk,,7,19.5,-23.5,1,0,0,rectangle,19.5,-23.5,1,0,0,5,"[71,135,167,160,183,133,22,49,147,141,109,62,281,40,58,188,125,148,200,19]",19.5,-23.5,1,0,0,1,24,185,93,1,,,
,,,,,,,,,,,,,FF,,,,,,,,0.889,,,,,,,,,,,,,,,,,,,,,,,,,5c5cad3e4ee81200018eafe2,60a7d8a0e00e07df34c64a83,2021-05-21_17h00.15.713,Simcolourproject_2stim_asymm_v5,2020.2.10,Win32,60,60a5f9bf14d0aa2821c4bb84,,,2632,126.5,236.5,1,0,0,response1disk,,7,-6.5,-3.5,1,0,0,rectangle,-6.5,-3.5,1,0,0,7,"[71,135,167,160,183,133,22,49,147,141,109,62,281,40,58,188,125,148,200,19]",-6.5,-3.5,1,0,0,1,25,186,75,1,,,
,,,,,,,,,,,,,FF,,,,,,,,0.8,,,,,,,,,,,,,,,,,,,,,,,,,5c5cad3e4ee81200018eafe2,60a7d8a0e00e07df34c64a83,2021-05-21_17h00.15.713,Simcolourproject_2stim_asymm_v5,2020.2.10,Win32,60,60a5f9bf14d0aa2821c4bb84,,,2334,103.5,216.5,1,0,0,response1disk,,7,-0.5,6.5,1,0,0,rectangle,139.5,236.5,1,0,0,7,"[71,135,167,160,183,133,22,49,147,141,109,62,281,40,58,188,125,148,200,19]",36.5,3.5,1,0,0,1,26,187,20,1,,response1disk_3,rectangle
,,,,,,,,,,,,,FF,,,,,,,,0.951,,,,,,,,,,,,,,,,,,,,,,,,,5c5cad3e4ee81200018eafe2,60a7d8a0e00e07df34c64a83,2021-05-21_17h00.15.713,Simcolourproject_2stim_asymm_v5,2020.2.10,Win32,60,60a5f9bf14d0aa2821c4bb84,,,2810,126.5,236.5,1,0,0,response1disk,,7,23.5,13.5,1,0,0,rectangle,23.5,13.5,1,0,0,6,"[71,135,167,160,183,133,22,49,147,141,109,62,281,40,58,188,125,148,200,19]",23.5,13.5,1,0,0,1,27,188,144,1,,,
,,,,,,,,,,,,,FF,,,,,,,,0.81,,,,,,,,,,,,,,,,,,,,,,,,,5c5cad3e4ee81200018eafe2,60a7d8a0e00e07df34c64a83,2021-05-21_17h00.15.713,Simcolourproject_2stim_asymm_v5,2020.2.10,Win32,60,60a5f9bf14d0aa2821c4bb84,,,143,116.5,249.5,1,0,0,response1disk,,7,33.5,6.5,1,0,0,rectangle,33.5,6.5,1,0,0,7,"[71,135,167,160,183,133,22,49,147,141,109,62,281,40,58,188,125,148,200,19]",33.5,6.5,1,0,0,1,28,189,45,1,,,
,,,,,,,,,,,,,FF,,,,,,,,1.2,,,,,,,,,,,,,,,,,,,,,,,,,5c5cad3e4ee81200018eafe2,60a7d8a0e00e07df34c64a83,2021-05-21_17h00.15.713,Simcolourproject_2stim_asymm_v5,2020.2.10,Win32,60,60a5f9bf14d0aa2821c4bb84,,,2837,-110.5,-233.5,1,0,0,response5disk,,3,-0.5,-10.5,1,0,0,rectangle,-0.5,-10.5,1,0,0,0,"[71,135,167,160,183,133,22,49,147,141,109,62,281,40,58,188,125,148,200,19]",-0.5,-10.5,1,0,0,1,29,190,64,1,,,
,,,,,,,,,,,,,FF,,,,,,,,0.897,,,,,,,,,,,,,,,,,,,,,,,,,5c5cad3e4ee81200018eafe2,60a7d8a0e00e07df34c64a83,2021-05-21_17h00.15.713,Simcolourproject_2stim_asymm_v5,2020.2.10,Win32,60,60a5f9bf14d0aa2821c4bb84,,,2039,-93.5,-210.5,1,0,0,response5disk,,3,6.5,16.5,1,0,0,rectangle,6.5,16.5,1,0,0,0,"[71,135,167,160,183,133,22,49,147,141,109,62,281,40,58,188,125,148,200,19]",6.5,16.5,1,0,0,1,30,191,46,1,,,
,,,,,,,,,,,,,FF,,,,,,,,0.77,,,,,,,,,,,,,,,,,,,,,,,,,5c5cad3e4ee81200018eafe2,60a7d8a0e00e07df34c64a83,2021-05-21_17h00.15.713,Simcolourproject_2stim_asymm_v5,2020.2.10,Win32,60,60a5f9bf14d0aa2821c4bb84,,,966,96.5,249.5,1,0,0,response1disk,,7,-3.5,-16.5,1,0,0,rectangle,-3.5,-16.5,1,0,0,3,"[71,135,167,160,183,133,22,49,147,141,109,62,281,40,58,188,125,148,200,19]",-3.5,-16.5,1,0,0,1,31,192,33,1,,,
,,,,,,,,,,,,,FF,,,,,,,,1.6,,,,,,,,,,,,,,,,,,,,,,,,,5c5cad3e4ee81200018eafe2,60a7d8a0e00e07df34c64a83,2021-05-21_17h00.15.713,Simcolourproject_2stim_asymm_v5,2020.2.10,Win32,60,60a5f9bf14d0aa2821c4bb84,,,2419,123.5,-233.5,1,0,0,response3disk,,4,16.5,6.5,1,0,0,rectangle,16.5,6.5,1,0,0,0,"[71,135,167,160,183,133,22,49,147,141,109,62,281,40,58,188,125,148,200,19]",16.5,6.5,1,0,0,1,32,193,60,1,,,
,,,,,,,,,,,,,FF,,,,,,,,0.751,,,,,,,,,,,,,,,,,,,,,,,,,5c5cad3e4ee81200018eafe2,60a7d8a0e00e07df34c64a83,2021-05-21_17h00.15.713,Simcolourproject_2stim_asymm_v5,2020.2.10,Win32,60,60a5f9bf14d0aa2821c4bb84,,,42,123.5,239.5,1,0,0,response1disk,,7,16.5,-3.5,1,0,0,rectangle,16.5,-3.5,1,0,0,6,"[71,135,167,160,183,133,22,49,147,141,109,62,281,40,58,188,125,148,200,19]",16.5,-3.5,1,0,0,1,33,194,23,1,,,
,,,,,,,,,,,,,FF,,,,,,,,0.881,,,,,,,,,,,,,,,,,,,,,,,,,5c5cad3e4ee81200018eafe2,60a7d8a0e00e07df34c64a83,2021-05-21_17h00.15.713,Simcolourproject_2stim_asymm_v5,2020.2.10,Win32,60,60a5f9bf14d0aa2821c4bb84,,,1208,106.5,239.5,1,0,0,response1disk,,7,9.5,-10.5,1,0,0,rectangle,9.5,-10.5,1,0,0,6,"[71,135,167,160,183,133,22,49,147,141,109,62,281,40,58,188,125,148,200,19]",9.5,-10.5,1,0,0,1,34,195,109,1,,,
,,,,,,,,,,,,,FF,,,,,,,,1.779,,,,,,,,,,,,,,,,,,,,,,,,,5c5cad3e4ee81200018eafe2,60a7d8a0e00e07df34c64a83,2021-05-21_17h00.15.713,Simcolourproject_2stim_asymm_v5,2020.2.10,Win32,60,60a5f9bf14d0aa2821c4bb84,,,867,269.5,106.5,1,0,0,response1disk,,6,9.5,6.5,1,0,0,rectangle,9.5,6.5,1,0,0,2,"[71,135,167,160,183,133,22,49,147,141,109,62,281,40,58,188,125,148,200,19]",9.5,6.5,1,0,0,1,35,196,25,1,,,
,,,,,,,,,,,,,FF,,,,,,,,1.43,,,,,,,,,,,,,,,,,,,,,,,,,5c5cad3e4ee81200018eafe2,60a7d8a0e00e07df34c64a83,2021-05-21_17h00.15.713,Simcolourproject_2stim_asymm_v5,2020.2.10,Win32,60,60a5f9bf14d0aa2821c4bb84,,,1691,266.5,-180.5,1,0,0,response3disk,,5,-43.5,-3.5,1,0,0,rectangle,-43.5,-3.5,1,0,0,1,"[71,135,167,160,183,133,22,49,147,141,109,62,281,40,58,188,125,148,200,19]",-43.5,-3.5,1,0,0,1,36,197,138,1,,,
,,,,,,,,,,,,,FF,,,,,,,,0.721,,,,,,,,,,,,,,,,,,,,,,,,,5c5cad3e4ee81200018eafe2,60a7d8a0e00e07df34c64a83,2021-05-21_17h00.15.713,Simcolourproject_2stim_asymm_v5,2020.2.10,Win32,60,60a5f9bf14d0aa2821c4bb84,,,2124,123.5,273.5,1,0,0,response1disk,,7,16.5,23.5,1,0,0,rectangle,16.5,23.5,1,0,0,7,"[71,135,167,160,183,133,22,49,147,141,109,62,281,40,58,188,125,148,200,19]",16.5,23.5,1,0,0,1,37,198,85,1,,,
,,,,,,,,,,,,,FF,,,,,,,,0.78,,,,,,,,,,,,,,,,,,,,,,,,,5c5cad3e4ee81200018eafe2,60a7d8a0e00e07df34c64a83,2021-05-21_17h00.15.713,Simcolourproject_2stim_asymm_v5,2020.2.10,Win32,60,60a5f9bf14d0aa2821c4bb84,,,3614,113.5,239.5,1,0,0,response1disk,,7,-20.5,-23.5,1,0,0,rectangle,249.5,-126.5,1,0,0,5,"[71,135,167,160,183,133,22,49,147,141,109,62,281,40,58,188,125,148,200,19]",3.5,6.5,1,0,0,1,38,199,58,1,,response3disk_3,rectangle
,,,,,,,,,,,,,FF,,,,,,,,1.819,,,,,,,,,,,,,,,,,,,,,,,,,5c5cad3e4ee81200018eafe2,60a7d8a0e00e07df34c64a83,2021-05-21_17h00.15.713,Simcolourproject_2stim_asymm_v5,2020.2.10,Win32,60,60a5f9bf14d0aa2821c4bb84,,,1584,283.5,96.5,1,0,0,response1disk,,6,33.5,16.5,1,0,0,rectangle,33.5,16.5,1,0,0,2,"[71,135,167,160,183,133,22,49,147,141,109,62,281,40,58,188,125,148,200,19]",33.5,16.5,1,0,0,1,39,200,61,1,,,
,,,,,,,,,,,,,FF,,,,,,,,1.25,,,,,,,,,,,,,,,,,,,,,,,,,5c5cad3e4ee81200018eafe2,60a7d8a0e00e07df34c64a83,2021-05-21_17h00.15.713,Simcolourproject_2stim_asymm_v5,2020.2.10,Win32,60,60a5f9bf14d0aa2821c4bb84,,,3746,-110.5,-246.5,1,0,0,response5disk,,3,3.5,-30.5,1,0,0,rectangle,3.5,-30.5,1,0,0,7,"[71,135,167,160,183,133,22,49,147,141,109,62,281,40,58,188,125,148,200,19]",3.5,-30.5,1,0,0,1,40,201,28,1,,,
,,,,,,,,,,,,,FF,,,,,,,,0.85,,,,,,,,,,,,,,,,,,,,,,,,,5c5cad3e4ee81200018eafe2,60a7d8a0e00e07df34c64a83,2021-05-21_17h00.15.713,Simcolourproject_2stim_asymm_v5,2020.2.10,Win32,60,60a5f9bf14d0aa2821c4bb84,,,2233,-123.5,226.5,1,0,0,response7disk,,0,-26.5,43.5,1,0,0,rectangle,-26.5,43.5,1,0,0,3,"[71,135,167,160,183,133,22,49,147,141,109,62,281,40,58,188,125,148,200,19]",-26.5,43.5,1,0,0,1,41,202,34,1,,,
,,,,,,,,,,,,,FF,,,,,,,,1.88,,,,,,,,,,,,,,,,,,,,,,,,,5c5cad3e4ee81200018eafe2,60a7d8a0e00e07df34c64a83,2021-05-21_17h00.15.713,Simcolourproject_2stim_asymm_v5,2020.2.10,Win32,60,60a5f9bf14d0aa2821c4bb84,,,3632,83.5,-223.5,1,0,0,response3disk,,4,-13.5,-0.5,1,0,0,rectangle,-13.5,-0.5,1,0,0,2,"[71,135,167,160,183,133,22,49,147,141,109,62,281,40,58,188,125,148,200,19]",-13.5,-0.5,1,0,0,1,42,203,118,1,,,
,,,,,,,,,,,,,FF,,,,,,,,0.851,,,,,,,,,,,,,,,,,,,,,,,,,5c5cad3e4ee81200018eafe2,60a7d8a0e00e07df34c64a83,2021-05-21_17h00.15.713,Simcolourproject_2stim_asymm_v5,2020.2.10,Win32,60,60a5f9bf14d0aa2821c4bb84,,,4209,116.5,253.5,1,0,0,response1disk,,7,3.5,23.5,1,0,0,rectangle,3.5,23.5,1,0,0,3,"[71,135,167,160,183,133,22,49,147,141,109,62,281,40,58,188,125,148,200,19]",3.5,23.5,1,0,0,1,43,204,145,1,,,
,,,,,,,,,,,,,FF,,,,,,,,1.05,,,,,,,,,,,,,,,,,,,,,,,,,5c5cad3e4ee81200018eafe2,60a7d8a0e00e07df34c64a83,2021-05-21_17h00.15.713,Simcolourproject_2stim_asymm_v5,2020.2.10,Win32,60,60a5f9bf14d0aa2821c4bb84,,,3245,-146.5,-230.5,1,0,0,response5disk,,3,-23.5,-10.5,1,0,0,rectangle,-23.5,-10.5,1,0,0,0,"[71,135,167,160,183,133,22,49,147,141,109,62,281,40,58,188,125,148,200,19]",-23.5,-10.5,1,0,0,1,44,205,117,1,,,
,,,,,,,,,,,,,FF,,,,,,,,1.15,,,,,,,,,,,,,,,,,,,,,,,,,5c5cad3e4ee81200018eafe2,60a7d8a0e00e07df34c64a83,2021-05-21_17h00.15.713,Simcolourproject_2stim_asymm_v5,2020.2.10,Win32,60,60a5f9bf14d0aa2821c4bb84,,,951,113.5,-220.5,1,0,0,response3disk,,4,6.5,3.5,1,0,0,rectangle,6.5,3.5,1,0,0,7,"[71,135,167,160,183,133,22,49,147,141,109,62,281,40,58,188,125,148,200,19]",6.5,3.5,1,0,0,1,45,206,30,1,,,
,,,,,,,,,,,,,FF,,,,,,,,2.4,,,,,,,,,,,,,,,,,,,,,,,,,5c5cad3e4ee81200018eafe2,60a7d8a0e00e07df34c64a83,2021-05-21_17h00.15.713,Simcolourproject_2stim_asymm_v5,2020.2.10,Win32,60,60a5f9bf14d0aa2821c4bb84,,,544,-60.5,-266.5,1,0,0,response5disk,,3,26.5,-10.5,1,0,0,rectangle,26.5,-10.5,1,0,0,2,"[71,135,167,160,183,133,22,49,147,141,109,62,281,40,58,188,125,148,200,19]",26.5,-10.5,1,0,0,1,46,207,68,1,,,
,,,,,,,,,,,,,FF,,,,,,,,0.78,,,,,,,,,,,,,,,,,,,,,,,,,5c5cad3e4ee81200018eafe2,60a7d8a0e00e07df34c64a83,2021-05-21_17h00.15.713,Simcolourproject_2stim_asymm_v5,2020.2.10,Win32,60,60a5f9bf14d0aa2821c4bb84,,,1416,176.5,319.5,1,0,0,response1disk,,7,36.5,3.5,1,0,0,rectangle,36.5,3.5,1,0,0,7,"[71,135,167,160,183,133,22,49,147,141,109,62,281,40,58,188,125,148,200,19]",36.5,3.5,1,0,0,1,47,208,47,1,,,
,,,,,,,,,,,,,FF,,,,,,,,0.95,,,,,,,,,,,,,,,,,,,,,,,,,5c5cad3e4ee81200018eafe2,60a7d8a0e00e07df34c64a83,2021-05-21_17h00.15.713,Simcolourproject_2stim_asymm_v5,2020.2.10,Win32,60,60a5f9bf14d0aa2821c4bb84,,,3165,143.5,219.5,1,0,0,response1disk,,7,33.5,9.5,1,0,0,rectangle,33.5,9.5,1,0,0,0,"[71,135,167,160,183,133,22,49,147,141,109,62,281,40,58,188,125,148,200,19]",33.5,9.5,1,0,0,1,48,209,136,1,,,
,,,,,,,,,,,,,FF,,,,,,,,2.149,,,,,,,,,,,,,,,,,,,,,,,,,5c5cad3e4ee81200018eafe2,60a7d8a0e00e07df34c64a83,2021-05-21_17h00.15.713,Simcolourproject_2stim_asymm_v5,2020.2.10,Win32,60,60a5f9bf14d0aa2821c4bb84,,,2783,-156.5,-223.5,1,0,0,response5disk,,3,9.5,-13.5,1,0,0,rectangle,9.5,-13.5,1,0,0,6,"[71,135,167,160,183,133,22,49,147,141,109,62,281,40,58,188,125,148,200,19]",9.5,-13.5,1,0,0,1,49,210,84,1,,,
,,,,,,,,,,,,,FF,,,,,,,,0.729,,,,,,,,,,,,,,,,,,,,,,,,,5c5cad3e4ee81200018eafe2,60a7d8a0e00e07df34c64a83,2021-05-21_17h00.15.713,Simcolourproject_2stim_asymm_v5,2020.2.10,Win32,60,60a5f9bf14d0aa2821c4bb84,,,3313,149.5,279.5,1,0,0,response1disk,,7,13.5,16.5,1,0,0,rectangle,13.5,16.5,1,0,0,0,"[71,135,167,160,183,133,22,49,147,141,109,62,281,40,58,188,125,148,200,19]",13.5,16.5,1,0,0,1,50,211,48,1,,,
,,,,,,,,,,,,,FF,,,,,,,,1.38,,,,,,,,,,,,,,,,,,,,,,,,,5c5cad3e4ee81200018eafe2,60a7d8a0e00e07df34c64a83,2021-05-21_17h00.15.713,Simcolourproject_2stim_asymm_v5,2020.2.10,Win32,60,60a5f9bf14d0aa2821c4bb84,,,2352,219.5,-83.5,1,0,0,response3disk,,5,6.5,33.5,1,0,0,rectangle,6.5,33.5,1,0,0,1,"[71,135,167,160,183,133,22,49,147,141,109,62,281,40,58,188,125,148,200,19]",6.5,33.5,1,0,0,1,51,212,22,1,,,
,,,,,,,,,,,,,FF,,,,,,,,1.25,,,,,,,,,,,,,,,,,,,,,,,,,5c5cad3e4ee81200018eafe2,60a7d8a0e00e07df34c64a83,2021-05-21_17h00.15.713,Simcolourproject_2stim_asymm_v5,2020.2.10,Win32,60,60a5f9bf14d0aa2821c4bb84,,,2946,-116.5,-176.5,1,0,0,response5disk,,3,-43.5,-23.5,1,0,0,rectangle,-43.5,-23.5,1,0,0,4,"[71,135,167,160,183,133,22,49,147,141,109,62,281,40,58,188,125,148,200,19]",-43.5,-23.5,1,0,0,1,52,213,149,1,,,
,,,,,,,,,,,,,FF,,,,,,,,1.752,,,,,,,,,,,,,,,,,,,,,,,,,5c5cad3e4ee81200018eafe2,60a7d8a0e00e07df34c64a83,2021-05-21_17h00.15.713,Simcolourproject_2stim_asymm_v5,2020.2.10,Win32,60,60a5f9bf14d0aa2821c4bb84,,,1396,286.5,166.5,1,0,0,response1disk,,6,26.5,-0.5,1,0,0,rectangle,26.5,-0.5,1,0,0,2,"[71,135,167,160,183,133,22,49,147,141,109,62,281,40,58,188,125,148,200,19]",26.5,-0.5,1,0,0,1,53,214,95,1,,,
,,,,,,,,,,,,,FF,,,,,,,,1.75,,,,,,,,,,,,,,,,,,,,,,,,,5c5cad3e4ee81200018eafe2,60a7d8a0e00e07df34c64a83,2021-05-21_17h00.15.713,Simcolourproject_2stim_asymm_v5,2020.2.10,Win32,60,60a5f9bf14d0aa2821c4bb84,,,368,99.5,-193.5,1,0,0,response3disk,,4,29.5,-33.5,1,0,0,rectangle,29.5,-33.5,1,0,0,6,"[71,135,167,160,183,133,22,49,147,141,109,62,281,40,58,188,125,148,200,19]",29.5,-33.5,1,0,0,1,54,215,4,1,,,
,,,,,,,,,,,,,FF,,,,,,,,0.951,,,,,,,,,,,,,,,,,,,,,,,,,5c5cad3e4ee81200018eafe2,60a7d8a0e00e07df34c64a83,2021-05-21_17h00.15.713,Simcolourproject_2stim_asymm_v5,2020.2.10,Win32,60,60a5f9bf14d0aa2821c4bb84,,,3146,-166.5,276.5,1,0,0,response7disk,,0,-13.5,19.5,1,0,0,rectangle,-13.5,19.5,1,0,0,5,"[71,135,167,160,183,133,22,49,147,141,109,62,281,40,58,188,125,148,200,19]",-13.5,19.5,1,0,0,1,55,216,7,1,,,
,,,,,,,,,,,,,FF,,,,,,,,1.23,,,,,,,,,,,,,,,,,,,,,,,,,5c5cad3e4ee81200018eafe2,60a7d8a0e00e07df34c64a83,2021-05-21_17h00.15.713,Simcolourproject_2stim_asymm_v5,2020.2.10,Win32,60,60a5f9bf14d0aa2821c4bb84,,,3386,-110.5,-203.5,1,0,0,response5disk,,3,6.5,-3.5,1,0,0,rectangle,6.5,-3.5,1,0,0,0,"[71,135,167,160,183,133,22,49,147,141,109,62,281,40,58,188,125,148,200,19]",6.5,-3.5,1,0,0,1,56,217,159,1,,,
,,,,,,,,,,,,,FF,,,,,,,,1.15,,,,,,,,,,,,,,,,,,,,,,,,,5c5cad3e4ee81200018eafe2,60a7d8a0e00e07df34c64a83,2021-05-21_17h00.15.713,Simcolourproject_2stim_asymm_v5,2020.2.10,Win32,60,60a5f9bf14d0aa2821c4bb84,,,1488,123.5,219.5,1,0,0,response1disk,,7,29.5,-13.5,1,0,0,rectangle,29.5,-13.5,1,0,0,0,"[71,135,167,160,183,133,22,49,147,141,109,62,281,40,58,188,125,148,200,19]",29.5,-13.5,1,0,0,1,57,218,147,1,,,
,,,,,,,,,,,,,FF,,,,,,,,1.1,,,,,,,,,,,,,,,,,,,,,,,,,5c5cad3e4ee81200018eafe2,60a7d8a0e00e07df34c64a83,2021-05-21_17h00.15.713,Simcolourproject_2stim_asymm_v5,2020.2.10,Win32,60,60a5f9bf14d0aa2821c4bb84,,,1968,-130.5,-206.5,1,0,0,response5disk,,3,-10.5,-26.5,1,0,0,rectangle,-10.5,-26.5,1,0,0,0,"[71,135,167,160,183,133,22,49,147,141,109,62,281,40,58,188,125,148,200,19]",-10.5,-26.5,1,0,0,1,58,219,15,1,,,
,,,,,,,,,,,,,FF,,,,,,,,1.18,,,,,,,,,,,,,,,,,,,,,,,,,5c5cad3e4ee81200018eafe2,60a7d8a0e00e07df34c64a83,2021-05-21_17h00.15.713,Simcolourproject_2stim_asymm_v5,2020.2.10,Win32,60,60a5f9bf14d0aa2821c4bb84,,,3711,-70.5,-213.5,1,0,0,response5disk,,3,-0.5,-20.5,1,0,0,rectangle,-0.5,-20.5,1,0,0,6,"[71,135,167,160,183,133,22,49,147,141,109,62,281,40,58,188,125,148,200,19]",-0.5,-20.5,1,0,0,1,59,220,106,1,,,
,,,,,,,,,,,,,FF,,,,,,,,2,,,,,,,,,,,,,,,,,,,,,,,,,5c5cad3e4ee81200018eafe2,60a7d8a0e00e07df34c64a83,2021-05-21_17h00.15.713,Simcolourproject_2stim_asymm_v5,2020.2.10,Win32,60,60a5f9bf14d0aa2821c4bb84,,,3377,266.5,-140.5,1,0,0,response3disk,,5,3.5,-0.5,1,0,0,rectangle,3.5,-0.5,1,0,0,5,"[71,135,167,160,183,133,22,49,147,141,109,62,281,40,58,188,125,148,200,19]",3.5,-0.5,1,0,0,1,60,221,54,1,,,
,,,,,,,,,,,,,FF,,,,,,,,1.18,,,,,,,,,,,,,,,,,,,,,,,,,5c5cad3e4ee81200018eafe2,60a7d8a0e00e07df34c64a83,2021-05-21_17h00.15.713,Simcolourproject_2stim_asymm_v5,2020.2.10,Win32,60,60a5f9bf14d0aa2821c4bb84,,,947,123.5,223.5,1,0,0,response1disk,,7,33.5,6.5,1,0,0,rectangle,33.5,6.5,1,0,0,1,"[71,135,167,160,183,133,22,49,147,141,109,62,281,40,58,188,125,148,200,19]",33.5,6.5,1,0,0,1,61,222,150,1,,,
,,,,,,,,,,,,,FF,,,,,,,,1.221,,,,,,,,,,,,,,,,,,,,,,,,,5c5cad3e4ee81200018eafe2,60a7d8a0e00e07df34c64a83,2021-05-21_17h00.15.713,Simcolourproject_2stim_asymm_v5,2020.2.10,Win32,60,60a5f9bf14d0aa2821c4bb84,,,2860,113.5,233.5,1,0,0,response1disk,,7,26.5,-16.5,1,0,0,rectangle,26.5,-16.5,1,0,0,6,"[71,135,167,160,183,133,22,49,147,141,109,62,281,40,58,188,125,148,200,19]",26.5,-16.5,1,0,0,1,62,223,2,1,,,
,,,,,,,,,,,,,FF,,,,,,,,0.67,,,,,,,,,,,,,,,,,,,,,,,,,5c5cad3e4ee81200018eafe2,60a7d8a0e00e07df34c64a83,2021-05-21_17h00.15.713,Simcolourproject_2stim_asymm_v5,2020.2.10,Win32,60,60a5f9bf14d0aa2821c4bb84,,,1074,99.5,189.5,1,0,0,response1disk,,7,16.5,-0.5,1,0,0,rectangle,16.5,-0.5,1,0,0,3,"[71,135,167,160,183,133,22,49,147,141,109,62,281,40,58,188,125,148,200,19]",16.5,-0.5,1,0,0,1,63,224,115,1,,,
,,,,,,,,,,,,,FF,,,,,,,,0.82,,,,,,,,,,,,,,,,,,,,,,,,,5c5cad3e4ee81200018eafe2,60a7d8a0e00e07df34c64a83,2021-05-21_17h00.15.713,Simcolourproject_2stim_asymm_v5,2020.2.10,Win32,60,60a5f9bf14d0aa2821c4bb84,,,87,89.5,243.5,1,0,0,response1disk,,7,6.5,3.5,1,0,0,rectangle,6.5,3.5,1,0,0,3,"[71,135,167,160,183,133,22,49,147,141,109,62,281,40,58,188,125,148,200,19]",6.5,3.5,1,0,0,1,64,225,87,1,,,
,,,,,,,,,,,,,FF,,,,,,,,0.899,,,,,,,,,,,,,,,,,,,,,,,,,5c5cad3e4ee81200018eafe2,60a7d8a0e00e07df34c64a83,2021-05-21_17h00.15.713,Simcolourproject_2stim_asymm_v5,2020.2.10,Win32,60,60a5f9bf14d0aa2821c4bb84,,,2250,83.5,203.5,1,0,0,response1disk,,7,-6.5,-0.5,1,0,0,rectangle,-6.5,-0.5,1,0,0,2,"[71,135,167,160,183,133,22,49,147,141,109,62,281,40,58,188,125,148,200,19]",-6.5,-0.5,1,0,0,1,65,226,120,1,,,
,,,,,,,,,,,,,FF,,,,,,,,0.799,,,,,,,,,,,,,,,,,,,,,,,,,5c5cad3e4ee81200018eafe2,60a7d8a0e00e07df34c64a83,2021-05-21_17h00.15.713,Simcolourproject_2stim_asymm_v5,2020.2.10,Win32,60,60a5f9bf14d0aa2821c4bb84,,,3832,123.5,273.5,1,0,0,response1disk,,7,26.5,-30.5,1,0,0,rectangle,26.5,-30.5,1,0,0,4,"[71,135,167,160,183,133,22,49,147,141,109,62,281,40,58,188,125,148,200,19]",26.5,-30.5,1,0,0,1,66,227,65,1,,,
,,,,,,,,,,,,,FF,,,,,,,,0.769,,,,,,,,,,,,,,,,,,,,,,,,,5c5cad3e4ee81200018eafe2,60a7d8a0e00e07df34c64a83,2021-05-21_17h00.15.713,Simcolourproject_2stim_asymm_v5,2020.2.10,Win32,60,60a5f9bf14d0aa2821c4bb84,,,2682,103.5,206.5,1,0,0,response1disk,,7,26.5,6.5,1,0,0,rectangle,26.5,6.5,1,0,0,7,"[71,135,167,160,183,133,22,49,147,141,109,62,281,40,58,188,125,148,200,19]",26.5,6.5,1,0,0,1,67,228,89,1,,,
,,,,,,,,,,,,,FF,,,,,,,,1.428,,,,,,,,,,,,,,,,,,,,,,,,,5c5cad3e4ee81200018eafe2,60a7d8a0e00e07df34c64a83,2021-05-21_17h00.15.713,Simcolourproject_2stim_asymm_v5,2020.2.10,Win32,60,60a5f9bf14d0aa2821c4bb84,,,1622,223.5,96.5,1,0,0,response1disk,,6,3.5,39.5,1,0,0,rectangle,3.5,39.5,1,0,0,4,"[71,135,167,160,183,133,22,49,147,141,109,62,281,40,58,188,125,148,200,19]",3.5,39.5,1,0,0,1,68,229,77,1,,,
,,,,,,,,,,,,,FF,,,,,,,,0.879,,,,,,,,,,,,,,,,,,,,,,,,,5c5cad3e4ee81200018eafe2,60a7d8a0e00e07df34c64a83,2021-05-21_17h00.15.713,Simcolourproject_2stim_asymm_v5,2020.2.10,Win32,60,60a5f9bf14d0aa2821c4bb84,,,938,116.5,286.5,1,0,0,response1disk,,7,-20.5,16.5,1,0,0,rectangle,-20.5,16.5,1,0,0,7,"[71,135,167,160,183,133,22,49,147,141,109,62,281,40,58,188,125,148,200,19]",-20.5,16.5,1,0,0,1,69,230,143,1,,,
,,,,,,,,,,,,,FF,,,,,,,,0.871,,,,,,,,,,,,,,,,,,,,,,,,,5c5cad3e4ee81200018eafe2,60a7d8a0e00e07df34c64a83,2021-05-21_17h00.15.713,Simcolourproject_2stim_asymm_v5,2020.2.10,Win32,60,60a5f9bf14d0aa2821c4bb84,,,2416,119.5,236.5,1,0,0,response1disk,,7,-0.5,-0.5,1,0,0,rectangle,-0.5,-0.5,1,0,0,2,"[71,135,167,160,183,133,22,49,147,141,109,62,281,40,58,188,125,148,200,19]",-0.5,-0.5,1,0,0,1,70,231,81,1,,,
,,,,,,,,,,,,,FF,,,,,,,,1.469,,,,,,,,,,,,,,,,,,,,,,,,,5c5cad3e4ee81200018eafe2,60a7d8a0e00e07df34c64a83,2021-05-21_17h00.15.713,Simcolourproject_2stim_asymm_v5,2020.2.10,Win32,60,60a5f9bf14d0aa2821c4bb84,,,785,219.5,109.5,1,0,0,response1disk,,6,13.5,-20.5,1,0,0,rectangle,13.5,-20.5,1,0,0,0,"[71,135,167,160,183,133,22,49,147,141,109,62,281,40,58,188,125,148,200,19]",13.5,-20.5,1,0,0,1,71,232,160,1,,,
,,,,,,,,,,,,,FF,,,,,,,,1.05,,,,,,,,,,,,,,,,,,,,,,,,,5c5cad3e4ee81200018eafe2,60a7d8a0e00e07df34c64a83,2021-05-21_17h00.15.713,Simcolourproject_2stim_asymm_v5,2020.2.10,Win32,60,60a5f9bf14d0aa2821c4bb84,,,561,153.5,266.5,1,0,0,response1disk,,7,19.5,13.5,1,0,0,rectangle,19.5,13.5,1,0,0,4,"[71,135,167,160,183,133,22,49,147,141,109,62,281,40,58,188,125,148,200,19]",19.5,13.5,1,0,0,1,72,233,142,1,,,
,,,,,,,,,,,,,FF,,,,,,,,0.73,,,,,,,,,,,,,,,,,,,,,,,,,5c5cad3e4ee81200018eafe2,60a7d8a0e00e07df34c64a83,2021-05-21_17h00.15.713,Simcolourproject_2stim_asymm_v5,2020.2.10,Win32,60,60a5f9bf14d0aa2821c4bb84,,,1209,103.5,229.5,1,0,0,response1disk,,7,-10.5,6.5,1,0,0,rectangle,-10.5,6.5,1,0,0,6,"[71,135,167,160,183,133,22,49,147,141,109,62,281,40,58,188,125,148,200,19]",-10.5,6.5,1,0,0,1,73,234,94,1,,,
,,,,,,,,,,,,,FF,,,,,,,,1.03,,,,,,,,,,,,,,,,,,,,,,,,,5c5cad3e4ee81200018eafe2,60a7d8a0e00e07df34c64a83,2021-05-21_17h00.15.713,Simcolourproject_2stim_asymm_v5,2020.2.10,Win32,60,60a5f9bf14d0aa2821c4bb84,,,2570,116.5,229.5,1,0,0,response1disk,,7,-3.5,13.5,1,0,0,rectangle,-3.5,13.5,1,0,0,1,"[71,135,167,160,183,133,22,49,147,141,109,62,281,40,58,188,125,148,200,19]",-3.5,13.5,1,0,0,1,74,235,105,1,,,
,,,,,,,,,,,,,FF,,,,,,,,0.801,,,,,,,,,,,,,,,,,,,,,,,,,5c5cad3e4ee81200018eafe2,60a7d8a0e00e07df34c64a83,2021-05-21_17h00.15.713,Simcolourproject_2stim_asymm_v5,2020.2.10,Win32,60,60a5f9bf14d0aa2821c4bb84,,,497,93.5,233.5,1,0,0,response1disk,,7,-16.5,33.5,1,0,0,rectangle,-16.5,33.5,1,0,0,7,"[71,135,167,160,183,133,22,49,147,141,109,62,281,40,58,188,125,148,200,19]",-16.5,33.5,1,0,0,1,75,236,92,1,,,
,,,,,,,,,,,,,FF,,,,,,,,1.001,,,,,,,,,,,,,,,,,,,,,,,,,5c5cad3e4ee81200018eafe2,60a7d8a0e00e07df34c64a83,2021-05-21_17h00.15.713,Simcolourproject_2stim_asymm_v5,2020.2.10,Win32,60,60a5f9bf14d0aa2821c4bb84,,,225,93.5,206.5,1,0,0,response1disk,,7,-26.5,9.5,1,0,0,rectangle,-26.5,9.5,1,0,0,4,"[71,135,167,160,183,133,22,49,147,141,109,62,281,40,58,188,125,148,200,19]",-26.5,9.5,1,0,0,1,76,237,69,1,,,
,,,,,,,,,,,,,FF,,,,,,,,1.6,,,,,,,,,,,,,,,,,,,,,,,,,5c5cad3e4ee81200018eafe2,60a7d8a0e00e07df34c64a83,2021-05-21_17h00.15.713,Simcolourproject_2stim_asymm_v5,2020.2.10,Win32,60,60a5f9bf14d0aa2821c4bb84,,,3062,253.5,103.5,1,0,0,response1disk,,6,33.5,-13.5,1,0,0,rectangle,33.5,-13.5,1,0,0,0,"[71,135,167,160,183,133,22,49,147,141,109,62,281,40,58,188,125,148,200,19]",33.5,-13.5,1,0,0,1,77,238,121,1,,,
,,,,,,,,,,,,,FF,,,,,,,,0.72,,,,,,,,,,,,,,,,,,,,,,,,,5c5cad3e4ee81200018eafe2,60a7d8a0e00e07df34c64a83,2021-05-21_17h00.15.713,Simcolourproject_2stim_asymm_v5,2020.2.10,Win32,60,60a5f9bf14d0aa2821c4bb84,,,3183,76.5,216.5,1,0,0,response1disk,,7,-0.5,-13.5,1,0,0,rectangle,-0.5,-13.5,1,0,0,5,"[71,135,167,160,183,133,22,49,147,141,109,62,281,40,58,188,125,148,200,19]",-0.5,-13.5,1,0,0,1,78,239,129,1,,,
