key_resp.keys,key_resp.rt,key_resp_14.keys,key_resp_14.rt,key_resp_15.keys,key_resp_15.rt,key_resp_17.keys,key_resp_17.rt,key_resp_9.keys,key_resp_9.rt,key_resp_10.keys,key_resp_10.rt,practice_comparison,Ecc,mouse_5.x,mouse_5.y,mouse_5.leftButton,mouse_5.midButton,mouse_5.rightButton,mouse_5.clicked_name,pracsimilarity,response_time,mouse_10.x,mouse_10.y,mouse_10.leftButton,mouse_10.midButton,mouse_10.rightButton,mouse_10.clicked_name,mouse_7.x,mouse_7.y,mouse_7.leftButton,mouse_7.midButton,mouse_7.rightButton,mouse_7.clicked_name,catchnumberprac,mouse_6.x,mouse_6.y,mouse_6.leftButton,mouse_6.midButton,mouse_6.rightButton,mouse_6.clicked_name,duringprac.thisRepN,duringprac.thisTrialN,duringprac.thisN,duringprac.thisIndex,duringprac.ran,participant,session,date,expName,psychopyVersion,OS,frameRate,study_id,key_resp_22.keys,key_resp_22.rt,realcomparison,mouse.x,mouse.y,mouse.leftButton,mouse.midButton,mouse.rightButton,mouse.clicked_name,Colour2,similarity,mouse_2.x,mouse_2.y,mouse_2.leftButton,mouse_2.midButton,mouse_2.rightButton,mouse_2.clicked_name,mouse_3.x,mouse_3.y,mouse_3.leftButton,mouse_3.midButton,mouse_3.rightButton,catchnumber,catchtrialorder,mouse_11.x,mouse_11.y,mouse_11.leftButton,mouse_11.midButton,mouse_11.rightButton,trials_2.thisRepN,trials_2.thisTrialN,trials_2.thisN,trials_2.thisIndex,trials_2.ran,Colour1,mouse_3.clicked_name,mouse_11.clicked_name
space,1.343,space,17.002,space,46.068,space,12.496,space,4.483,space,3.496,53,PF,-55,-46,1,0,0,response5disk_5,,5.709,-3,-1,1,0,0,rectangle_8,50,79,1,0,0,response1disk_7,7,0,-5,1,0,0,rectangle_4,0,0,0,4,1,5c7ceda01d2afc0001f4ad1d,60a7d7fcb29dd492543b156f,2021-05-21_16h56.21.814,Simcolourproject_2stim_asymm_v5,2020.2.10,MacIntel,60,60a5f9bf14d0aa2821c4bb84,,,,,,,,,,,,,,,,,,,,,,,,,,,,,,,,,,,,,
,,,,,,,,,,,,27,FF,-85,48,1,0,0,response7disk_5,1,9.448,4,-4,1,0,0,rectangle_8,4,-4,1,0,0,,7,4,-4,1,0,0,,0,1,1,3,1,5c7ceda01d2afc0001f4ad1d,60a7d7fcb29dd492543b156f,2021-05-21_16h56.21.814,Simcolourproject_2stim_asymm_v5,2020.2.10,MacIntel,60,60a5f9bf14d0aa2821c4bb84,,,,,,,,,,,,,,,,,,,,,,,,,,,,,,,,,,,,,
,,,,,,,,,,,,55,PF,-45,-72,1,0,0,response5disk_5,3,14.899,1,4,1,0,0,rectangle_8,1,4,1,0,0,,7,1,4,1,0,0,,0,2,2,6,1,5c7ceda01d2afc0001f4ad1d,60a7d7fcb29dd492543b156f,2021-05-21_16h56.21.814,Simcolourproject_2stim_asymm_v5,2020.2.10,MacIntel,60,60a5f9bf14d0aa2821c4bb84,,,,,,,,,,,,,,,,,,,,,,,,,,,,,,,,,,,,,
,,,,,,,,,,,,159,PF,55,-80,1,0,0,response3disk_5,4,2.073,13,-2,1,0,0,rectangle_8,13,-2,1,0,0,,7,13,-2,1,0,0,,0,3,3,2,1,5c7ceda01d2afc0001f4ad1d,60a7d7fcb29dd492543b156f,2021-05-21_16h56.21.814,Simcolourproject_2stim_asymm_v5,2020.2.10,MacIntel,60,60a5f9bf14d0aa2821c4bb84,,,,,,,,,,,,,,,,,,,,,,,,,,,,,,,,,,,,,
,,,,,,,,,,,,25,FF,64,47,1,0,0,response1disk_5,6,3.242,-2,0,1,0,0,rectangle_8,-2,0,1,0,0,,7,-2,0,1,0,0,,0,4,4,5,1,5c7ceda01d2afc0001f4ad1d,60a7d7fcb29dd492543b156f,2021-05-21_16h56.21.814,Simcolourproject_2stim_asymm_v5,2020.2.10,MacIntel,60,60a5f9bf14d0aa2821c4bb84,,,,,,,,,,,,,,,,,,,,,,,,,,,,,,,,,,,,,
,,,,,,,,,,,,35,PF,78,38,1,0,0,response1disk_5,6,1.602,13,-1,1,0,0,rectangle_8,46,84,1,0,0,response1disk_7,7,3,3,1,0,0,rectangle_4,0,5,5,1,1,5c7ceda01d2afc0001f4ad1d,60a7d7fcb29dd492543b156f,2021-05-21_16h56.21.814,Simcolourproject_2stim_asymm_v5,2020.2.10,MacIntel,60,60a5f9bf14d0aa2821c4bb84,,,,,,,,,,,,,,,,,,,,,,,,,,,,,,,,,,,,,
,,,,,,,,,,,,137,FF,-33,-94,1,0,0,response5disk_5,3,2.495,1,-3,1,0,0,rectangle_8,1,-3,1,0,0,,7,1,-3,1,0,0,,0,6,6,0,1,5c7ceda01d2afc0001f4ad1d,60a7d7fcb29dd492543b156f,2021-05-21_16h56.21.814,Simcolourproject_2stim_asymm_v5,2020.2.10,MacIntel,60,60a5f9bf14d0aa2821c4bb84,,,,,,,,,,,,,,,,,,,,,,,,,,,,,,,,,,,,,
,,,,,,,,,,,,,FF,,,,,,,,1.803,,,,,,,,,,,,,,,,,,,,,,,,,5c7ceda01d2afc0001f4ad1d,60a7d7fcb29dd492543b156f,2021-05-21_16h56.21.814,Simcolourproject_2stim_asymm_v5,2020.2.10,MacIntel,60,60a5f9bf14d0aa2821c4bb84,space,6.154,3286,74,41,1,0,0,response1disk,,6,16,3,1,0,0,rectangle,16,3,1,0,0,1,"[183,140,36,124,221,32,235,312,234,71,86,153,229,158,99,265,225,138,149,113]",16,3,1,0,0,0,0,0,68,1,,,
,,,,,,,,,,,,,FF,,,,,,,,1.421,,,,,,,,,,,,,,,,,,,,,,,,,5c7ceda01d2afc0001f4ad1d,60a7d7fcb29dd492543b156f,2021-05-21_16h56.21.814,Simcolourproject_2stim_asymm_v5,2020.2.10,MacIntel,60,60a5f9bf14d0aa2821c4bb84,,,1541,81,-45,1,0,0,response3disk,,5,6,-6,1,0,0,rectangle,6,-6,1,0,0,7,"[183,140,36,124,221,32,235,312,234,71,86,153,229,158,99,265,225,138,149,113]",6,-6,1,0,0,0,1,1,106,1,,,
,,,,,,,,,,,,,FF,,,,,,,,1.674,,,,,,,,,,,,,,,,,,,,,,,,,5c7ceda01d2afc0001f4ad1d,60a7d7fcb29dd492543b156f,2021-05-21_16h56.21.814,Simcolourproject_2stim_asymm_v5,2020.2.10,MacIntel,60,60a5f9bf14d0aa2821c4bb84,,,2881,34,68,1,0,0,response1disk,,7,1,8,1,0,0,rectangle,1,8,1,0,0,3,"[183,140,36,124,221,32,235,312,234,71,86,153,229,158,99,265,225,138,149,113]",1,8,1,0,0,0,2,2,121,1,,,
,,,,,,,,,,,,,FF,,,,,,,,1.507,,,,,,,,,,,,,,,,,,,,,,,,,5c7ceda01d2afc0001f4ad1d,60a7d7fcb29dd492543b156f,2021-05-21_16h56.21.814,Simcolourproject_2stim_asymm_v5,2020.2.10,MacIntel,60,60a5f9bf14d0aa2821c4bb84,,,1693,50,-93,1,0,0,response3disk,,4,-1,-9,1,0,0,rectangle,-1,-9,1,0,0,6,"[183,140,36,124,221,32,235,312,234,71,86,153,229,158,99,265,225,138,149,113]",-1,-9,1,0,0,0,3,3,159,1,,,
,,,,,,,,,,,,,FF,,,,,,,,1.637,,,,,,,,,,,,,,,,,,,,,,,,,5c7ceda01d2afc0001f4ad1d,60a7d7fcb29dd492543b156f,2021-05-21_16h56.21.814,Simcolourproject_2stim_asymm_v5,2020.2.10,MacIntel,60,60a5f9bf14d0aa2821c4bb84,,,210,52,28,1,0,0,response1disk,,6,3,-3,1,0,0,rectangle,3,-3,1,0,0,7,"[183,140,36,124,221,32,235,312,234,71,86,153,229,158,99,265,225,138,149,113]",3,-3,1,0,0,0,4,4,90,1,,,
,,,,,,,,,,,,,FF,,,,,,,,1.506,,,,,,,,,,,,,,,,,,,,,,,,,5c7ceda01d2afc0001f4ad1d,60a7d7fcb29dd492543b156f,2021-05-21_16h56.21.814,Simcolourproject_2stim_asymm_v5,2020.2.10,MacIntel,60,60a5f9bf14d0aa2821c4bb84,,,1054,-86,-54,1,0,0,response5disk,,6,1,-10,1,0,0,rectangle,1,-10,1,0,0,1,"[183,140,36,124,221,32,235,312,234,71,86,153,229,158,99,265,225,138,149,113]",1,-10,1,0,0,0,5,5,95,1,,,
,,,,,,,,,,,,,FF,,,,,,,,1.084,,,,,,,,,,,,,,,,,,,,,,,,,5c7ceda01d2afc0001f4ad1d,60a7d7fcb29dd492543b156f,2021-05-21_16h56.21.814,Simcolourproject_2stim_asymm_v5,2020.2.10,MacIntel,60,60a5f9bf14d0aa2821c4bb84,,,1031,82,-40,1,0,0,response3disk,,5,-13,1,1,0,0,rectangle,-13,1,1,0,0,0,"[183,140,36,124,221,32,235,312,234,71,86,153,229,158,99,265,225,138,149,113]",-13,1,1,0,0,0,6,6,42,1,,,
,,,,,,,,,,,,,FF,,,,,,,,2.712,,,,,,,,,,,,,,,,,,,,,,,,,5c7ceda01d2afc0001f4ad1d,60a7d7fcb29dd492543b156f,2021-05-21_16h56.21.814,Simcolourproject_2stim_asymm_v5,2020.2.10,MacIntel,60,60a5f9bf14d0aa2821c4bb84,,,1499,51,29,1,0,0,response1disk,,6,8,-4,1,0,0,rectangle,8,-4,1,0,0,4,"[183,140,36,124,221,32,235,312,234,71,86,153,229,158,99,265,225,138,149,113]",8,-4,1,0,0,0,7,7,105,1,,,
,,,,,,,,,,,,,FF,,,,,,,,1.676,,,,,,,,,,,,,,,,,,,,,,,,,5c7ceda01d2afc0001f4ad1d,60a7d7fcb29dd492543b156f,2021-05-21_16h56.21.814,Simcolourproject_2stim_asymm_v5,2020.2.10,MacIntel,60,60a5f9bf14d0aa2821c4bb84,,,257,-34,-81,1,0,0,response5disk,,3,12,4,1,0,0,rectangle,12,4,1,0,0,6,"[183,140,36,124,221,32,235,312,234,71,86,153,229,158,99,265,225,138,149,113]",12,4,1,0,0,0,8,8,155,1,,,
,,,,,,,,,,,,,FF,,,,,,,,1.471,,,,,,,,,,,,,,,,,,,,,,,,,5c7ceda01d2afc0001f4ad1d,60a7d7fcb29dd492543b156f,2021-05-21_16h56.21.814,Simcolourproject_2stim_asymm_v5,2020.2.10,MacIntel,60,60a5f9bf14d0aa2821c4bb84,,,829,86,-42,1,0,0,response3disk,,5,3,0,1,0,0,rectangle,3,0,1,0,0,3,"[183,140,36,124,221,32,235,312,234,71,86,153,229,158,99,265,225,138,149,113]",3,0,1,0,0,0,9,9,2,1,,,
,,,,,,,,,,,,,FF,,,,,,,,2.475,,,,,,,,,,,,,,,,,,,,,,,,,5c7ceda01d2afc0001f4ad1d,60a7d7fcb29dd492543b156f,2021-05-21_16h56.21.814,Simcolourproject_2stim_asymm_v5,2020.2.10,MacIntel,60,60a5f9bf14d0aa2821c4bb84,,,287,63,30,1,0,0,response1disk,,6,23,2,1,0,0,rectangle,23,2,1,0,0,1,"[183,140,36,124,221,32,235,312,234,71,86,153,229,158,99,265,225,138,149,113]",23,2,1,0,0,0,10,10,71,1,,,
,,,,,,,,,,,,,FF,,,,,,,,1.543,,,,,,,,,,,,,,,,,,,,,,,,,5c7ceda01d2afc0001f4ad1d,60a7d7fcb29dd492543b156f,2021-05-21_16h56.21.814,Simcolourproject_2stim_asymm_v5,2020.2.10,MacIntel,60,60a5f9bf14d0aa2821c4bb84,,,3959,66,27,1,0,0,response1disk,,6,13,-1,1,0,0,rectangle,13,-1,1,0,0,0,"[183,140,36,124,221,32,235,312,234,71,86,153,229,158,99,265,225,138,149,113]",13,-1,1,0,0,0,11,11,125,1,,,
,,,,,,,,,,,,,FF,,,,,,,,4.029,,,,,,,,,,,,,,,,,,,,,,,,,5c7ceda01d2afc0001f4ad1d,60a7d7fcb29dd492543b156f,2021-05-21_16h56.21.814,Simcolourproject_2stim_asymm_v5,2020.2.10,MacIntel,60,60a5f9bf14d0aa2821c4bb84,,,2662,-31,83,1,0,0,response7disk,,0,-1,5,1,0,0,rectangle,-1,5,1,0,0,1,"[183,140,36,124,221,32,235,312,234,71,86,153,229,158,99,265,225,138,149,113]",-1,5,1,0,0,0,12,12,59,1,,,
,,,,,,,,,,,,,FF,,,,,,,,1.455,,,,,,,,,,,,,,,,,,,,,,,,,5c7ceda01d2afc0001f4ad1d,60a7d7fcb29dd492543b156f,2021-05-21_16h56.21.814,Simcolourproject_2stim_asymm_v5,2020.2.10,MacIntel,60,60a5f9bf14d0aa2821c4bb84,,,1091,38,-69,1,0,0,response3disk,,4,3,1,1,0,0,rectangle,3,1,1,0,0,6,"[183,140,36,124,221,32,235,312,234,71,86,153,229,158,99,265,225,138,149,113]",3,1,1,0,0,0,13,13,97,1,,,
,,,,,,,,,,,,,FF,,,,,,,,1.354,,,,,,,,,,,,,,,,,,,,,,,,,5c7ceda01d2afc0001f4ad1d,60a7d7fcb29dd492543b156f,2021-05-21_16h56.21.814,Simcolourproject_2stim_asymm_v5,2020.2.10,MacIntel,60,60a5f9bf14d0aa2821c4bb84,,,698,-28,-84,1,0,0,response5disk,,3,-3,-8,1,0,0,rectangle,-3,-8,1,0,0,5,"[183,140,36,124,221,32,235,312,234,71,86,153,229,158,99,265,225,138,149,113]",-3,-8,1,0,0,0,14,14,129,1,,,
,,,,,,,,,,,,,FF,,,,,,,,1.288,,,,,,,,,,,,,,,,,,,,,,,,,5c7ceda01d2afc0001f4ad1d,60a7d7fcb29dd492543b156f,2021-05-21_16h56.21.814,Simcolourproject_2stim_asymm_v5,2020.2.10,MacIntel,60,60a5f9bf14d0aa2821c4bb84,,,4078,-35,-83,1,0,0,response5disk,,3,2,-8,1,0,0,rectangle,2,-8,1,0,0,4,"[183,140,36,124,221,32,235,312,234,71,86,153,229,158,99,265,225,138,149,113]",2,-8,1,0,0,0,15,15,8,1,,,
,,,,,,,,,,,,,FF,,,,,,,,1.053,,,,,,,,,,,,,,,,,,,,,,,,,5c7ceda01d2afc0001f4ad1d,60a7d7fcb29dd492543b156f,2021-05-21_16h56.21.814,Simcolourproject_2stim_asymm_v5,2020.2.10,MacIntel,60,60a5f9bf14d0aa2821c4bb84,,,837,69,35,1,0,0,response1disk,,6,-1,-14,1,0,0,rectangle,-1,-14,1,0,0,4,"[183,140,36,124,221,32,235,312,234,71,86,153,229,158,99,265,225,138,149,113]",-1,-14,1,0,0,0,16,16,149,1,,,
,,,,,,,,,,,,,FF,,,,,,,,1.191,,,,,,,,,,,,,,,,,,,,,,,,,5c7ceda01d2afc0001f4ad1d,60a7d7fcb29dd492543b156f,2021-05-21_16h56.21.814,Simcolourproject_2stim_asymm_v5,2020.2.10,MacIntel,60,60a5f9bf14d0aa2821c4bb84,,,3196,-67,33,1,0,0,response7disk,,1,4,4,1,0,0,rectangle,4,4,1,0,0,2,"[183,140,36,124,221,32,235,312,234,71,86,153,229,158,99,265,225,138,149,113]",4,4,1,0,0,0,17,17,107,1,,,
,,,,,,,,,,,,,FF,,,,,,,,1.252,,,,,,,,,,,,,,,,,,,,,,,,,5c7ceda01d2afc0001f4ad1d,60a7d7fcb29dd492543b156f,2021-05-21_16h56.21.814,Simcolourproject_2stim_asymm_v5,2020.2.10,MacIntel,60,60a5f9bf14d0aa2821c4bb84,,,2294,-55,-64,1,0,0,response5disk,,3,18,-4,1,0,0,rectangle,18,-4,1,0,0,3,"[183,140,36,124,221,32,235,312,234,71,86,153,229,158,99,265,225,138,149,113]",18,-4,1,0,0,0,18,18,151,1,,,
,,,,,,,,,,,,,FF,,,,,,,,1.64,,,,,,,,,,,,,,,,,,,,,,,,,5c7ceda01d2afc0001f4ad1d,60a7d7fcb29dd492543b156f,2021-05-21_16h56.21.814,Simcolourproject_2stim_asymm_v5,2020.2.10,MacIntel,60,60a5f9bf14d0aa2821c4bb84,,,3554,27,-81,1,0,0,response3disk,,4,3,-1,1,0,0,rectangle,3,-1,1,0,0,2,"[183,140,36,124,221,32,235,312,234,71,86,153,229,158,99,265,225,138,149,113]",3,-1,1,0,0,0,19,19,69,1,,,
,,,,,,,,,,,,,FF,,,,,,,,1.287,,,,,,,,,,,,,,,,,,,,,,,,,5c7ceda01d2afc0001f4ad1d,60a7d7fcb29dd492543b156f,2021-05-21_16h56.21.814,Simcolourproject_2stim_asymm_v5,2020.2.10,MacIntel,60,60a5f9bf14d0aa2821c4bb84,,,3462,86,-38,1,0,0,response3disk,,5,7,-8,1,0,0,rectangle,7,-8,1,0,0,0,"[183,140,36,124,221,32,235,312,234,71,86,153,229,158,99,265,225,138,149,113]",7,-8,1,0,0,0,20,20,62,1,,,
,,,,,,,,,,,,,FF,,,,,,,,0.956,,,,,,,,,,,,,,,,,,,,,,,,,5c7ceda01d2afc0001f4ad1d,60a7d7fcb29dd492543b156f,2021-05-21_16h56.21.814,Simcolourproject_2stim_asymm_v5,2020.2.10,MacIntel,60,60a5f9bf14d0aa2821c4bb84,,,4071,-45,68,1,0,0,response7disk,,0,4,2,1,0,0,rectangle,4,2,1,0,0,2,"[183,140,36,124,221,32,235,312,234,71,86,153,229,158,99,265,225,138,149,113]",4,2,1,0,0,0,21,21,41,1,,,
,,,,,,,,,,,,,FF,,,,,,,,1.554,,,,,,,,,,,,,,,,,,,,,,,,,5c7ceda01d2afc0001f4ad1d,60a7d7fcb29dd492543b156f,2021-05-21_16h56.21.814,Simcolourproject_2stim_asymm_v5,2020.2.10,MacIntel,60,60a5f9bf14d0aa2821c4bb84,,,3590,30,57,1,0,0,response1disk,,7,6,-9,1,0,0,rectangle,6,-9,1,0,0,6,"[183,140,36,124,221,32,235,312,234,71,86,153,229,158,99,265,225,138,149,113]",6,-9,1,0,0,0,22,22,54,1,,,
,,,,,,,,,,,,,FF,,,,,,,,1.689,,,,,,,,,,,,,,,,,,,,,,,,,5c7ceda01d2afc0001f4ad1d,60a7d7fcb29dd492543b156f,2021-05-21_16h56.21.814,Simcolourproject_2stim_asymm_v5,2020.2.10,MacIntel,60,60a5f9bf14d0aa2821c4bb84,,,712,46,30,1,0,0,response1disk,,6,8,4,1,0,0,rectangle,8,4,1,0,0,1,"[183,140,36,124,221,32,235,312,234,71,86,153,229,158,99,265,225,138,149,113]",8,4,1,0,0,0,23,23,43,1,,,
,,,,,,,,,,,,,FF,,,,,,,,1.888,,,,,,,,,,,,,,,,,,,,,,,,,5c7ceda01d2afc0001f4ad1d,60a7d7fcb29dd492543b156f,2021-05-21_16h56.21.814,Simcolourproject_2stim_asymm_v5,2020.2.10,MacIntel,60,60a5f9bf14d0aa2821c4bb84,,,433,17,-87,1,0,0,response3disk,,4,-6,0,1,0,0,rectangle,-6,0,1,0,0,4,"[183,140,36,124,221,32,235,312,234,71,86,153,229,158,99,265,225,138,149,113]",-6,0,1,0,0,0,24,24,92,1,,,
,,,,,,,,,,,,,FF,,,,,,,,1.02,,,,,,,,,,,,,,,,,,,,,,,,,5c7ceda01d2afc0001f4ad1d,60a7d7fcb29dd492543b156f,2021-05-21_16h56.21.814,Simcolourproject_2stim_asymm_v5,2020.2.10,MacIntel,60,60a5f9bf14d0aa2821c4bb84,,,307,63,35,1,0,0,response1disk,,6,14,-1,1,0,0,rectangle,14,-1,1,0,0,4,"[183,140,36,124,221,32,235,312,234,71,86,153,229,158,99,265,225,138,149,113]",14,-1,1,0,0,0,25,25,89,1,,,
,,,,,,,,,,,,,FF,,,,,,,,1.606,,,,,,,,,,,,,,,,,,,,,,,,,5c7ceda01d2afc0001f4ad1d,60a7d7fcb29dd492543b156f,2021-05-21_16h56.21.814,Simcolourproject_2stim_asymm_v5,2020.2.10,MacIntel,60,60a5f9bf14d0aa2821c4bb84,,,1482,55,32,1,0,0,response1disk,,6,13,8,1,0,0,rectangle,13,8,1,0,0,1,"[183,140,36,124,221,32,235,312,234,71,86,153,229,158,99,265,225,138,149,113]",13,8,1,0,0,0,26,26,34,1,,,
,,,,,,,,,,,,,FF,,,,,,,,1.606,,,,,,,,,,,,,,,,,,,,,,,,,5c7ceda01d2afc0001f4ad1d,60a7d7fcb29dd492543b156f,2021-05-21_16h56.21.814,Simcolourproject_2stim_asymm_v5,2020.2.10,MacIntel,60,60a5f9bf14d0aa2821c4bb84,,,2249,30,-99,1,0,0,response3disk,,4,11,-6,1,0,0,rectangle,11,-6,1,0,0,5,"[183,140,36,124,221,32,235,312,234,71,86,153,229,158,99,265,225,138,149,113]",11,-6,1,0,0,0,27,27,75,1,,,
,,,,,,,,,,,,,FF,,,,,,,,1.091,,,,,,,,,,,,,,,,,,,,,,,,,5c7ceda01d2afc0001f4ad1d,60a7d7fcb29dd492543b156f,2021-05-21_16h56.21.814,Simcolourproject_2stim_asymm_v5,2020.2.10,MacIntel,60,60a5f9bf14d0aa2821c4bb84,,,2581,69,38,1,0,0,response1disk,,6,19,16,1,0,0,rectangle,19,16,1,0,0,1,"[183,140,36,124,221,32,235,312,234,71,86,153,229,158,99,265,225,138,149,113]",19,16,1,0,0,0,28,28,156,1,,,
,,,,,,,,,,,,,FF,,,,,,,,1.506,,,,,,,,,,,,,,,,,,,,,,,,,5c7ceda01d2afc0001f4ad1d,60a7d7fcb29dd492543b156f,2021-05-21_16h56.21.814,Simcolourproject_2stim_asymm_v5,2020.2.10,MacIntel,60,60a5f9bf14d0aa2821c4bb84,,,1135,33,-79,1,0,0,response3disk,,4,1,-8,1,0,0,rectangle,1,-8,1,0,0,5,"[183,140,36,124,221,32,235,312,234,71,86,153,229,158,99,265,225,138,149,113]",1,-8,1,0,0,0,29,29,55,1,,,
,,,,,,,,,,,,,FF,,,,,,,,1.138,,,,,,,,,,,,,,,,,,,,,,,,,5c7ceda01d2afc0001f4ad1d,60a7d7fcb29dd492543b156f,2021-05-21_16h56.21.814,Simcolourproject_2stim_asymm_v5,2020.2.10,MacIntel,60,60a5f9bf14d0aa2821c4bb84,,,4289,60,29,1,0,0,response1disk,,6,14,8,1,0,0,rectangle,14,8,1,0,0,7,"[183,140,36,124,221,32,235,312,234,71,86,153,229,158,99,265,225,138,149,113]",14,8,1,0,0,0,30,30,15,1,,,
,,,,,,,,,,,,,FF,,,,,,,,1.107,,,,,,,,,,,,,,,,,,,,,,,,,5c7ceda01d2afc0001f4ad1d,60a7d7fcb29dd492543b156f,2021-05-21_16h56.21.814,Simcolourproject_2stim_asymm_v5,2020.2.10,MacIntel,60,60a5f9bf14d0aa2821c4bb84,,,1297,-42,-100,1,0,0,response5disk,,3,-1,-6,1,0,0,rectangle,47,98,1,0,0,6,"[183,140,36,124,221,32,235,312,234,71,86,153,229,158,99,265,225,138,149,113]",13,-9,1,0,0,0,31,31,4,1,,response1disk_3,rectangle
,,,,,,,,,,,,,FF,,,,,,,,1.672,,,,,,,,,,,,,,,,,,,,,,,,,5c7ceda01d2afc0001f4ad1d,60a7d7fcb29dd492543b156f,2021-05-21_16h56.21.814,Simcolourproject_2stim_asymm_v5,2020.2.10,MacIntel,60,60a5f9bf14d0aa2821c4bb84,,,4308,-33,-79,1,0,0,response5disk,,3,4,-3,1,0,0,rectangle,4,-3,1,0,0,7,"[183,140,36,124,221,32,235,312,234,71,86,153,229,158,99,265,225,138,149,113]",4,-3,1,0,0,0,32,32,31,1,,,
,,,,,,,,,,,,,FF,,,,,,,,1.238,,,,,,,,,,,,,,,,,,,,,,,,,5c7ceda01d2afc0001f4ad1d,60a7d7fcb29dd492543b156f,2021-05-21_16h56.21.814,Simcolourproject_2stim_asymm_v5,2020.2.10,MacIntel,60,60a5f9bf14d0aa2821c4bb84,,,2232,-50,-96,1,0,0,response5disk,,3,4,10,1,0,0,rectangle,4,10,1,0,0,0,"[183,140,36,124,221,32,235,312,234,71,86,153,229,158,99,265,225,138,149,113]",4,10,1,0,0,0,33,33,37,1,,,
,,,,,,,,,,,,,FF,,,,,,,,0.94,,,,,,,,,,,,,,,,,,,,,,,,,5c7ceda01d2afc0001f4ad1d,60a7d7fcb29dd492543b156f,2021-05-21_16h56.21.814,Simcolourproject_2stim_asymm_v5,2020.2.10,MacIntel,60,60a5f9bf14d0aa2821c4bb84,,,4043,65,26,1,0,0,response1disk,,6,13,-3,1,0,0,rectangle,13,-3,1,0,0,5,"[183,140,36,124,221,32,235,312,234,71,86,153,229,158,99,265,225,138,149,113]",13,-3,1,0,0,0,34,34,133,1,,,
,,,,,,,,,,,,,FF,,,,,,,,1.168,,,,,,,,,,,,,,,,,,,,,,,,,5c7ceda01d2afc0001f4ad1d,60a7d7fcb29dd492543b156f,2021-05-21_16h56.21.814,Simcolourproject_2stim_asymm_v5,2020.2.10,MacIntel,60,60a5f9bf14d0aa2821c4bb84,,,905,35,-69,1,0,0,response3disk,,4,5,-5,1,0,0,rectangle,-44,91,1,0,0,0,"[183,140,36,124,221,32,235,312,234,71,86,153,229,158,99,265,225,138,149,113]",9,7,1,0,0,0,35,35,6,1,,response7disk_3,rectangle
,,,,,,,,,,,,,FF,,,,,,,,2.764,,,,,,,,,,,,,,,,,,,,,,,,,5c7ceda01d2afc0001f4ad1d,60a7d7fcb29dd492543b156f,2021-05-21_16h56.21.814,Simcolourproject_2stim_asymm_v5,2020.2.10,MacIntel,60,60a5f9bf14d0aa2821c4bb84,,,2986,-53,-39,1,0,0,response5disk,,0,4,-2,1,0,0,rectangle,4,-2,1,0,0,3,"[183,140,36,124,221,32,235,312,234,71,86,153,229,158,99,265,225,138,149,113]",4,-2,1,0,0,0,36,36,94,1,,,
,,,,,,,,,,,,,FF,,,,,,,,1.021,,,,,,,,,,,,,,,,,,,,,,,,,5c7ceda01d2afc0001f4ad1d,60a7d7fcb29dd492543b156f,2021-05-21_16h56.21.814,Simcolourproject_2stim_asymm_v5,2020.2.10,MacIntel,60,60a5f9bf14d0aa2821c4bb84,,,2367,-46,-100,1,0,0,response5disk,,3,18,-1,1,0,0,rectangle,18,-1,1,0,0,1,"[183,140,36,124,221,32,235,312,234,71,86,153,229,158,99,265,225,138,149,113]",18,-1,1,0,0,0,37,37,130,1,,,
,,,,,,,,,,,,,FF,,,,,,,,0.919,,,,,,,,,,,,,,,,,,,,,,,,,5c7ceda01d2afc0001f4ad1d,60a7d7fcb29dd492543b156f,2021-05-21_16h56.21.814,Simcolourproject_2stim_asymm_v5,2020.2.10,MacIntel,60,60a5f9bf14d0aa2821c4bb84,,,428,59,26,1,0,0,response1disk,,6,8,2,1,0,0,rectangle,8,2,1,0,0,4,"[183,140,36,124,221,32,235,312,234,71,86,153,229,158,99,265,225,138,149,113]",8,2,1,0,0,0,38,38,134,1,,,
,,,,,,,,,,,,,FF,,,,,,,,1.591,,,,,,,,,,,,,,,,,,,,,,,,,5c7ceda01d2afc0001f4ad1d,60a7d7fcb29dd492543b156f,2021-05-21_16h56.21.814,Simcolourproject_2stim_asymm_v5,2020.2.10,MacIntel,60,60a5f9bf14d0aa2821c4bb84,,,202,83,34,1,0,0,response1disk,,6,18,3,1,0,0,rectangle,18,3,1,0,0,3,"[183,140,36,124,221,32,235,312,234,71,86,153,229,158,99,265,225,138,149,113]",18,3,1,0,0,0,39,39,93,1,,,
,,,,,,,,,,,,,FF,,,,,,,,1.087,,,,,,,,,,,,,,,,,,,,,,,,,5c7ceda01d2afc0001f4ad1d,60a7d7fcb29dd492543b156f,2021-05-21_16h56.21.814,Simcolourproject_2stim_asymm_v5,2020.2.10,MacIntel,60,60a5f9bf14d0aa2821c4bb84,,,2817,36,-77,1,0,0,response3disk,,4,-1,5,1,0,0,rectangle,-1,5,1,0,0,4,"[183,140,36,124,221,32,235,312,234,71,86,153,229,158,99,265,225,138,149,113]",-1,5,1,0,0,0,40,40,142,1,,,
,,,,,,,,,,,,,FF,,,,,,,,1.692,,,,,,,,,,,,,,,,,,,,,,,,,5c7ceda01d2afc0001f4ad1d,60a7d7fcb29dd492543b156f,2021-05-21_16h56.21.814,Simcolourproject_2stim_asymm_v5,2020.2.10,MacIntel,60,60a5f9bf14d0aa2821c4bb84,,,3724,31,-58,1,0,0,response3disk,,4,10,3,1,0,0,rectangle,10,3,1,0,0,5,"[183,140,36,124,221,32,235,312,234,71,86,153,229,158,99,265,225,138,149,113]",10,3,1,0,0,0,41,41,102,1,,,
,,,,,,,,,,,,,FF,,,,,,,,1.909,,,,,,,,,,,,,,,,,,,,,,,,,5c7ceda01d2afc0001f4ad1d,60a7d7fcb29dd492543b156f,2021-05-21_16h56.21.814,Simcolourproject_2stim_asymm_v5,2020.2.10,MacIntel,60,60a5f9bf14d0aa2821c4bb84,,,2834,-60,-88,1,0,0,response5disk,,3,-10,0,1,0,0,rectangle,-10,0,1,0,0,1,"[183,140,36,124,221,32,235,312,234,71,86,153,229,158,99,265,225,138,149,113]",-10,0,1,0,0,0,42,42,82,1,,,
,,,,,,,,,,,,,FF,,,,,,,,1.872,,,,,,,,,,,,,,,,,,,,,,,,,5c7ceda01d2afc0001f4ad1d,60a7d7fcb29dd492543b156f,2021-05-21_16h56.21.814,Simcolourproject_2stim_asymm_v5,2020.2.10,MacIntel,60,60a5f9bf14d0aa2821c4bb84,,,3201,41,-77,1,0,0,response3disk,,4,2,3,1,0,0,rectangle,2,3,1,0,0,2,"[183,140,36,124,221,32,235,312,234,71,86,153,229,158,99,265,225,138,149,113]",2,3,1,0,0,0,43,43,153,1,,,
,,,,,,,,,,,,,FF,,,,,,,,1.391,,,,,,,,,,,,,,,,,,,,,,,,,5c7ceda01d2afc0001f4ad1d,60a7d7fcb29dd492543b156f,2021-05-21_16h56.21.814,Simcolourproject_2stim_asymm_v5,2020.2.10,MacIntel,60,60a5f9bf14d0aa2821c4bb84,,,1169,34,59,1,0,0,response1disk,,7,24,8,1,0,0,rectangle,24,8,1,0,0,6,"[183,140,36,124,221,32,235,312,234,71,86,153,229,158,99,265,225,138,149,113]",24,8,1,0,0,0,44,44,146,1,,,
,,,,,,,,,,,,,FF,,,,,,,,1.637,,,,,,,,,,,,,,,,,,,,,,,,,5c7ceda01d2afc0001f4ad1d,60a7d7fcb29dd492543b156f,2021-05-21_16h56.21.814,Simcolourproject_2stim_asymm_v5,2020.2.10,MacIntel,60,60a5f9bf14d0aa2821c4bb84,,,4025,67,37,1,0,0,response1disk,,6,18,12,1,0,0,rectangle,18,12,1,0,0,0,"[183,140,36,124,221,32,235,312,234,71,86,153,229,158,99,265,225,138,149,113]",18,12,1,0,0,0,45,45,11,1,,,
,,,,,,,,,,,,,FF,,,,,,,,0.939,,,,,,,,,,,,,,,,,,,,,,,,,5c7ceda01d2afc0001f4ad1d,60a7d7fcb29dd492543b156f,2021-05-21_16h56.21.814,Simcolourproject_2stim_asymm_v5,2020.2.10,MacIntel,60,60a5f9bf14d0aa2821c4bb84,,,846,54,23,1,0,0,response1disk,,6,15,7,1,0,0,rectangle,15,7,1,0,0,1,"[183,140,36,124,221,32,235,312,234,71,86,153,229,158,99,265,225,138,149,113]",15,7,1,0,0,0,46,46,21,1,,,
,,,,,,,,,,,,,FF,,,,,,,,0.99,,,,,,,,,,,,,,,,,,,,,,,,,5c7ceda01d2afc0001f4ad1d,60a7d7fcb29dd492543b156f,2021-05-21_16h56.21.814,Simcolourproject_2stim_asymm_v5,2020.2.10,MacIntel,60,60a5f9bf14d0aa2821c4bb84,,,2771,61,31,1,0,0,response1disk,,6,14,10,1,0,0,rectangle,14,10,1,0,0,0,"[183,140,36,124,221,32,235,312,234,71,86,153,229,158,99,265,225,138,149,113]",14,10,1,0,0,0,47,47,27,1,,,
,,,,,,,,,,,,,FF,,,,,,,,0.901,,,,,,,,,,,,,,,,,,,,,,,,,5c7ceda01d2afc0001f4ad1d,60a7d7fcb29dd492543b156f,2021-05-21_16h56.21.814,Simcolourproject_2stim_asymm_v5,2020.2.10,MacIntel,60,60a5f9bf14d0aa2821c4bb84,,,1886,-33,67,1,0,0,response7disk,,0,5,-1,1,0,0,rectangle,5,-1,1,0,0,1,"[183,140,36,124,221,32,235,312,234,71,86,153,229,158,99,265,225,138,149,113]",5,-1,1,0,0,0,48,48,36,1,,,
,,,,,,,,,,,,,FF,,,,,,,,1.154,,,,,,,,,,,,,,,,,,,,,,,,,5c7ceda01d2afc0001f4ad1d,60a7d7fcb29dd492543b156f,2021-05-21_16h56.21.814,Simcolourproject_2stim_asymm_v5,2020.2.10,MacIntel,60,60a5f9bf14d0aa2821c4bb84,,,368,-69,-87,1,0,0,response5disk,,3,8,-3,1,0,0,rectangle,8,-3,1,0,0,3,"[183,140,36,124,221,32,235,312,234,71,86,153,229,158,99,265,225,138,149,113]",8,-3,1,0,0,0,49,49,157,1,,,
,,,,,,,,,,,,,FF,,,,,,,,0.953,,,,,,,,,,,,,,,,,,,,,,,,,5c7ceda01d2afc0001f4ad1d,60a7d7fcb29dd492543b156f,2021-05-21_16h56.21.814,Simcolourproject_2stim_asymm_v5,2020.2.10,MacIntel,60,60a5f9bf14d0aa2821c4bb84,,,4215,55,28,1,0,0,response1disk,,6,3,-14,1,0,0,rectangle,3,-14,1,0,0,5,"[183,140,36,124,221,32,235,312,234,71,86,153,229,158,99,265,225,138,149,113]",3,-14,1,0,0,0,50,50,104,1,,,
,,,,,,,,,,,,,FF,,,,,,,,1.571,,,,,,,,,,,,,,,,,,,,,,,,,5c7ceda01d2afc0001f4ad1d,60a7d7fcb29dd492543b156f,2021-05-21_16h56.21.814,Simcolourproject_2stim_asymm_v5,2020.2.10,MacIntel,60,60a5f9bf14d0aa2821c4bb84,,,602,57,31,1,0,0,response1disk,,6,8,9,1,0,0,rectangle,8,9,1,0,0,7,"[183,140,36,124,221,32,235,312,234,71,86,153,229,158,99,265,225,138,149,113]",8,9,1,0,0,0,51,51,128,1,,,
,,,,,,,,,,,,,FF,,,,,,,,0.951,,,,,,,,,,,,,,,,,,,,,,,,,5c7ceda01d2afc0001f4ad1d,60a7d7fcb29dd492543b156f,2021-05-21_16h56.21.814,Simcolourproject_2stim_asymm_v5,2020.2.10,MacIntel,60,60a5f9bf14d0aa2821c4bb84,,,500,62,33,1,0,0,response1disk,,6,24,11,1,0,0,rectangle,24,11,1,0,0,0,"[183,140,36,124,221,32,235,312,234,71,86,153,229,158,99,265,225,138,149,113]",24,11,1,0,0,0,52,52,132,1,,,
,,,,,,,,,,,,,FF,,,,,,,,1.137,,,,,,,,,,,,,,,,,,,,,,,,,5c7ceda01d2afc0001f4ad1d,60a7d7fcb29dd492543b156f,2021-05-21_16h56.21.814,Simcolourproject_2stim_asymm_v5,2020.2.10,MacIntel,60,60a5f9bf14d0aa2821c4bb84,,,3685,70,-48,1,0,0,response3disk,,5,13,-6,1,0,0,rectangle,13,-6,1,0,0,3,"[183,140,36,124,221,32,235,312,234,71,86,153,229,158,99,265,225,138,149,113]",13,-6,1,0,0,0,53,53,20,1,,,
,,,,,,,,,,,,,FF,,,,,,,,0.936,,,,,,,,,,,,,,,,,,,,,,,,,5c7ceda01d2afc0001f4ad1d,60a7d7fcb29dd492543b156f,2021-05-21_16h56.21.814,Simcolourproject_2stim_asymm_v5,2020.2.10,MacIntel,60,60a5f9bf14d0aa2821c4bb84,,,4003,69,-33,1,0,0,response3disk,,5,19,-5,1,0,0,rectangle,19,-5,1,0,0,2,"[183,140,36,124,221,32,235,312,234,71,86,153,229,158,99,265,225,138,149,113]",19,-5,1,0,0,0,54,54,23,1,,,
,,,,,,,,,,,,,FF,,,,,,,,1.219,,,,,,,,,,,,,,,,,,,,,,,,,5c7ceda01d2afc0001f4ad1d,60a7d7fcb29dd492543b156f,2021-05-21_16h56.21.814,Simcolourproject_2stim_asymm_v5,2020.2.10,MacIntel,60,60a5f9bf14d0aa2821c4bb84,,,1276,65,-35,1,0,0,response3disk,,5,-3,3,1,0,0,rectangle,-3,3,1,0,0,3,"[183,140,36,124,221,32,235,312,234,71,86,153,229,158,99,265,225,138,149,113]",-3,3,1,0,0,0,55,55,5,1,,,
,,,,,,,,,,,,,FF,,,,,,,,1.219,,,,,,,,,,,,,,,,,,,,,,,,,5c7ceda01d2afc0001f4ad1d,60a7d7fcb29dd492543b156f,2021-05-21_16h56.21.814,Simcolourproject_2stim_asymm_v5,2020.2.10,MacIntel,60,60a5f9bf14d0aa2821c4bb84,,,2261,66,-39,1,0,0,response3disk,,5,1,-3,1,0,0,rectangle,1,-3,1,0,0,7,"[183,140,36,124,221,32,235,312,234,71,86,153,229,158,99,265,225,138,149,113]",1,-3,1,0,0,0,56,56,86,1,,,
,,,,,,,,,,,,,FF,,,,,,,,2.291,,,,,,,,,,,,,,,,,,,,,,,,,5c7ceda01d2afc0001f4ad1d,60a7d7fcb29dd492543b156f,2021-05-21_16h56.21.814,Simcolourproject_2stim_asymm_v5,2020.2.10,MacIntel,60,60a5f9bf14d0aa2821c4bb84,,,710,39,-67,1,0,0,response3disk,,4,16,-11,1,0,0,rectangle,16,-11,1,0,0,3,"[183,140,36,124,221,32,235,312,234,71,86,153,229,158,99,265,225,138,149,113]",16,-11,1,0,0,0,57,57,0,1,,,
,,,,,,,,,,,,,FF,,,,,,,,1.153,,,,,,,,,,,,,,,,,,,,,,,,,5c7ceda01d2afc0001f4ad1d,60a7d7fcb29dd492543b156f,2021-05-21_16h56.21.814,Simcolourproject_2stim_asymm_v5,2020.2.10,MacIntel,60,60a5f9bf14d0aa2821c4bb84,,,2090,60,33,1,0,0,response1disk,,6,22,17,1,0,0,rectangle,22,17,1,0,0,1,"[183,140,36,124,221,32,235,312,234,71,86,153,229,158,99,265,225,138,149,113]",22,17,1,0,0,0,58,58,38,1,,,
,,,,,,,,,,,,,FF,,,,,,,,0.872,,,,,,,,,,,,,,,,,,,,,,,,,5c7ceda01d2afc0001f4ad1d,60a7d7fcb29dd492543b156f,2021-05-21_16h56.21.814,Simcolourproject_2stim_asymm_v5,2020.2.10,MacIntel,60,60a5f9bf14d0aa2821c4bb84,,,3264,52,31,1,0,0,response1disk,,6,-10,3,1,0,0,rectangle,-10,3,1,0,0,7,"[183,140,36,124,221,32,235,312,234,71,86,153,229,158,99,265,225,138,149,113]",-10,3,1,0,0,0,59,59,47,1,,,
,,,,,,,,,,,,,FF,,,,,,,,2.29,,,,,,,,,,,,,,,,,,,,,,,,,5c7ceda01d2afc0001f4ad1d,60a7d7fcb29dd492543b156f,2021-05-21_16h56.21.814,Simcolourproject_2stim_asymm_v5,2020.2.10,MacIntel,60,60a5f9bf14d0aa2821c4bb84,,,1195,44,28,1,0,0,response1disk,,6,14,8,1,0,0,rectangle,14,8,1,0,0,0,"[183,140,36,124,221,32,235,312,234,71,86,153,229,158,99,265,225,138,149,113]",14,8,1,0,0,0,60,60,126,1,,,
,,,,,,,,,,,,,FF,,,,,,,,1.019,,,,,,,,,,,,,,,,,,,,,,,,,5c7ceda01d2afc0001f4ad1d,60a7d7fcb29dd492543b156f,2021-05-21_16h56.21.814,Simcolourproject_2stim_asymm_v5,2020.2.10,MacIntel,60,60a5f9bf14d0aa2821c4bb84,,,3764,58,-32,1,0,0,response3disk,,5,-20,-2,1,0,0,rectangle,-20,-2,1,0,0,7,"[183,140,36,124,221,32,235,312,234,71,86,153,229,158,99,265,225,138,149,113]",-20,-2,1,0,0,0,61,61,145,1,,,
,,,,,,,,,,,,,FF,,,,,,,,0.866,,,,,,,,,,,,,,,,,,,,,,,,,5c7ceda01d2afc0001f4ad1d,60a7d7fcb29dd492543b156f,2021-05-21_16h56.21.814,Simcolourproject_2stim_asymm_v5,2020.2.10,MacIntel,60,60a5f9bf14d0aa2821c4bb84,,,594,64,-38,1,0,0,response3disk,,5,10,-4,1,0,0,rectangle,10,-4,1,0,0,2,"[183,140,36,124,221,32,235,312,234,71,86,153,229,158,99,265,225,138,149,113]",10,-4,1,0,0,0,62,62,113,1,,,
,,,,,,,,,,,,,FF,,,,,,,,1.09,,,,,,,,,,,,,,,,,,,,,,,,,5c7ceda01d2afc0001f4ad1d,60a7d7fcb29dd492543b156f,2021-05-21_16h56.21.814,Simcolourproject_2stim_asymm_v5,2020.2.10,MacIntel,60,60a5f9bf14d0aa2821c4bb84,,,3224,71,-32,1,0,0,response3disk,,5,-15,5,1,0,0,rectangle,-15,5,1,0,0,0,"[183,140,36,124,221,32,235,312,234,71,86,153,229,158,99,265,225,138,149,113]",-15,5,1,0,0,0,63,63,56,1,,,
,,,,,,,,,,,,,FF,,,,,,,,1.037,,,,,,,,,,,,,,,,,,,,,,,,,5c7ceda01d2afc0001f4ad1d,60a7d7fcb29dd492543b156f,2021-05-21_16h56.21.814,Simcolourproject_2stim_asymm_v5,2020.2.10,MacIntel,60,60a5f9bf14d0aa2821c4bb84,,,3075,62,-40,1,0,0,response3disk,,5,21,-7,1,0,0,rectangle,21,-7,1,0,0,5,"[183,140,36,124,221,32,235,312,234,71,86,153,229,158,99,265,225,138,149,113]",21,-7,1,0,0,0,64,64,79,1,,,
,,,,,,,,,,,,,FF,,,,,,,,0.901,,,,,,,,,,,,,,,,,,,,,,,,,5c7ceda01d2afc0001f4ad1d,60a7d7fcb29dd492543b156f,2021-05-21_16h56.21.814,Simcolourproject_2stim_asymm_v5,2020.2.10,MacIntel,60,60a5f9bf14d0aa2821c4bb84,,,3128,55,-33,1,0,0,response3disk,,5,4,-2,1,0,0,rectangle,4,-2,1,0,0,0,"[183,140,36,124,221,32,235,312,234,71,86,153,229,158,99,265,225,138,149,113]",4,-2,1,0,0,0,65,65,64,1,,,
,,,,,,,,,,,,,FF,,,,,,,,1.187,,,,,,,,,,,,,,,,,,,,,,,,,5c7ceda01d2afc0001f4ad1d,60a7d7fcb29dd492543b156f,2021-05-21_16h56.21.814,Simcolourproject_2stim_asymm_v5,2020.2.10,MacIntel,60,60a5f9bf14d0aa2821c4bb84,,,2828,31,-72,1,0,0,response3disk,,4,4,-2,1,0,0,rectangle,4,-2,1,0,0,4,"[183,140,36,124,221,32,235,312,234,71,86,153,229,158,99,265,225,138,149,113]",4,-2,1,0,0,0,66,66,140,1,,,
,,,,,,,,,,,,,FF,,,,,,,,1.725,,,,,,,,,,,,,,,,,,,,,,,,,5c7ceda01d2afc0001f4ad1d,60a7d7fcb29dd492543b156f,2021-05-21_16h56.21.814,Simcolourproject_2stim_asymm_v5,2020.2.10,MacIntel,60,60a5f9bf14d0aa2821c4bb84,,,1130,65,30,1,0,0,response1disk,,6,7,8,1,0,0,rectangle,7,8,1,0,0,4,"[183,140,36,124,221,32,235,312,234,71,86,153,229,158,99,265,225,138,149,113]",7,8,1,0,0,0,67,67,28,1,,,
,,,,,,,,,,,,,FF,,,,,,,,1.723,,,,,,,,,,,,,,,,,,,,,,,,,5c7ceda01d2afc0001f4ad1d,60a7d7fcb29dd492543b156f,2021-05-21_16h56.21.814,Simcolourproject_2stim_asymm_v5,2020.2.10,MacIntel,60,60a5f9bf14d0aa2821c4bb84,,,3361,51,-29,1,0,0,response3disk,,5,9,-8,1,0,0,rectangle,9,-8,1,0,0,4,"[183,140,36,124,221,32,235,312,234,71,86,153,229,158,99,265,225,138,149,113]",9,-8,1,0,0,0,68,68,80,1,,,
,,,,,,,,,,,,,FF,,,,,,,,1.172,,,,,,,,,,,,,,,,,,,,,,,,,5c7ceda01d2afc0001f4ad1d,60a7d7fcb29dd492543b156f,2021-05-21_16h56.21.814,Simcolourproject_2stim_asymm_v5,2020.2.10,MacIntel,60,60a5f9bf14d0aa2821c4bb84,,,313,40,-60,1,0,0,response3disk,,4,10,-9,1,0,0,rectangle,10,-9,1,0,0,4,"[183,140,36,124,221,32,235,312,234,71,86,153,229,158,99,265,225,138,149,113]",10,-9,1,0,0,0,69,69,17,1,,,
,,,,,,,,,,,,,FF,,,,,,,,1.069,,,,,,,,,,,,,,,,,,,,,,,,,5c7ceda01d2afc0001f4ad1d,60a7d7fcb29dd492543b156f,2021-05-21_16h56.21.814,Simcolourproject_2stim_asymm_v5,2020.2.10,MacIntel,60,60a5f9bf14d0aa2821c4bb84,,,3268,39,-68,1,0,0,response3disk,,4,16,-14,1,0,0,rectangle,-71,-39,1,0,0,2,"[183,140,36,124,221,32,235,312,234,71,86,153,229,158,99,265,225,138,149,113]",11,-2,1,0,0,0,70,70,100,1,,response5disk_3,rectangle
,,,,,,,,,,,,,FF,,,,,,,,3.946,,,,,,,,,,,,,,,,,,,,,,,,,5c7ceda01d2afc0001f4ad1d,60a7d7fcb29dd492543b156f,2021-05-21_16h56.21.814,Simcolourproject_2stim_asymm_v5,2020.2.10,MacIntel,60,60a5f9bf14d0aa2821c4bb84,,,3819,92,-32,1,0,0,response3disk,,5,-16,-3,1,0,0,rectangle,-16,-3,1,0,0,7,"[183,140,36,124,221,32,235,312,234,71,86,153,229,158,99,265,225,138,149,113]",-16,-3,1,0,0,0,71,71,25,1,,,
,,,,,,,,,,,,,FF,,,,,,,,1.475,,,,,,,,,,,,,,,,,,,,,,,,,5c7ceda01d2afc0001f4ad1d,60a7d7fcb29dd492543b156f,2021-05-21_16h56.21.814,Simcolourproject_2stim_asymm_v5,2020.2.10,MacIntel,60,60a5f9bf14d0aa2821c4bb84,,,1070,-42,-88,1,0,0,response5disk,,3,-5,1,1,0,0,rectangle,-5,1,1,0,0,0,"[183,140,36,124,221,32,235,312,234,71,86,153,229,158,99,265,225,138,149,113]",-5,1,1,0,0,0,72,72,139,1,,,
,,,,,,,,,,,,,FF,,,,,,,,1.003,,,,,,,,,,,,,,,,,,,,,,,,,5c7ceda01d2afc0001f4ad1d,60a7d7fcb29dd492543b156f,2021-05-21_16h56.21.814,Simcolourproject_2stim_asymm_v5,2020.2.10,MacIntel,60,60a5f9bf14d0aa2821c4bb84,,,3435,-31,-92,1,0,0,response5disk,,3,-1,-3,1,0,0,rectangle,-1,-3,1,0,0,6,"[183,140,36,124,221,32,235,312,234,71,86,153,229,158,99,265,225,138,149,113]",-1,-3,1,0,0,0,73,73,84,1,,,
,,,,,,,,,,,,,FF,,,,,,,,1.052,,,,,,,,,,,,,,,,,,,,,,,,,5c7ceda01d2afc0001f4ad1d,60a7d7fcb29dd492543b156f,2021-05-21_16h56.21.814,Simcolourproject_2stim_asymm_v5,2020.2.10,MacIntel,60,60a5f9bf14d0aa2821c4bb84,,,2203,72,30,1,0,0,response1disk,,6,3,-11,1,0,0,rectangle,3,-11,1,0,0,7,"[183,140,36,124,221,32,235,312,234,71,86,153,229,158,99,265,225,138,149,113]",3,-11,1,0,0,0,74,74,40,1,,,
,,,,,,,,,,,,,FF,,,,,,,,1.838,,,,,,,,,,,,,,,,,,,,,,,,,5c7ceda01d2afc0001f4ad1d,60a7d7fcb29dd492543b156f,2021-05-21_16h56.21.814,Simcolourproject_2stim_asymm_v5,2020.2.10,MacIntel,60,60a5f9bf14d0aa2821c4bb84,,,1359,75,-32,1,0,0,response3disk,,5,4,-3,1,0,0,rectangle,4,-3,1,0,0,6,"[183,140,36,124,221,32,235,312,234,71,86,153,229,158,99,265,225,138,149,113]",4,-3,1,0,0,0,75,75,49,1,,,
,,,,,,,,,,,,,FF,,,,,,,,0.988,,,,,,,,,,,,,,,,,,,,,,,,,5c7ceda01d2afc0001f4ad1d,60a7d7fcb29dd492543b156f,2021-05-21_16h56.21.814,Simcolourproject_2stim_asymm_v5,2020.2.10,MacIntel,60,60a5f9bf14d0aa2821c4bb84,,,3725,29,-60,1,0,0,response3disk,,4,3,-7,1,0,0,rectangle,3,-7,1,0,0,4,"[183,140,36,124,221,32,235,312,234,71,86,153,229,158,99,265,225,138,149,113]",3,-7,1,0,0,0,76,76,70,1,,,
,,,,,,,,,,,,,FF,,,,,,,,2.462,,,,,,,,,,,,,,,,,,,,,,,,,5c7ceda01d2afc0001f4ad1d,60a7d7fcb29dd492543b156f,2021-05-21_16h56.21.814,Simcolourproject_2stim_asymm_v5,2020.2.10,MacIntel,60,60a5f9bf14d0aa2821c4bb84,,,1543,34,-47,1,0,0,response3disk,,4,11,-7,1,0,0,rectangle,11,-7,1,0,0,3,"[183,140,36,124,221,32,235,312,234,71,86,153,229,158,99,265,225,138,149,113]",11,-7,1,0,0,0,77,77,99,1,,,
,,,,,,,,,,,,,FF,,,,,,,,1.174,,,,,,,,,,,,,,,,,,,,,,,,,5c7ceda01d2afc0001f4ad1d,60a7d7fcb29dd492543b156f,2021-05-21_16h56.21.814,Simcolourproject_2stim_asymm_v5,2020.2.10,MacIntel,60,60a5f9bf14d0aa2821c4bb84,,,3294,-50,-84,1,0,0,response5disk,,3,0,4,1,0,0,rectangle,0,4,1,0,0,1,"[183,140,36,124,221,32,235,312,234,71,86,153,229,158,99,265,225,138,149,113]",0,4,1,0,0,0,78,78,122,1,,,
,,,,,,,,,,,,,FF,,,,,,,,1.47,,,,,,,,,,,,,,,,,,,,,,,,,5c7ceda01d2afc0001f4ad1d,60a7d7fcb29dd492543b156f,2021-05-21_16h56.21.814,Simcolourproject_2stim_asymm_v5,2020.2.10,MacIntel,60,60a5f9bf14d0aa2821c4bb84,,,4152,57,28,1,0,0,response1disk,,6,3,5,1,0,0,rectangle,3,5,1,0,0,0,"[183,140,36,124,221,32,235,312,234,71,86,153,229,158,99,265,225,138,149,113]",3,5,1,0,0,0,79,79,112,1,,,
,,,,,,,,,,,,,FF,,,,,,,,1.437,,,,,,,,,,,,,,,,,,,,,,,,,5c7ceda01d2afc0001f4ad1d,60a7d7fcb29dd492543b156f,2021-05-21_16h56.21.814,Simcolourproject_2stim_asymm_v5,2020.2.10,MacIntel,60,60a5f9bf14d0aa2821c4bb84,,,36,30,-42,1,0,0,response3disk,,4,0,-4,1,0,0,rectangle,0,-4,1,0,0,6,"[183,140,36,124,221,32,235,312,234,71,86,153,229,158,99,265,225,138,149,113]",0,-4,1,0,0,0,80,80,14,1,,,
,,,,,,,,,,,,,FF,,,,,,,,1.405,,,,,,,,,,,,,,,,,,,,,,,,,5c7ceda01d2afc0001f4ad1d,60a7d7fcb29dd492543b156f,2021-05-21_16h56.21.814,Simcolourproject_2stim_asymm_v5,2020.2.10,MacIntel,60,60a5f9bf14d0aa2821c4bb84,,,4176,53,-31,1,0,0,response3disk,,5,13,-11,1,0,0,rectangle,13,-11,1,0,0,3,"[183,140,36,124,221,32,235,312,234,71,86,153,229,158,99,265,225,138,149,113]",13,-11,1,0,0,0,81,81,118,1,,,
,,,,,,,,,,,,,FF,,,,,,,,1.119,,,,,,,,,,,,,,,,,,,,,,,,,5c7ceda01d2afc0001f4ad1d,60a7d7fcb29dd492543b156f,2021-05-21_16h56.21.814,Simcolourproject_2stim_asymm_v5,2020.2.10,MacIntel,60,60a5f9bf14d0aa2821c4bb84,,,2307,28,-54,1,0,0,response3disk,,4,3,-7,1,0,0,rectangle,3,-7,1,0,0,5,"[183,140,36,124,221,32,235,312,234,71,86,153,229,158,99,265,225,138,149,113]",3,-7,1,0,0,0,82,82,158,1,,,
,,,,,,,,,,,,,FF,,,,,,,,1.471,,,,,,,,,,,,,,,,,,,,,,,,,5c7ceda01d2afc0001f4ad1d,60a7d7fcb29dd492543b156f,2021-05-21_16h56.21.814,Simcolourproject_2stim_asymm_v5,2020.2.10,MacIntel,60,60a5f9bf14d0aa2821c4bb84,,,2716,36,-66,1,0,0,response3disk,,4,4,-7,1,0,0,rectangle,4,-7,1,0,0,1,"[183,140,36,124,221,32,235,312,234,71,86,153,229,158,99,265,225,138,149,113]",4,-7,1,0,0,0,83,83,30,1,,,
,,,,,,,,,,,,,FF,,,,,,,,1.104,,,,,,,,,,,,,,,,,,,,,,,,,5c7ceda01d2afc0001f4ad1d,60a7d7fcb29dd492543b156f,2021-05-21_16h56.21.814,Simcolourproject_2stim_asymm_v5,2020.2.10,MacIntel,60,60a5f9bf14d0aa2821c4bb84,,,3385,-41,-92,1,0,0,response5disk,,3,-1,-7,1,0,0,rectangle,-1,-7,1,0,0,3,"[183,140,36,124,221,32,235,312,234,71,86,153,229,158,99,265,225,138,149,113]",-1,-7,1,0,0,0,84,84,57,1,,,
,,,,,,,,,,,,,FF,,,,,,,,2.426,,,,,,,,,,,,,,,,,,,,,,,,,5c7ceda01d2afc0001f4ad1d,60a7d7fcb29dd492543b156f,2021-05-21_16h56.21.814,Simcolourproject_2stim_asymm_v5,2020.2.10,MacIntel,60,60a5f9bf14d0aa2821c4bb84,,,606,-28,-61,1,0,0,response5disk,,3,1,-1,1,0,0,rectangle,81,45,1,0,0,6,"[183,140,36,124,221,32,235,312,234,71,86,153,229,158,99,265,225,138,149,113]",1,-1,1,0,0,0,85,85,66,1,,response1disk_3,rectangle
,,,,,,,,,,,,,FF,,,,,,,,1.338,,,,,,,,,,,,,,,,,,,,,,,,,5c7ceda01d2afc0001f4ad1d,60a7d7fcb29dd492543b156f,2021-05-21_16h56.21.814,Simcolourproject_2stim_asymm_v5,2020.2.10,MacIntel,60,60a5f9bf14d0aa2821c4bb84,,,2035,-46,-107,1,0,0,response5disk,,3,3,-6,1,0,0,rectangle,3,-6,1,0,0,5,"[183,140,36,124,221,32,235,312,234,71,86,153,229,158,99,265,225,138,149,113]",3,-6,1,0,0,0,86,86,103,1,,,
,,,,,,,,,,,,,FF,,,,,,,,1.304,,,,,,,,,,,,,,,,,,,,,,,,,5c7ceda01d2afc0001f4ad1d,60a7d7fcb29dd492543b156f,2021-05-21_16h56.21.814,Simcolourproject_2stim_asymm_v5,2020.2.10,MacIntel,60,60a5f9bf14d0aa2821c4bb84,,,3106,-39,-57,1,0,0,response5disk,,3,-2,1,1,0,0,rectangle,-2,1,1,0,0,5,"[183,140,36,124,221,32,235,312,234,71,86,153,229,158,99,265,225,138,149,113]",-2,1,1,0,0,0,87,87,152,1,,,
,,,,,,,,,,,,,FF,,,,,,,,1.017,,,,,,,,,,,,,,,,,,,,,,,,,5c7ceda01d2afc0001f4ad1d,60a7d7fcb29dd492543b156f,2021-05-21_16h56.21.814,Simcolourproject_2stim_asymm_v5,2020.2.10,MacIntel,60,60a5f9bf14d0aa2821c4bb84,,,9,-45,-84,1,0,0,response5disk,,3,15,7,1,0,0,rectangle,15,7,1,0,0,0,"[183,140,36,124,221,32,235,312,234,71,86,153,229,158,99,265,225,138,149,113]",15,7,1,0,0,0,88,88,147,1,,,
,,,,,,,,,,,,,FF,,,,,,,,1.17,,,,,,,,,,,,,,,,,,,,,,,,,5c7ceda01d2afc0001f4ad1d,60a7d7fcb29dd492543b156f,2021-05-21_16h56.21.814,Simcolourproject_2stim_asymm_v5,2020.2.10,MacIntel,60,60a5f9bf14d0aa2821c4bb84,,,2066,65,-43,1,0,0,response3disk,,5,16,-5,1,0,0,rectangle,16,-5,1,0,0,6,"[183,140,36,124,221,32,235,312,234,71,86,153,229,158,99,265,225,138,149,113]",16,-5,1,0,0,0,89,89,101,1,,,
,,,,,,,,,,,,,FF,,,,,,,,1.02,,,,,,,,,,,,,,,,,,,,,,,,,5c7ceda01d2afc0001f4ad1d,60a7d7fcb29dd492543b156f,2021-05-21_16h56.21.814,Simcolourproject_2stim_asymm_v5,2020.2.10,MacIntel,60,60a5f9bf14d0aa2821c4bb84,,,2702,55,-28,1,0,0,response3disk,,5,3,-8,1,0,0,rectangle,3,-8,1,0,0,0,"[183,140,36,124,221,32,235,312,234,71,86,153,229,158,99,265,225,138,149,113]",3,-8,1,0,0,0,90,90,78,1,,,
,,,,,,,,,,,,,FF,,,,,,,,1.559,,,,,,,,,,,,,,,,,,,,,,,,,5c7ceda01d2afc0001f4ad1d,60a7d7fcb29dd492543b156f,2021-05-21_16h56.21.814,Simcolourproject_2stim_asymm_v5,2020.2.10,MacIntel,60,60a5f9bf14d0aa2821c4bb84,,,3464,69,-33,1,0,0,response3disk,,5,-3,-4,1,0,0,rectangle,-3,-4,1,0,0,0,"[183,140,36,124,221,32,235,312,234,71,86,153,229,158,99,265,225,138,149,113]",-3,-4,1,0,0,0,91,91,53,1,,,
,,,,,,,,,,,,,FF,,,,,,,,1.253,,,,,,,,,,,,,,,,,,,,,,,,,5c7ceda01d2afc0001f4ad1d,60a7d7fcb29dd492543b156f,2021-05-21_16h56.21.814,Simcolourproject_2stim_asymm_v5,2020.2.10,MacIntel,60,60a5f9bf14d0aa2821c4bb84,,,2737,36,-63,1,0,0,response3disk,,4,5,-3,1,0,0,rectangle,5,-3,1,0,0,3,"[183,140,36,124,221,32,235,312,234,71,86,153,229,158,99,265,225,138,149,113]",5,-3,1,0,0,0,92,92,110,1,,,
,,,,,,,,,,,,,FF,,,,,,,,1.436,,,,,,,,,,,,,,,,,,,,,,,,,5c7ceda01d2afc0001f4ad1d,60a7d7fcb29dd492543b156f,2021-05-21_16h56.21.814,Simcolourproject_2stim_asymm_v5,2020.2.10,MacIntel,60,60a5f9bf14d0aa2821c4bb84,,,1801,49,41,1,0,0,response1disk,,6,10,16,1,0,0,rectangle,10,16,1,0,0,3,"[183,140,36,124,221,32,235,312,234,71,86,153,229,158,99,265,225,138,149,113]",10,16,1,0,0,0,93,93,120,1,,,
,,,,,,,,,,,,,FF,,,,,,,,0.872,,,,,,,,,,,,,,,,,,,,,,,,,5c7ceda01d2afc0001f4ad1d,60a7d7fcb29dd492543b156f,2021-05-21_16h56.21.814,Simcolourproject_2stim_asymm_v5,2020.2.10,MacIntel,60,60a5f9bf14d0aa2821c4bb84,,,1930,42,18,1,0,0,response1disk,,6,-1,1,1,0,0,rectangle,-1,1,1,0,0,1,"[183,140,36,124,221,32,235,312,234,71,86,153,229,158,99,265,225,138,149,113]",-1,1,1,0,0,0,94,94,138,1,,,
,,,,,,,,,,,,,FF,,,,,,,,1.722,,,,,,,,,,,,,,,,,,,,,,,,,5c7ceda01d2afc0001f4ad1d,60a7d7fcb29dd492543b156f,2021-05-21_16h56.21.814,Simcolourproject_2stim_asymm_v5,2020.2.10,MacIntel,60,60a5f9bf14d0aa2821c4bb84,,,2360,-47,-91,1,0,0,response5disk,,3,-7,-7,1,0,0,rectangle,-7,-7,1,0,0,5,"[183,140,36,124,221,32,235,312,234,71,86,153,229,158,99,265,225,138,149,113]",-7,-7,1,0,0,0,95,95,29,1,,,
,,,,,,,,,,,,,FF,,,,,,,,1.657,,,,,,,,,,,,,,,,,,,,,,,,,5c7ceda01d2afc0001f4ad1d,60a7d7fcb29dd492543b156f,2021-05-21_16h56.21.814,Simcolourproject_2stim_asymm_v5,2020.2.10,MacIntel,60,60a5f9bf14d0aa2821c4bb84,,,1661,40,-51,1,0,0,response3disk,,4,5,12,1,0,0,rectangle,5,12,1,0,0,3,"[183,140,36,124,221,32,235,312,234,71,86,153,229,158,99,265,225,138,149,113]",5,12,1,0,0,0,96,96,61,1,,,
,,,,,,,,,,,,,FF,,,,,,,,0.985,,,,,,,,,,,,,,,,,,,,,,,,,5c7ceda01d2afc0001f4ad1d,60a7d7fcb29dd492543b156f,2021-05-21_16h56.21.814,Simcolourproject_2stim_asymm_v5,2020.2.10,MacIntel,60,60a5f9bf14d0aa2821c4bb84,,,1424,36,-54,1,0,0,response3disk,,4,5,-4,1,0,0,rectangle,5,-4,1,0,0,4,"[183,140,36,124,221,32,235,312,234,71,86,153,229,158,99,265,225,138,149,113]",5,-4,1,0,0,0,97,97,76,1,,,
,,,,,,,,,,,,,FF,,,,,,,,0.936,,,,,,,,,,,,,,,,,,,,,,,,,5c7ceda01d2afc0001f4ad1d,60a7d7fcb29dd492543b156f,2021-05-21_16h56.21.814,Simcolourproject_2stim_asymm_v5,2020.2.10,MacIntel,60,60a5f9bf14d0aa2821c4bb84,,,1320,31,-58,1,0,0,response3disk,,4,10,-4,1,0,0,rectangle,-59,96,1,0,0,0,"[183,140,36,124,221,32,235,312,234,71,86,153,229,158,99,265,225,138,149,113]",9,-2,1,0,0,0,98,98,150,1,,response7disk_3,rectangle
,,,,,,,,,,,,,FF,,,,,,,,1.004,,,,,,,,,,,,,,,,,,,,,,,,,5c7ceda01d2afc0001f4ad1d,60a7d7fcb29dd492543b156f,2021-05-21_16h56.21.814,Simcolourproject_2stim_asymm_v5,2020.2.10,MacIntel,60,60a5f9bf14d0aa2821c4bb84,,,4029,64,-29,1,0,0,response3disk,,5,-6,-1,1,0,0,rectangle,-6,-1,1,0,0,4,"[183,140,36,124,221,32,235,312,234,71,86,153,229,158,99,265,225,138,149,113]",-6,-1,1,0,0,0,99,99,81,1,,,
,,,,,,,,,,,,,FF,,,,,,,,0.87,,,,,,,,,,,,,,,,,,,,,,,,,5c7ceda01d2afc0001f4ad1d,60a7d7fcb29dd492543b156f,2021-05-21_16h56.21.814,Simcolourproject_2stim_asymm_v5,2020.2.10,MacIntel,60,60a5f9bf14d0aa2821c4bb84,,,3240,70,-37,1,0,0,response3disk,,5,7,-1,1,0,0,rectangle,7,-1,1,0,0,5,"[183,140,36,124,221,32,235,312,234,71,86,153,229,158,99,265,225,138,149,113]",7,-1,1,0,0,0,100,100,72,1,,,
,,,,,,,,,,,,,FF,,,,,,,,0.968,,,,,,,,,,,,,,,,,,,,,,,,,5c7ceda01d2afc0001f4ad1d,60a7d7fcb29dd492543b156f,2021-05-21_16h56.21.814,Simcolourproject_2stim_asymm_v5,2020.2.10,MacIntel,60,60a5f9bf14d0aa2821c4bb84,,,3721,59,-33,1,0,0,response3disk,,5,10,-10,1,0,0,rectangle,10,-10,1,0,0,4,"[183,140,36,124,221,32,235,312,234,71,86,153,229,158,99,265,225,138,149,113]",10,-10,1,0,0,0,101,101,7,1,,,
,,,,,,,,,,,,,FF,,,,,,,,1.071,,,,,,,,,,,,,,,,,,,,,,,,,5c7ceda01d2afc0001f4ad1d,60a7d7fcb29dd492543b156f,2021-05-21_16h56.21.814,Simcolourproject_2stim_asymm_v5,2020.2.10,MacIntel,60,60a5f9bf14d0aa2821c4bb84,,,4266,-64,85,1,0,0,response7disk,,0,3,-1,1,0,0,rectangle,3,-1,1,0,0,3,"[183,140,36,124,221,32,235,312,234,71,86,153,229,158,99,265,225,138,149,113]",3,-1,1,0,0,0,102,102,144,1,,,
,,,,,,,,,,,,,FF,,,,,,,,1.036,,,,,,,,,,,,,,,,,,,,,,,,,5c7ceda01d2afc0001f4ad1d,60a7d7fcb29dd492543b156f,2021-05-21_16h56.21.814,Simcolourproject_2stim_asymm_v5,2020.2.10,MacIntel,60,60a5f9bf14d0aa2821c4bb84,,,298,37,-56,1,0,0,response3disk,,4,12,-7,1,0,0,rectangle,12,-7,1,0,0,4,"[183,140,36,124,221,32,235,312,234,71,86,153,229,158,99,265,225,138,149,113]",12,-7,1,0,0,0,103,103,12,1,,,
,,,,,,,,,,,,,FF,,,,,,,,1.105,,,,,,,,,,,,,,,,,,,,,,,,,5c7ceda01d2afc0001f4ad1d,60a7d7fcb29dd492543b156f,2021-05-21_16h56.21.814,Simcolourproject_2stim_asymm_v5,2020.2.10,MacIntel,60,60a5f9bf14d0aa2821c4bb84,,,2445,37,-73,1,0,0,response3disk,,4,2,-9,1,0,0,rectangle,2,-9,1,0,0,4,"[183,140,36,124,221,32,235,312,234,71,86,153,229,158,99,265,225,138,149,113]",2,-9,1,0,0,0,104,104,109,1,,,
,,,,,,,,,,,,,FF,,,,,,,,1.084,,,,,,,,,,,,,,,,,,,,,,,,,5c7ceda01d2afc0001f4ad1d,60a7d7fcb29dd492543b156f,2021-05-21_16h56.21.814,Simcolourproject_2stim_asymm_v5,2020.2.10,MacIntel,60,60a5f9bf14d0aa2821c4bb84,,,2139,34,-49,1,0,0,response3disk,,4,12,-13,1,0,0,rectangle,12,-13,1,0,0,4,"[183,140,36,124,221,32,235,312,234,71,86,153,229,158,99,265,225,138,149,113]",12,-13,1,0,0,0,105,105,135,1,,,
,,,,,,,,,,,,,FF,,,,,,,,2.005,,,,,,,,,,,,,,,,,,,,,,,,,5c7ceda01d2afc0001f4ad1d,60a7d7fcb29dd492543b156f,2021-05-21_16h56.21.814,Simcolourproject_2stim_asymm_v5,2020.2.10,MacIntel,60,60a5f9bf14d0aa2821c4bb84,,,623,35,-71,1,0,0,response3disk,,4,-4,-2,1,0,0,rectangle,-4,-2,1,0,0,1,"[183,140,36,124,221,32,235,312,234,71,86,153,229,158,99,265,225,138,149,113]",-4,-2,1,0,0,0,106,106,111,1,,,
,,,,,,,,,,,,,FF,,,,,,,,1.206,,,,,,,,,,,,,,,,,,,,,,,,,5c7ceda01d2afc0001f4ad1d,60a7d7fcb29dd492543b156f,2021-05-21_16h56.21.814,Simcolourproject_2stim_asymm_v5,2020.2.10,MacIntel,60,60a5f9bf14d0aa2821c4bb84,,,2803,73,-31,1,0,0,response3disk,,5,-14,9,1,0,0,rectangle,-14,9,1,0,0,2,"[183,140,36,124,221,32,235,312,234,71,86,153,229,158,99,265,225,138,149,113]",-14,9,1,0,0,0,107,107,26,1,,,
,,,,,,,,,,,,,FF,,,,,,,,1.071,,,,,,,,,,,,,,,,,,,,,,,,,5c7ceda01d2afc0001f4ad1d,60a7d7fcb29dd492543b156f,2021-05-21_16h56.21.814,Simcolourproject_2stim_asymm_v5,2020.2.10,MacIntel,60,60a5f9bf14d0aa2821c4bb84,,,2014,62,-33,1,0,0,response3disk,,5,8,0,1,0,0,rectangle,8,0,1,0,0,1,"[183,140,36,124,221,32,235,312,234,71,86,153,229,158,99,265,225,138,149,113]",8,0,1,0,0,0,108,108,137,1,,,
,,,,,,,,,,,,,FF,,,,,,,,1.307,,,,,,,,,,,,,,,,,,,,,,,,,5c7ceda01d2afc0001f4ad1d,60a7d7fcb29dd492543b156f,2021-05-21_16h56.21.814,Simcolourproject_2stim_asymm_v5,2020.2.10,MacIntel,60,60a5f9bf14d0aa2821c4bb84,,,1524,29,-74,1,0,0,response3disk,,4,4,-10,1,0,0,rectangle,4,-10,1,0,0,2,"[183,140,36,124,221,32,235,312,234,71,86,153,229,158,99,265,225,138,149,113]",4,-10,1,0,0,0,109,109,108,1,,,
,,,,,,,,,,,,,FF,,,,,,,,0.967,,,,,,,,,,,,,,,,,,,,,,,,,5c7ceda01d2afc0001f4ad1d,60a7d7fcb29dd492543b156f,2021-05-21_16h56.21.814,Simcolourproject_2stim_asymm_v5,2020.2.10,MacIntel,60,60a5f9bf14d0aa2821c4bb84,,,337,61,37,1,0,0,response1disk,,6,-9,4,1,0,0,rectangle,-9,4,1,0,0,1,"[183,140,36,124,221,32,235,312,234,71,86,153,229,158,99,265,225,138,149,113]",-9,4,1,0,0,0,110,110,45,1,,,
,,,,,,,,,,,,,FF,,,,,,,,0.923,,,,,,,,,,,,,,,,,,,,,,,,,5c7ceda01d2afc0001f4ad1d,60a7d7fcb29dd492543b156f,2021-05-21_16h56.21.814,Simcolourproject_2stim_asymm_v5,2020.2.10,MacIntel,60,60a5f9bf14d0aa2821c4bb84,,,3263,65,31,1,0,0,response1disk,,6,14,5,1,0,0,rectangle,14,5,1,0,0,0,"[183,140,36,124,221,32,235,312,234,71,86,153,229,158,99,265,225,138,149,113]",14,5,1,0,0,0,111,111,63,1,,,
,,,,,,,,,,,,,FF,,,,,,,,1.087,,,,,,,,,,,,,,,,,,,,,,,,,5c7ceda01d2afc0001f4ad1d,60a7d7fcb29dd492543b156f,2021-05-21_16h56.21.814,Simcolourproject_2stim_asymm_v5,2020.2.10,MacIntel,60,60a5f9bf14d0aa2821c4bb84,,,1229,58,-38,1,0,0,response3disk,,5,1,-11,1,0,0,rectangle,-46,83,1,0,0,0,"[183,140,36,124,221,32,235,312,234,71,86,153,229,158,99,265,225,138,149,113]",-1,6,1,0,0,0,112,112,52,1,,response7disk_3,rectangle
,,,,,,,,,,,,,FF,,,,,,,,1.219,,,,,,,,,,,,,,,,,,,,,,,,,5c7ceda01d2afc0001f4ad1d,60a7d7fcb29dd492543b156f,2021-05-21_16h56.21.814,Simcolourproject_2stim_asymm_v5,2020.2.10,MacIntel,60,60a5f9bf14d0aa2821c4bb84,,,331,56,-33,1,0,0,response3disk,,5,5,-4,1,0,0,rectangle,5,-4,1,0,0,5,"[183,140,36,124,221,32,235,312,234,71,86,153,229,158,99,265,225,138,149,113]",5,-4,1,0,0,0,113,113,39,1,,,
,,,,,,,,,,,,,FF,,,,,,,,1.038,,,,,,,,,,,,,,,,,,,,,,,,,5c7ceda01d2afc0001f4ad1d,60a7d7fcb29dd492543b156f,2021-05-21_16h56.21.814,Simcolourproject_2stim_asymm_v5,2020.2.10,MacIntel,60,60a5f9bf14d0aa2821c4bb84,,,3982,48,-35,1,0,0,response3disk,,5,3,-5,1,0,0,rectangle,3,-5,1,0,0,4,"[183,140,36,124,221,32,235,312,234,71,86,153,229,158,99,265,225,138,149,113]",3,-5,1,0,0,0,114,114,9,1,,,
,,,,,,,,,,,,,FF,,,,,,,,0.973,,,,,,,,,,,,,,,,,,,,,,,,,5c7ceda01d2afc0001f4ad1d,60a7d7fcb29dd492543b156f,2021-05-21_16h56.21.814,Simcolourproject_2stim_asymm_v5,2020.2.10,MacIntel,60,60a5f9bf14d0aa2821c4bb84,,,3171,59,-28,1,0,0,response3disk,,5,12,-9,1,0,0,rectangle,12,-9,1,0,0,0,"[183,140,36,124,221,32,235,312,234,71,86,153,229,158,99,265,225,138,149,113]",12,-9,1,0,0,0,115,115,32,1,,,
,,,,,,,,,,,,,FF,,,,,,,,1.639,,,,,,,,,,,,,,,,,,,,,,,,,5c7ceda01d2afc0001f4ad1d,60a7d7fcb29dd492543b156f,2021-05-21_16h56.21.814,Simcolourproject_2stim_asymm_v5,2020.2.10,MacIntel,60,60a5f9bf14d0aa2821c4bb84,,,253,31,-59,1,0,0,response3disk,,4,1,0,1,0,0,rectangle,1,0,1,0,0,5,"[183,140,36,124,221,32,235,312,234,71,86,153,229,158,99,265,225,138,149,113]",1,0,1,0,0,0,116,116,160,1,,,
,,,,,,,,,,,,,FF,,,,,,,,0.92,,,,,,,,,,,,,,,,,,,,,,,,,5c7ceda01d2afc0001f4ad1d,60a7d7fcb29dd492543b156f,2021-05-21_16h56.21.814,Simcolourproject_2stim_asymm_v5,2020.2.10,MacIntel,60,60a5f9bf14d0aa2821c4bb84,,,2466,32,-50,1,0,0,response3disk,,4,1,-5,1,0,0,rectangle,1,-5,1,0,0,3,"[183,140,36,124,221,32,235,312,234,71,86,153,229,158,99,265,225,138,149,113]",1,-5,1,0,0,0,117,117,116,1,,,
,,,,,,,,,,,,,FF,,,,,,,,2.793,,,,,,,,,,,,,,,,,,,,,,,,,5c7ceda01d2afc0001f4ad1d,60a7d7fcb29dd492543b156f,2021-05-21_16h56.21.814,Simcolourproject_2stim_asymm_v5,2020.2.10,MacIntel,60,60a5f9bf14d0aa2821c4bb84,,,145,67,-35,1,0,0,response3disk,,5,6,1,1,0,0,rectangle,6,1,1,0,0,1,"[183,140,36,124,221,32,235,312,234,71,86,153,229,158,99,265,225,138,149,113]",6,1,1,0,0,0,118,118,1,1,,,
,,,,,,,,,,,,,FF,,,,,,,,1.139,,,,,,,,,,,,,,,,,,,,,,,,,5c7ceda01d2afc0001f4ad1d,60a7d7fcb29dd492543b156f,2021-05-21_16h56.21.814,Simcolourproject_2stim_asymm_v5,2020.2.10,MacIntel,60,60a5f9bf14d0aa2821c4bb84,,,2194,47,-26,1,0,0,response3disk,,5,10,-2,1,0,0,rectangle,10,-2,1,0,0,5,"[183,140,36,124,221,32,235,312,234,71,86,153,229,158,99,265,225,138,149,113]",10,-2,1,0,0,0,119,119,141,1,,,
,,,,,,,,,,,,,FF,,,,,,,,1.104,,,,,,,,,,,,,,,,,,,,,,,,,5c7ceda01d2afc0001f4ad1d,60a7d7fcb29dd492543b156f,2021-05-21_16h56.21.814,Simcolourproject_2stim_asymm_v5,2020.2.10,MacIntel,60,60a5f9bf14d0aa2821c4bb84,,,1352,36,-59,1,0,0,response3disk,,4,0,-8,1,0,0,rectangle,0,-8,1,0,0,5,"[183,140,36,124,221,32,235,312,234,71,86,153,229,158,99,265,225,138,149,113]",0,-8,1,0,0,0,120,120,74,1,,,
,,,,,,,,,,,,,FF,,,,,,,,0.924,,,,,,,,,,,,,,,,,,,,,,,,,5c7ceda01d2afc0001f4ad1d,60a7d7fcb29dd492543b156f,2021-05-21_16h56.21.814,Simcolourproject_2stim_asymm_v5,2020.2.10,MacIntel,60,60a5f9bf14d0aa2821c4bb84,,,2346,78,41,1,0,0,response1disk,,6,-7,-12,1,0,0,rectangle,-7,-12,1,0,0,6,"[183,140,36,124,221,32,235,312,234,71,86,153,229,158,99,265,225,138,149,113]",-7,-12,1,0,0,0,121,121,148,1,,,
,,,,,,,,,,,,,FF,,,,,,,,0.988,,,,,,,,,,,,,,,,,,,,,,,,,5c7ceda01d2afc0001f4ad1d,60a7d7fcb29dd492543b156f,2021-05-21_16h56.21.814,Simcolourproject_2stim_asymm_v5,2020.2.10,MacIntel,60,60a5f9bf14d0aa2821c4bb84,,,2482,27,-68,1,0,0,response3disk,,4,2,-10,1,0,0,rectangle,2,-10,1,0,0,6,"[183,140,36,124,221,32,235,312,234,71,86,153,229,158,99,265,225,138,149,113]",2,-10,1,0,0,0,122,122,119,1,,,
,,,,,,,,,,,,,FF,,,,,,,,1.104,,,,,,,,,,,,,,,,,,,,,,,,,5c7ceda01d2afc0001f4ad1d,60a7d7fcb29dd492543b156f,2021-05-21_16h56.21.814,Simcolourproject_2stim_asymm_v5,2020.2.10,MacIntel,60,60a5f9bf14d0aa2821c4bb84,,,2510,71,43,1,0,0,response1disk,,6,15,12,1,0,0,rectangle,-37,-94,1,0,0,3,"[183,140,36,124,221,32,235,312,234,71,86,153,229,158,99,265,225,138,149,113]",-2,-5,1,0,0,0,123,123,136,1,,response5disk_3,rectangle
,,,,,,,,,,,,,FF,,,,,,,,1.07,,,,,,,,,,,,,,,,,,,,,,,,,5c7ceda01d2afc0001f4ad1d,60a7d7fcb29dd492543b156f,2021-05-21_16h56.21.814,Simcolourproject_2stim_asymm_v5,2020.2.10,MacIntel,60,60a5f9bf14d0aa2821c4bb84,,,2730,-27,-69,1,0,0,response5disk,,3,-4,-4,1,0,0,rectangle,-4,-4,1,0,0,4,"[183,140,36,124,221,32,235,312,234,71,86,153,229,158,99,265,225,138,149,113]",-4,-4,1,0,0,0,124,124,16,1,,,
,,,,,,,,,,,,,FF,,,,,,,,1.523,,,,,,,,,,,,,,,,,,,,,,,,,5c7ceda01d2afc0001f4ad1d,60a7d7fcb29dd492543b156f,2021-05-21_16h56.21.814,Simcolourproject_2stim_asymm_v5,2020.2.10,MacIntel,60,60a5f9bf14d0aa2821c4bb84,,,395,59,-25,1,0,0,response3disk,,5,15,-8,1,0,0,rectangle,15,-8,1,0,0,4,"[183,140,36,124,221,32,235,312,234,71,86,153,229,158,99,265,225,138,149,113]",15,-8,1,0,0,0,125,125,44,1,,,
,,,,,,,,,,,,,FF,,,,,,,,0.819,,,,,,,,,,,,,,,,,,,,,,,,,5c7ceda01d2afc0001f4ad1d,60a7d7fcb29dd492543b156f,2021-05-21_16h56.21.814,Simcolourproject_2stim_asymm_v5,2020.2.10,MacIntel,60,60a5f9bf14d0aa2821c4bb84,,,1990,58,-28,1,0,0,response3disk,,5,12,-1,1,0,0,rectangle,12,-1,1,0,0,2,"[183,140,36,124,221,32,235,312,234,71,86,153,229,158,99,265,225,138,149,113]",12,-1,1,0,0,0,126,126,88,1,,,
,,,,,,,,,,,,,FF,,,,,,,,2.028,,,,,,,,,,,,,,,,,,,,,,,,,5c7ceda01d2afc0001f4ad1d,60a7d7fcb29dd492543b156f,2021-05-21_16h56.21.814,Simcolourproject_2stim_asymm_v5,2020.2.10,MacIntel,60,60a5f9bf14d0aa2821c4bb84,,,2789,26,-82,1,0,0,response3disk,,4,7,-7,1,0,0,rectangle,7,-7,1,0,0,2,"[183,140,36,124,221,32,235,312,234,71,86,153,229,158,99,265,225,138,149,113]",7,-7,1,0,0,0,127,127,73,1,,,
,,,,,,,,,,,,,FF,,,,,,,,1.209,,,,,,,,,,,,,,,,,,,,,,,,,5c7ceda01d2afc0001f4ad1d,60a7d7fcb29dd492543b156f,2021-05-21_16h56.21.814,Simcolourproject_2stim_asymm_v5,2020.2.10,MacIntel,60,60a5f9bf14d0aa2821c4bb84,,,2699,16,60,1,0,0,response1disk,,7,15,11,1,0,0,rectangle,15,11,1,0,0,4,"[183,140,36,124,221,32,235,312,234,71,86,153,229,158,99,265,225,138,149,113]",15,11,1,0,0,0,128,128,35,1,,,
,,,,,,,,,,,,,FF,,,,,,,,0.936,,,,,,,,,,,,,,,,,,,,,,,,,5c7ceda01d2afc0001f4ad1d,60a7d7fcb29dd492543b156f,2021-05-21_16h56.21.814,Simcolourproject_2stim_asymm_v5,2020.2.10,MacIntel,60,60a5f9bf14d0aa2821c4bb84,,,3051,-47,-71,1,0,0,response5disk,,3,-1,-9,1,0,0,rectangle,-1,-9,1,0,0,2,"[183,140,36,124,221,32,235,312,234,71,86,153,229,158,99,265,225,138,149,113]",-1,-9,1,0,0,0,129,129,96,1,,,
,,,,,,,,,,,,,FF,,,,,,,,0.953,,,,,,,,,,,,,,,,,,,,,,,,,5c7ceda01d2afc0001f4ad1d,60a7d7fcb29dd492543b156f,2021-05-21_16h56.21.814,Simcolourproject_2stim_asymm_v5,2020.2.10,MacIntel,60,60a5f9bf14d0aa2821c4bb84,,,1326,35,-58,1,0,0,response3disk,,4,11,-9,1,0,0,rectangle,11,-9,1,0,0,3,"[183,140,36,124,221,32,235,312,234,71,86,153,229,158,99,265,225,138,149,113]",11,-9,1,0,0,0,130,130,91,1,,,
,,,,,,,,,,,,,FF,,,,,,,,0.967,,,,,,,,,,,,,,,,,,,,,,,,,5c7ceda01d2afc0001f4ad1d,60a7d7fcb29dd492543b156f,2021-05-21_16h56.21.814,Simcolourproject_2stim_asymm_v5,2020.2.10,MacIntel,60,60a5f9bf14d0aa2821c4bb84,,,4203,-32,-77,1,0,0,response5disk,,3,-1,-7,1,0,0,rectangle,-1,-7,1,0,0,1,"[183,140,36,124,221,32,235,312,234,71,86,153,229,158,99,265,225,138,149,113]",-1,-7,1,0,0,0,131,131,127,1,,,
,,,,,,,,,,,,,FF,,,,,,,,1.14,,,,,,,,,,,,,,,,,,,,,,,,,5c7ceda01d2afc0001f4ad1d,60a7d7fcb29dd492543b156f,2021-05-21_16h56.21.814,Simcolourproject_2stim_asymm_v5,2020.2.10,MacIntel,60,60a5f9bf14d0aa2821c4bb84,,,3399,64,-31,1,0,0,response3disk,,5,15,-10,1,0,0,rectangle,15,-10,1,0,0,3,"[183,140,36,124,221,32,235,312,234,71,86,153,229,158,99,265,225,138,149,113]",15,-10,1,0,0,0,132,132,60,1,,,
,,,,,,,,,,,,,FF,,,,,,,,0.94,,,,,,,,,,,,,,,,,,,,,,,,,5c7ceda01d2afc0001f4ad1d,60a7d7fcb29dd492543b156f,2021-05-21_16h56.21.814,Simcolourproject_2stim_asymm_v5,2020.2.10,MacIntel,60,60a5f9bf14d0aa2821c4bb84,,,2476,64,-34,1,0,0,response3disk,,5,14,-7,1,0,0,rectangle,14,-7,1,0,0,1,"[183,140,36,124,221,32,235,312,234,71,86,153,229,158,99,265,225,138,149,113]",14,-7,1,0,0,0,133,133,123,1,,,
,,,,,,,,,,,,,FF,,,,,,,,0.889,,,,,,,,,,,,,,,,,,,,,,,,,5c7ceda01d2afc0001f4ad1d,60a7d7fcb29dd492543b156f,2021-05-21_16h56.21.814,Simcolourproject_2stim_asymm_v5,2020.2.10,MacIntel,60,60a5f9bf14d0aa2821c4bb84,,,3872,68,-33,1,0,0,response3disk,,5,19,-11,1,0,0,rectangle,19,-11,1,0,0,2,"[183,140,36,124,221,32,235,312,234,71,86,153,229,158,99,265,225,138,149,113]",19,-11,1,0,0,0,134,134,3,1,,,
,,,,,,,,,,,,,FF,,,,,,,,1.672,,,,,,,,,,,,,,,,,,,,,,,,,5c7ceda01d2afc0001f4ad1d,60a7d7fcb29dd492543b156f,2021-05-21_16h56.21.814,Simcolourproject_2stim_asymm_v5,2020.2.10,MacIntel,60,60a5f9bf14d0aa2821c4bb84,,,1667,28,-53,1,0,0,response3disk,,4,13,-11,1,0,0,rectangle,13,-11,1,0,0,1,"[183,140,36,124,221,32,235,312,234,71,86,153,229,158,99,265,225,138,149,113]",13,-11,1,0,0,0,135,135,67,1,,,
,,,,,,,,,,,,,FF,,,,,,,,1.304,,,,,,,,,,,,,,,,,,,,,,,,,5c7ceda01d2afc0001f4ad1d,60a7d7fcb29dd492543b156f,2021-05-21_16h56.21.814,Simcolourproject_2stim_asymm_v5,2020.2.10,MacIntel,60,60a5f9bf14d0aa2821c4bb84,,,3594,26,-81,1,0,0,response3disk,,4,4,-4,1,0,0,rectangle,4,-4,1,0,0,2,"[183,140,36,124,221,32,235,312,234,71,86,153,229,158,99,265,225,138,149,113]",4,-4,1,0,0,0,136,136,154,1,,,
,,,,,,,,,,,,,FF,,,,,,,,1.388,,,,,,,,,,,,,,,,,,,,,,,,,5c7ceda01d2afc0001f4ad1d,60a7d7fcb29dd492543b156f,2021-05-21_16h56.21.814,Simcolourproject_2stim_asymm_v5,2020.2.10,MacIntel,60,60a5f9bf14d0aa2821c4bb84,,,2882,61,-21,1,0,0,response3disk,,5,-18,9,1,0,0,rectangle,-78,-53,1,0,0,2,"[183,140,36,124,221,32,235,312,234,71,86,153,229,158,99,265,225,138,149,113]",13,1,1,0,0,0,137,137,117,1,,response5disk_3,rectangle
,,,,,,,,,,,,,FF,,,,,,,,0.953,,,,,,,,,,,,,,,,,,,,,,,,,5c7ceda01d2afc0001f4ad1d,60a7d7fcb29dd492543b156f,2021-05-21_16h56.21.814,Simcolourproject_2stim_asymm_v5,2020.2.10,MacIntel,60,60a5f9bf14d0aa2821c4bb84,,,2290,43,-88,1,0,0,response3disk,,4,-5,-5,1,0,0,rectangle,-5,-5,1,0,0,1,"[183,140,36,124,221,32,235,312,234,71,86,153,229,158,99,265,225,138,149,113]",-5,-5,1,0,0,0,138,138,143,1,,,
,,,,,,,,,,,,,FF,,,,,,,,0.957,,,,,,,,,,,,,,,,,,,,,,,,,5c7ceda01d2afc0001f4ad1d,60a7d7fcb29dd492543b156f,2021-05-21_16h56.21.814,Simcolourproject_2stim_asymm_v5,2020.2.10,MacIntel,60,60a5f9bf14d0aa2821c4bb84,,,4259,42,-76,1,0,0,response3disk,,4,7,3,1,0,0,rectangle,-98,-32,1,0,0,2,"[183,140,36,124,221,32,235,312,234,71,86,153,229,158,99,265,225,138,149,113]",-6,1,1,0,0,0,139,139,33,1,,response5disk_3,rectangle
,,,,,,,,,,,,,FF,,,,,,,,2.108,,,,,,,,,,,,,,,,,,,,,,,,,5c7ceda01d2afc0001f4ad1d,60a7d7fcb29dd492543b156f,2021-05-21_16h56.21.814,Simcolourproject_2stim_asymm_v5,2020.2.10,MacIntel,60,60a5f9bf14d0aa2821c4bb84,,,3814,-80,24,1,0,0,response7disk,,1,2,-6,1,0,0,rectangle,2,-6,1,0,0,0,"[183,140,36,124,221,32,235,312,234,71,86,153,229,158,99,265,225,138,149,113]",2,-6,1,0,0,0,140,140,10,1,,,
,,,,,,,,,,,,,FF,,,,,,,,1.385,,,,,,,,,,,,,,,,,,,,,,,,,5c7ceda01d2afc0001f4ad1d,60a7d7fcb29dd492543b156f,2021-05-21_16h56.21.814,Simcolourproject_2stim_asymm_v5,2020.2.10,MacIntel,60,60a5f9bf14d0aa2821c4bb84,,,3687,30,-93,1,0,0,response3disk,,4,7,-4,1,0,0,rectangle,7,-4,1,0,0,1,"[183,140,36,124,221,32,235,312,234,71,86,153,229,158,99,265,225,138,149,113]",7,-4,1,0,0,0,141,141,58,1,,,
,,,,,,,,,,,,,FF,,,,,,,,1.022,,,,,,,,,,,,,,,,,,,,,,,,,5c7ceda01d2afc0001f4ad1d,60a7d7fcb29dd492543b156f,2021-05-21_16h56.21.814,Simcolourproject_2stim_asymm_v5,2020.2.10,MacIntel,60,60a5f9bf14d0aa2821c4bb84,,,572,60,-31,1,0,0,response3disk,,5,18,-9,1,0,0,rectangle,18,-9,1,0,0,4,"[183,140,36,124,221,32,235,312,234,71,86,153,229,158,99,265,225,138,149,113]",18,-9,1,0,0,0,142,142,51,1,,,
,,,,,,,,,,,,,FF,,,,,,,,1.856,,,,,,,,,,,,,,,,,,,,,,,,,5c7ceda01d2afc0001f4ad1d,60a7d7fcb29dd492543b156f,2021-05-21_16h56.21.814,Simcolourproject_2stim_asymm_v5,2020.2.10,MacIntel,60,60a5f9bf14d0aa2821c4bb84,,,3743,-80,-34,1,0,0,response5disk,,5,6,-4,1,0,0,rectangle,6,-4,1,0,0,0,"[183,140,36,124,221,32,235,312,234,71,86,153,229,158,99,265,225,138,149,113]",6,-4,1,0,0,0,143,143,13,1,,,
,,,,,,,,,,,,,FF,,,,,,,,0.854,,,,,,,,,,,,,,,,,,,,,,,,,5c7ceda01d2afc0001f4ad1d,60a7d7fcb29dd492543b156f,2021-05-21_16h56.21.814,Simcolourproject_2stim_asymm_v5,2020.2.10,MacIntel,60,60a5f9bf14d0aa2821c4bb84,,,1239,29,-69,1,0,0,response3disk,,4,9,-8,1,0,0,rectangle,9,-8,1,0,0,4,"[183,140,36,124,221,32,235,312,234,71,86,153,229,158,99,265,225,138,149,113]",9,-8,1,0,0,0,144,144,131,1,,,
,,,,,,,,,,,,,FF,,,,,,,,1.357,,,,,,,,,,,,,,,,,,,,,,,,,5c7ceda01d2afc0001f4ad1d,60a7d7fcb29dd492543b156f,2021-05-21_16h56.21.814,Simcolourproject_2stim_asymm_v5,2020.2.10,MacIntel,60,60a5f9bf14d0aa2821c4bb84,,,4339,57,41,1,0,0,response1disk,,6,11,3,1,0,0,rectangle,11,3,1,0,0,7,"[183,140,36,124,221,32,235,312,234,71,86,153,229,158,99,265,225,138,149,113]",11,3,1,0,0,0,145,145,18,1,,,
,,,,,,,,,,,,,FF,,,,,,,,1.205,,,,,,,,,,,,,,,,,,,,,,,,,5c7ceda01d2afc0001f4ad1d,60a7d7fcb29dd492543b156f,2021-05-21_16h56.21.814,Simcolourproject_2stim_asymm_v5,2020.2.10,MacIntel,60,60a5f9bf14d0aa2821c4bb84,,,1384,46,-36,1,0,0,response3disk,,5,0,-12,1,0,0,rectangle,0,-12,1,0,0,4,"[183,140,36,124,221,32,235,312,234,71,86,153,229,158,99,265,225,138,149,113]",0,-12,1,0,0,0,146,146,85,1,,,
,,,,,,,,,,,,,FF,,,,,,,,1.053,,,,,,,,,,,,,,,,,,,,,,,,,5c7ceda01d2afc0001f4ad1d,60a7d7fcb29dd492543b156f,2021-05-21_16h56.21.814,Simcolourproject_2stim_asymm_v5,2020.2.10,MacIntel,60,60a5f9bf14d0aa2821c4bb84,,,1715,60,50,1,0,0,response1disk,,6,11,4,1,0,0,rectangle,11,4,1,0,0,4,"[183,140,36,124,221,32,235,312,234,71,86,153,229,158,99,265,225,138,149,113]",11,4,1,0,0,0,147,147,50,1,,,
,,,,,,,,,,,,,FF,,,,,,,,1.661,,,,,,,,,,,,,,,,,,,,,,,,,5c7ceda01d2afc0001f4ad1d,60a7d7fcb29dd492543b156f,2021-05-21_16h56.21.814,Simcolourproject_2stim_asymm_v5,2020.2.10,MacIntel,60,60a5f9bf14d0aa2821c4bb84,,,1777,36,-57,1,0,0,response3disk,,4,4,-7,1,0,0,rectangle,82,31,1,0,0,6,"[183,140,36,124,221,32,235,312,234,71,86,153,229,158,99,265,225,138,149,113]",1,-8,1,0,0,0,148,148,115,1,,response1disk_3,rectangle
,,,,,,,,,,,,,FF,,,,,,,,1.736,,,,,,,,,,,,,,,,,,,,,,,,,5c7ceda01d2afc0001f4ad1d,60a7d7fcb29dd492543b156f,2021-05-21_16h56.21.814,Simcolourproject_2stim_asymm_v5,2020.2.10,MacIntel,60,60a5f9bf14d0aa2821c4bb84,,,2152,52,-36,1,0,0,response3disk,,5,-4,-7,1,0,0,rectangle,-4,-7,1,0,0,3,"[183,140,36,124,221,32,235,312,234,71,86,153,229,158,99,265,225,138,149,113]",-4,-7,1,0,0,0,149,149,24,1,,,
,,,,,,,,,,,,,FF,,,,,,,,0.918,,,,,,,,,,,,,,,,,,,,,,,,,5c7ceda01d2afc0001f4ad1d,60a7d7fcb29dd492543b156f,2021-05-21_16h56.21.814,Simcolourproject_2stim_asymm_v5,2020.2.10,MacIntel,60,60a5f9bf14d0aa2821c4bb84,,,2612,37,-55,1,0,0,response3disk,,4,-3,-5,1,0,0,rectangle,-3,-5,1,0,0,3,"[183,140,36,124,221,32,235,312,234,71,86,153,229,158,99,265,225,138,149,113]",-3,-5,1,0,0,0,150,150,124,1,,,
,,,,,,,,,,,,,FF,,,,,,,,1.123,,,,,,,,,,,,,,,,,,,,,,,,,5c7ceda01d2afc0001f4ad1d,60a7d7fcb29dd492543b156f,2021-05-21_16h56.21.814,Simcolourproject_2stim_asymm_v5,2020.2.10,MacIntel,60,60a5f9bf14d0aa2821c4bb84,,,339,57,-33,1,0,0,response3disk,,5,10,-14,1,0,0,rectangle,10,-14,1,0,0,2,"[183,140,36,124,221,32,235,312,234,71,86,153,229,158,99,265,225,138,149,113]",10,-14,1,0,0,0,151,151,98,1,,,
,,,,,,,,,,,,,FF,,,,,,,,1.673,,,,,,,,,,,,,,,,,,,,,,,,,5c7ceda01d2afc0001f4ad1d,60a7d7fcb29dd492543b156f,2021-05-21_16h56.21.814,Simcolourproject_2stim_asymm_v5,2020.2.10,MacIntel,60,60a5f9bf14d0aa2821c4bb84,,,370,27,-49,1,0,0,response3disk,,4,4,-10,1,0,0,rectangle,65,-22,1,0,0,5,"[183,140,36,124,221,32,235,312,234,71,86,153,229,158,99,265,225,138,149,113]",0,-8,1,0,0,0,152,152,114,1,,response3disk_3,rectangle
,,,,,,,,,,,,,FF,,,,,,,,1.141,,,,,,,,,,,,,,,,,,,,,,,,,5c7ceda01d2afc0001f4ad1d,60a7d7fcb29dd492543b156f,2021-05-21_16h56.21.814,Simcolourproject_2stim_asymm_v5,2020.2.10,MacIntel,60,60a5f9bf14d0aa2821c4bb84,,,1967,45,-68,1,0,0,response3disk,,4,-6,-6,1,0,0,rectangle,-6,-6,1,0,0,3,"[183,140,36,124,221,32,235,312,234,71,86,153,229,158,99,265,225,138,149,113]",-6,-6,1,0,0,0,153,153,87,1,,,
,,,,,,,,,,,,,FF,,,,,,,,0.97,,,,,,,,,,,,,,,,,,,,,,,,,5c7ceda01d2afc0001f4ad1d,60a7d7fcb29dd492543b156f,2021-05-21_16h56.21.814,Simcolourproject_2stim_asymm_v5,2020.2.10,MacIntel,60,60a5f9bf14d0aa2821c4bb84,,,2053,39,-58,1,0,0,response3disk,,4,7,-10,1,0,0,rectangle,7,-10,1,0,0,7,"[183,140,36,124,221,32,235,312,234,71,86,153,229,158,99,265,225,138,149,113]",7,-10,1,0,0,0,154,154,22,1,,,
,,,,,,,,,,,,,FF,,,,,,,,1.723,,,,,,,,,,,,,,,,,,,,,,,,,5c7ceda01d2afc0001f4ad1d,60a7d7fcb29dd492543b156f,2021-05-21_16h56.21.814,Simcolourproject_2stim_asymm_v5,2020.2.10,MacIntel,60,60a5f9bf14d0aa2821c4bb84,,,4346,-40,-81,1,0,0,response5disk,,3,-11,-13,1,0,0,rectangle,-11,-13,1,0,0,5,"[183,140,36,124,221,32,235,312,234,71,86,153,229,158,99,265,225,138,149,113]",-11,-13,1,0,0,0,155,155,65,1,,,
,,,,,,,,,,,,,FF,,,,,,,,1.254,,,,,,,,,,,,,,,,,,,,,,,,,5c7ceda01d2afc0001f4ad1d,60a7d7fcb29dd492543b156f,2021-05-21_16h56.21.814,Simcolourproject_2stim_asymm_v5,2020.2.10,MacIntel,60,60a5f9bf14d0aa2821c4bb84,,,3931,69,27,1,0,0,response1disk,,6,-6,-8,1,0,0,rectangle,-6,-8,1,0,0,7,"[183,140,36,124,221,32,235,312,234,71,86,153,229,158,99,265,225,138,149,113]",-6,-8,1,0,0,0,156,156,77,1,,,
,,,,,,,,,,,,,FF,,,,,,,,0.954,,,,,,,,,,,,,,,,,,,,,,,,,5c7ceda01d2afc0001f4ad1d,60a7d7fcb29dd492543b156f,2021-05-21_16h56.21.814,Simcolourproject_2stim_asymm_v5,2020.2.10,MacIntel,60,60a5f9bf14d0aa2821c4bb84,,,3016,76,45,1,0,0,response1disk,,6,-5,9,1,0,0,rectangle,-108,47,1,0,0,1,"[183,140,36,124,221,32,235,312,234,71,86,153,229,158,99,265,225,138,149,113]",-15,8,1,0,0,0,157,157,48,1,,response7disk_3,rectangle
,,,,,,,,,,,,,FF,,,,,,,,1.07,,,,,,,,,,,,,,,,,,,,,,,,,5c7ceda01d2afc0001f4ad1d,60a7d7fcb29dd492543b156f,2021-05-21_16h56.21.814,Simcolourproject_2stim_asymm_v5,2020.2.10,MacIntel,60,60a5f9bf14d0aa2821c4bb84,,,1565,33,-66,1,0,0,response3disk,,4,-6,-5,1,0,0,rectangle,-6,-5,1,0,0,7,"[183,140,36,124,221,32,235,312,234,71,86,153,229,158,99,265,225,138,149,113]",-6,-5,1,0,0,0,158,158,46,1,,,
,,,,,,,,,,,,,FF,,,,,,,,1.105,,,,,,,,,,,,,,,,,,,,,,,,,5c7ceda01d2afc0001f4ad1d,60a7d7fcb29dd492543b156f,2021-05-21_16h56.21.814,Simcolourproject_2stim_asymm_v5,2020.2.10,MacIntel,60,60a5f9bf14d0aa2821c4bb84,,,1985,26,-57,1,0,0,response3disk,,4,-4,-8,1,0,0,rectangle,-4,-8,1,0,0,1,"[183,140,36,124,221,32,235,312,234,71,86,153,229,158,99,265,225,138,149,113]",-4,-8,1,0,0,0,159,159,83,1,,,
,,,,,,,,,,,,,FF,,,,,,,,1.238,,,,,,,,,,,,,,,,,,,,,,,,,5c7ceda01d2afc0001f4ad1d,60a7d7fcb29dd492543b156f,2021-05-21_16h56.21.814,Simcolourproject_2stim_asymm_v5,2020.2.10,MacIntel,60,60a5f9bf14d0aa2821c4bb84,,,4220,32,-45,1,0,0,response3disk,,4,8,5,1,0,0,rectangle,8,5,1,0,0,2,"[183,140,36,124,221,32,235,312,234,71,86,153,229,158,99,265,225,138,149,113]",8,5,1,0,0,0,160,160,19,1,,,
,,,,,,,,,,,,,FF,,,,,,,,0.97,,,,,,,,,,,,,,,,,,,,,,,,,5c7ceda01d2afc0001f4ad1d,60a7d7fcb29dd492543b156f,2021-05-21_16h56.21.814,Simcolourproject_2stim_asymm_v5,2020.2.10,MacIntel,60,60a5f9bf14d0aa2821c4bb84,,,2373,71,-28,1,0,0,response3disk,,5,11,-3,1,0,0,rectangle,11,-3,1,0,0,3,"[183,140,36,124,221,32,235,312,234,71,86,153,229,158,99,265,225,138,149,113]",11,-3,1,0,0,1,0,161,65,1,,,
,,,,,,,,,,,,,FF,,,,,,,,0.901,,,,,,,,,,,,,,,,,,,,,,,,,5c7ceda01d2afc0001f4ad1d,60a7d7fcb29dd492543b156f,2021-05-21_16h56.21.814,Simcolourproject_2stim_asymm_v5,2020.2.10,MacIntel,60,60a5f9bf14d0aa2821c4bb84,,,1985,81,-38,1,0,0,response3disk,,5,-3,-3,1,0,0,rectangle,-3,-3,1,0,0,5,"[183,140,36,124,221,32,235,312,234,71,86,153,229,158,99,265,225,138,149,113]",-3,-3,1,0,0,1,1,162,106,1,,,
,,,,,,,,,,,,,FF,,,,,,,,1.088,,,,,,,,,,,,,,,,,,,,,,,,,5c7ceda01d2afc0001f4ad1d,60a7d7fcb29dd492543b156f,2021-05-21_16h56.21.814,Simcolourproject_2stim_asymm_v5,2020.2.10,MacIntel,60,60a5f9bf14d0aa2821c4bb84,,,3016,71,36,1,0,0,response1disk,,6,-2,-8,1,0,0,rectangle,-2,-8,1,0,0,5,"[183,140,36,124,221,32,235,312,234,71,86,153,229,158,99,265,225,138,149,113]",-2,-8,1,0,0,1,2,163,40,1,,,
,,,,,,,,,,,,,FF,,,,,,,,1.54,,,,,,,,,,,,,,,,,,,,,,,,,5c7ceda01d2afc0001f4ad1d,60a7d7fcb29dd492543b156f,2021-05-21_16h56.21.814,Simcolourproject_2stim_asymm_v5,2020.2.10,MacIntel,60,60a5f9bf14d0aa2821c4bb84,,,698,-40,-88,1,0,0,response5disk,,3,-13,-10,1,0,0,rectangle,-13,-10,1,0,0,4,"[183,140,36,124,221,32,235,312,234,71,86,153,229,158,99,265,225,138,149,113]",-13,-10,1,0,0,1,3,164,55,1,,,
,,,,,,,,,,,,,FF,,,,,,,,1.151,,,,,,,,,,,,,,,,,,,,,,,,,5c7ceda01d2afc0001f4ad1d,60a7d7fcb29dd492543b156f,2021-05-21_16h56.21.814,Simcolourproject_2stim_asymm_v5,2020.2.10,MacIntel,60,60a5f9bf14d0aa2821c4bb84,,,1276,-33,-84,1,0,0,response5disk,,3,-5,-4,1,0,0,rectangle,-5,-4,1,0,0,6,"[183,140,36,124,221,32,235,312,234,71,86,153,229,158,99,265,225,138,149,113]",-5,-4,1,0,0,1,4,165,54,1,,,
,,,,,,,,,,,,,FF,,,,,,,,1.388,,,,,,,,,,,,,,,,,,,,,,,,,5c7ceda01d2afc0001f4ad1d,60a7d7fcb29dd492543b156f,2021-05-21_16h56.21.814,Simcolourproject_2stim_asymm_v5,2020.2.10,MacIntel,60,60a5f9bf14d0aa2821c4bb84,,,210,59,25,1,0,0,response1disk,,6,3,6,1,0,0,rectangle,3,6,1,0,0,6,"[183,140,36,124,221,32,235,312,234,71,86,153,229,158,99,265,225,138,149,113]",3,6,1,0,0,1,5,166,47,1,,,
,,,,,,,,,,,,,FF,,,,,,,,1.086,,,,,,,,,,,,,,,,,,,,,,,,,5c7ceda01d2afc0001f4ad1d,60a7d7fcb29dd492543b156f,2021-05-21_16h56.21.814,Simcolourproject_2stim_asymm_v5,2020.2.10,MacIntel,60,60a5f9bf14d0aa2821c4bb84,,,368,-41,-105,1,0,0,response5disk,,3,0,-17,1,0,0,rectangle,0,-17,1,0,0,4,"[183,140,36,124,221,32,235,312,234,71,86,153,229,158,99,265,225,138,149,113]",0,-17,1,0,0,1,6,167,87,1,,,
,,,,,,,,,,,,,FF,,,,,,,,1.337,,,,,,,,,,,,,,,,,,,,,,,,,5c7ceda01d2afc0001f4ad1d,60a7d7fcb29dd492543b156f,2021-05-21_16h56.21.814,Simcolourproject_2stim_asymm_v5,2020.2.10,MacIntel,60,60a5f9bf14d0aa2821c4bb84,,,572,62,-40,1,0,0,response3disk,,5,4,-12,1,0,0,rectangle,4,-12,1,0,0,7,"[183,140,36,124,221,32,235,312,234,71,86,153,229,158,99,265,225,138,149,113]",4,-12,1,0,0,1,7,168,21,1,,,
,,,,,,,,,,,,,FF,,,,,,,,1.054,,,,,,,,,,,,,,,,,,,,,,,,,5c7ceda01d2afc0001f4ad1d,60a7d7fcb29dd492543b156f,2021-05-21_16h56.21.814,Simcolourproject_2stim_asymm_v5,2020.2.10,MacIntel,60,60a5f9bf14d0aa2821c4bb84,,,4176,80,46,1,0,0,response1disk,,6,13,9,1,0,0,rectangle,13,9,1,0,0,0,"[183,140,36,124,221,32,235,312,234,71,86,153,229,158,99,265,225,138,149,113]",13,9,1,0,0,1,8,169,123,1,,,
,,,,,,,,,,,,,FF,,,,,,,,0.902,,,,,,,,,,,,,,,,,,,,,,,,,5c7ceda01d2afc0001f4ad1d,60a7d7fcb29dd492543b156f,2021-05-21_16h56.21.814,Simcolourproject_2stim_asymm_v5,2020.2.10,MacIntel,60,60a5f9bf14d0aa2821c4bb84,,,4215,59,28,1,0,0,response1disk,,6,3,-2,1,0,0,rectangle,3,-2,1,0,0,4,"[183,140,36,124,221,32,235,312,234,71,86,153,229,158,99,265,225,138,149,113]",3,-2,1,0,0,1,9,170,141,1,,,
,,,,,,,,,,,,,FF,,,,,,,,1.089,,,,,,,,,,,,,,,,,,,,,,,,,5c7ceda01d2afc0001f4ad1d,60a7d7fcb29dd492543b156f,2021-05-21_16h56.21.814,Simcolourproject_2stim_asymm_v5,2020.2.10,MacIntel,60,60a5f9bf14d0aa2821c4bb84,,,3051,-36,-80,1,0,0,response5disk,,3,5,-8,1,0,0,rectangle,5,-8,1,0,0,5,"[183,140,36,124,221,32,235,312,234,71,86,153,229,158,99,265,225,138,149,113]",5,-8,1,0,0,1,10,171,71,1,,,
,,,,,,,,,,,,,FF,,,,,,,,0.934,,,,,,,,,,,,,,,,,,,,,,,,,5c7ceda01d2afc0001f4ad1d,60a7d7fcb29dd492543b156f,2021-05-21_16h56.21.814,Simcolourproject_2stim_asymm_v5,2020.2.10,MacIntel,60,60a5f9bf14d0aa2821c4bb84,,,3385,-25,-72,1,0,0,response5disk,,3,3,5,1,0,0,rectangle,3,5,1,0,0,3,"[183,140,36,124,221,32,235,312,234,71,86,153,229,158,99,265,225,138,149,113]",3,5,1,0,0,1,11,172,43,1,,,
,,,,,,,,,,,,,FF,,,,,,,,1.171,,,,,,,,,,,,,,,,,,,,,,,,,5c7ceda01d2afc0001f4ad1d,60a7d7fcb29dd492543b156f,2021-05-21_16h56.21.814,Simcolourproject_2stim_asymm_v5,2020.2.10,MacIntel,60,60a5f9bf14d0aa2821c4bb84,,,428,55,-39,1,0,0,response3disk,,5,-1,-5,1,0,0,rectangle,-1,-5,1,0,0,3,"[183,140,36,124,221,32,235,312,234,71,86,153,229,158,99,265,225,138,149,113]",-1,-5,1,0,0,1,12,173,13,1,,,
,,,,,,,,,,,,,FF,,,,,,,,0.953,,,,,,,,,,,,,,,,,,,,,,,,,5c7ceda01d2afc0001f4ad1d,60a7d7fcb29dd492543b156f,2021-05-21_16h56.21.814,Simcolourproject_2stim_asymm_v5,2020.2.10,MacIntel,60,60a5f9bf14d0aa2821c4bb84,,,3819,30,-61,1,0,0,response3disk,,4,4,-12,1,0,0,rectangle,4,-12,1,0,0,4,"[183,140,36,124,221,32,235,312,234,71,86,153,229,158,99,265,225,138,149,113]",4,-12,1,0,0,1,13,174,45,1,,,
,,,,,,,,,,,,,FF,,,,,,,,1.171,,,,,,,,,,,,,,,,,,,,,,,,,5c7ceda01d2afc0001f4ad1d,60a7d7fcb29dd492543b156f,2021-05-21_16h56.21.814,Simcolourproject_2stim_asymm_v5,2020.2.10,MacIntel,60,60a5f9bf14d0aa2821c4bb84,,,4346,-33,-89,1,0,0,response5disk,,3,-4,-14,1,0,0,rectangle,-4,-14,1,0,0,0,"[183,140,36,124,221,32,235,312,234,71,86,153,229,158,99,265,225,138,149,113]",-4,-14,1,0,0,1,14,175,88,1,,,
,,,,,,,,,,,,,FF,,,,,,,,0.903,,,,,,,,,,,,,,,,,,,,,,,,,5c7ceda01d2afc0001f4ad1d,60a7d7fcb29dd492543b156f,2021-05-21_16h56.21.814,Simcolourproject_2stim_asymm_v5,2020.2.10,MacIntel,60,60a5f9bf14d0aa2821c4bb84,,,606,34,-65,1,0,0,response3disk,,4,10,-2,1,0,0,rectangle,10,-2,1,0,0,7,"[183,140,36,124,221,32,235,312,234,71,86,153,229,158,99,265,225,138,149,113]",10,-2,1,0,0,1,15,176,69,1,,,
,,,,,,,,,,,,,FF,,,,,,,,0.906,,,,,,,,,,,,,,,,,,,,,,,,,5c7ceda01d2afc0001f4ad1d,60a7d7fcb29dd492543b156f,2021-05-21_16h56.21.814,Simcolourproject_2stim_asymm_v5,2020.2.10,MacIntel,60,60a5f9bf14d0aa2821c4bb84,,,2445,40,-73,1,0,0,response3disk,,4,1,-1,1,0,0,rectangle,1,-1,1,0,0,7,"[183,140,36,124,221,32,235,312,234,71,86,153,229,158,99,265,225,138,149,113]",1,-1,1,0,0,1,16,177,108,1,,,
,,,,,,,,,,,,,FF,,,,,,,,1.004,,,,,,,,,,,,,,,,,,,,,,,,,5c7ceda01d2afc0001f4ad1d,60a7d7fcb29dd492543b156f,2021-05-21_16h56.21.814,Simcolourproject_2stim_asymm_v5,2020.2.10,MacIntel,60,60a5f9bf14d0aa2821c4bb84,,,4203,-37,-75,1,0,0,response5disk,,3,-5,-10,1,0,0,rectangle,-5,-10,1,0,0,5,"[183,140,36,124,221,32,235,312,234,71,86,153,229,158,99,265,225,138,149,113]",-5,-10,1,0,0,1,17,178,36,1,,,
,,,,,,,,,,,,,FF,,,,,,,,1.222,,,,,,,,,,,,,,,,,,,,,,,,,5c7ceda01d2afc0001f4ad1d,60a7d7fcb29dd492543b156f,2021-05-21_16h56.21.814,Simcolourproject_2stim_asymm_v5,2020.2.10,MacIntel,60,60a5f9bf14d0aa2821c4bb84,,,2581,50,24,1,0,0,response1disk,,6,11,9,1,0,0,rectangle,11,9,1,0,0,0,"[183,140,36,124,221,32,235,312,234,71,86,153,229,158,99,265,225,138,149,113]",11,9,1,0,0,1,18,179,151,1,,,
,,,,,,,,,,,,,FF,,,,,,,,1.153,,,,,,,,,,,,,,,,,,,,,,,,,5c7ceda01d2afc0001f4ad1d,60a7d7fcb29dd492543b156f,2021-05-21_16h56.21.814,Simcolourproject_2stim_asymm_v5,2020.2.10,MacIntel,60,60a5f9bf14d0aa2821c4bb84,,,145,42,25,1,0,0,response1disk,,6,-10,-14,1,0,0,rectangle,-10,-14,1,0,0,6,"[183,140,36,124,221,32,235,312,234,71,86,153,229,158,99,265,225,138,149,113]",-10,-14,1,0,0,1,19,180,138,1,,,
,,,,,,,,,,,,,FF,,,,,,,,0.969,,,,,,,,,,,,,,,,,,,,,,,,,5c7ceda01d2afc0001f4ad1d,60a7d7fcb29dd492543b156f,2021-05-21_16h56.21.814,Simcolourproject_2stim_asymm_v5,2020.2.10,MacIntel,60,60a5f9bf14d0aa2821c4bb84,,,712,65,36,1,0,0,response1disk,,6,-2,-4,1,0,0,rectangle,-2,-4,1,0,0,6,"[183,140,36,124,221,32,235,312,234,71,86,153,229,158,99,265,225,138,149,113]",-2,-4,1,0,0,1,20,181,0,1,,,
,,,,,,,,,,,,,FF,,,,,,,,1.088,,,,,,,,,,,,,,,,,,,,,,,,,5c7ceda01d2afc0001f4ad1d,60a7d7fcb29dd492543b156f,2021-05-21_16h56.21.814,Simcolourproject_2stim_asymm_v5,2020.2.10,MacIntel,60,60a5f9bf14d0aa2821c4bb84,,,2482,-37,-77,1,0,0,response5disk,,3,1,-4,1,0,0,rectangle,27,-61,1,0,0,4,"[183,140,36,124,221,32,235,312,234,71,86,153,229,158,99,265,225,138,149,113]",5,-14,1,0,0,1,21,182,142,1,,response3disk_3,rectangle
,,,,,,,,,,,,,FF,,,,,,,,1.054,,,,,,,,,,,,,,,,,,,,,,,,,5c7ceda01d2afc0001f4ad1d,60a7d7fcb29dd492543b156f,2021-05-21_16h56.21.814,Simcolourproject_2stim_asymm_v5,2020.2.10,MacIntel,60,60a5f9bf14d0aa2821c4bb84,,,602,44,-71,1,0,0,response3disk,,4,-9,-2,1,0,0,rectangle,-9,-2,1,0,0,7,"[183,140,36,124,221,32,235,312,234,71,86,153,229,158,99,265,225,138,149,113]",-9,-2,1,0,0,1,22,183,131,1,,,
,,,,,,,,,,,,,FF,,,,,,,,1.237,,,,,,,,,,,,,,,,,,,,,,,,,5c7ceda01d2afc0001f4ad1d,60a7d7fcb29dd492543b156f,2021-05-21_16h56.21.814,Simcolourproject_2stim_asymm_v5,2020.2.10,MacIntel,60,60a5f9bf14d0aa2821c4bb84,,,3268,60,-37,1,0,0,response3disk,,5,-4,-10,1,0,0,rectangle,-4,-10,1,0,0,4,"[183,140,36,124,221,32,235,312,234,71,86,153,229,158,99,265,225,138,149,113]",-4,-10,1,0,0,1,23,184,96,1,,,
,,,,,,,,,,,,,FF,,,,,,,,1.388,,,,,,,,,,,,,,,,,,,,,,,,,5c7ceda01d2afc0001f4ad1d,60a7d7fcb29dd492543b156f,2021-05-21_16h56.21.814,Simcolourproject_2stim_asymm_v5,2020.2.10,MacIntel,60,60a5f9bf14d0aa2821c4bb84,,,2290,70,-35,1,0,0,response3disk,,5,-4,-7,1,0,0,rectangle,-4,-7,1,0,0,7,"[183,140,36,124,221,32,235,312,234,71,86,153,229,158,99,265,225,138,149,113]",-4,-7,1,0,0,1,24,185,128,1,,,
,,,,,,,,,,,,,FF,,,,,,,,1.239,,,,,,,,,,,,,,,,,,,,,,,,,5c7ceda01d2afc0001f4ad1d,60a7d7fcb29dd492543b156f,2021-05-21_16h56.21.814,Simcolourproject_2stim_asymm_v5,2020.2.10,MacIntel,60,60a5f9bf14d0aa2821c4bb84,,,3931,36,-56,1,0,0,response3disk,,4,7,-14,1,0,0,rectangle,7,-14,1,0,0,2,"[183,140,36,124,221,32,235,312,234,71,86,153,229,158,99,265,225,138,149,113]",7,-14,1,0,0,1,25,186,126,1,,,
,,,,,,,,,,,,,FF,,,,,,,,1.372,,,,,,,,,,,,,,,,,,,,,,,,,5c7ceda01d2afc0001f4ad1d,60a7d7fcb29dd492543b156f,2021-05-21_16h56.21.814,Simcolourproject_2stim_asymm_v5,2020.2.10,MacIntel,60,60a5f9bf14d0aa2821c4bb84,,,3128,53,28,1,0,0,response1disk,,6,7,-11,1,0,0,rectangle,7,-11,1,0,0,2,"[183,140,36,124,221,32,235,312,234,71,86,153,229,158,99,265,225,138,149,113]",7,-11,1,0,0,1,26,187,78,1,,,
,,,,,,,,,,,,,FF,,,,,,,,1.005,,,,,,,,,,,,,,,,,,,,,,,,,5c7ceda01d2afc0001f4ad1d,60a7d7fcb29dd492543b156f,2021-05-21_16h56.21.814,Simcolourproject_2stim_asymm_v5,2020.2.10,MacIntel,60,60a5f9bf14d0aa2821c4bb84,,,3743,-30,-89,1,0,0,response5disk,,3,-2,-11,1,0,0,rectangle,-2,-11,1,0,0,2,"[183,140,36,124,221,32,235,312,234,71,86,153,229,158,99,265,225,138,149,113]",-2,-11,1,0,0,1,27,188,136,1,,,
,,,,,,,,,,,,,FF,,,,,,,,0.938,,,,,,,,,,,,,,,,,,,,,,,,,5c7ceda01d2afc0001f4ad1d,60a7d7fcb29dd492543b156f,2021-05-21_16h56.21.814,Simcolourproject_2stim_asymm_v5,2020.2.10,MacIntel,60,60a5f9bf14d0aa2821c4bb84,,,4043,34,-59,1,0,0,response3disk,,4,6,-6,1,0,0,rectangle,6,-6,1,0,0,5,"[183,140,36,124,221,32,235,312,234,71,86,153,229,158,99,265,225,138,149,113]",6,-6,1,0,0,1,28,189,19,1,,,
,,,,,,,,,,,,,FF,,,,,,,,0.849,,,,,,,,,,,,,,,,,,,,,,,,,5c7ceda01d2afc0001f4ad1d,60a7d7fcb29dd492543b156f,2021-05-21_16h56.21.814,Simcolourproject_2stim_asymm_v5,2020.2.10,MacIntel,60,60a5f9bf14d0aa2821c4bb84,,,4259,34,-78,1,0,0,response3disk,,4,1,0,1,0,0,rectangle,1,0,1,0,0,6,"[183,140,36,124,221,32,235,312,234,71,86,153,229,158,99,265,225,138,149,113]",1,0,1,0,0,1,29,190,86,1,,,
,,,,,,,,,,,,,FF,,,,,,,,0.904,,,,,,,,,,,,,,,,,,,,,,,,,5c7ceda01d2afc0001f4ad1d,60a7d7fcb29dd492543b156f,2021-05-21_16h56.21.814,Simcolourproject_2stim_asymm_v5,2020.2.10,MacIntel,60,60a5f9bf14d0aa2821c4bb84,,,2803,32,-53,1,0,0,response3disk,,4,8,-3,1,0,0,rectangle,8,-3,1,0,0,1,"[183,140,36,124,221,32,235,312,234,71,86,153,229,158,99,265,225,138,149,113]",8,-3,1,0,0,1,30,191,6,1,,,
,,,,,,,,,,,,,FF,,,,,,,,1.188,,,,,,,,,,,,,,,,,,,,,,,,,5c7ceda01d2afc0001f4ad1d,60a7d7fcb29dd492543b156f,2021-05-21_16h56.21.814,Simcolourproject_2stim_asymm_v5,2020.2.10,MacIntel,60,60a5f9bf14d0aa2821c4bb84,,,2203,62,-33,1,0,0,response3disk,,5,-4,-7,1,0,0,rectangle,-4,-7,1,0,0,7,"[183,140,36,124,221,32,235,312,234,71,86,153,229,158,99,265,225,138,149,113]",-4,-7,1,0,0,1,31,192,58,1,,,
,,,,,,,,,,,,,FF,,,,,,,,0.972,,,,,,,,,,,,,,,,,,,,,,,,,5c7ceda01d2afc0001f4ad1d,60a7d7fcb29dd492543b156f,2021-05-21_16h56.21.814,Simcolourproject_2stim_asymm_v5,2020.2.10,MacIntel,60,60a5f9bf14d0aa2821c4bb84,,,36,66,-34,1,0,0,response3disk,,5,-1,-4,1,0,0,rectangle,-1,-4,1,0,0,5,"[183,140,36,124,221,32,235,312,234,71,86,153,229,158,99,265,225,138,149,113]",-1,-4,1,0,0,1,32,193,154,1,,,
,,,,,,,,,,,,,FF,,,,,,,,2.645,,,,,,,,,,,,,,,,,,,,,,,,,5c7ceda01d2afc0001f4ad1d,60a7d7fcb29dd492543b156f,2021-05-21_16h56.21.814,Simcolourproject_2stim_asymm_v5,2020.2.10,MacIntel,60,60a5f9bf14d0aa2821c4bb84,,,1661,21,-90,1,0,0,response3disk,,4,1,-6,1,0,0,rectangle,1,-6,1,0,0,3,"[183,140,36,124,221,32,235,312,234,71,86,153,229,158,99,265,225,138,149,113]",1,-6,1,0,0,1,33,194,52,1,,,
,,,,,,,,,,,,,FF,,,,,,,,2.078,,,,,,,,,,,,,,,,,,,,,,,,,5c7ceda01d2afc0001f4ad1d,60a7d7fcb29dd492543b156f,2021-05-21_16h56.21.814,Simcolourproject_2stim_asymm_v5,2020.2.10,MacIntel,60,60a5f9bf14d0aa2821c4bb84,,,2294,21,-89,1,0,0,response3disk,,4,1,-4,1,0,0,rectangle,1,-4,1,0,0,7,"[183,140,36,124,221,32,235,312,234,71,86,153,229,158,99,265,225,138,149,113]",1,-4,1,0,0,1,34,195,3,1,,,
,,,,,,,,,,,,,FF,,,,,,,,1.153,,,,,,,,,,,,,,,,,,,,,,,,,5c7ceda01d2afc0001f4ad1d,60a7d7fcb29dd492543b156f,2021-05-21_16h56.21.814,Simcolourproject_2stim_asymm_v5,2020.2.10,MacIntel,60,60a5f9bf14d0aa2821c4bb84,,,2194,63,-29,1,0,0,response3disk,,5,9,-6,1,0,0,rectangle,9,-6,1,0,0,0,"[183,140,36,124,221,32,235,312,234,71,86,153,229,158,99,265,225,138,149,113]",9,-6,1,0,0,1,35,196,112,1,,,
,,,,,,,,,,,,,FF,,,,,,,,1.225,,,,,,,,,,,,,,,,,,,,,,,,,5c7ceda01d2afc0001f4ad1d,60a7d7fcb29dd492543b156f,2021-05-21_16h56.21.814,Simcolourproject_2stim_asymm_v5,2020.2.10,MacIntel,60,60a5f9bf14d0aa2821c4bb84,,,3286,46,-27,1,0,0,response3disk,,5,-1,2,1,0,0,rectangle,-1,2,1,0,0,7,"[183,140,36,124,221,32,235,312,234,71,86,153,229,158,99,265,225,138,149,113]",-1,2,1,0,0,1,36,197,99,1,,,
,,,,,,,,,,,,,FF,,,,,,,,2.964,,,,,,,,,,,,,,,,,,,,,,,,,5c7ceda01d2afc0001f4ad1d,60a7d7fcb29dd492543b156f,2021-05-21_16h56.21.814,Simcolourproject_2stim_asymm_v5,2020.2.10,MacIntel,60,60a5f9bf14d0aa2821c4bb84,,,3075,41,-35,1,0,0,response3disk,,5,-12,3,1,0,0,rectangle,-12,3,1,0,0,4,"[183,140,36,124,221,32,235,312,234,71,86,153,229,158,99,265,225,138,149,113]",-12,3,1,0,0,1,37,198,155,1,,,
,,,,,,,,,,,,,FF,,,,,,,,1.822,,,,,,,,,,,,,,,,,,,,,,,,,5c7ceda01d2afc0001f4ad1d,60a7d7fcb29dd492543b156f,2021-05-21_16h56.21.814,Simcolourproject_2stim_asymm_v5,2020.2.10,MacIntel,60,60a5f9bf14d0aa2821c4bb84,,,3721,31,-79,1,0,0,response3disk,,4,-3,-9,1,0,0,rectangle,-3,-9,1,0,0,3,"[183,140,36,124,221,32,235,312,234,71,86,153,229,158,99,265,225,138,149,113]",-3,-9,1,0,0,1,38,199,124,1,,,
,,,,,,,,,,,,,FF,,,,,,,,1.32,,,,,,,,,,,,,,,,,,,,,,,,,5c7ceda01d2afc0001f4ad1d,60a7d7fcb29dd492543b156f,2021-05-21_16h56.21.814,Simcolourproject_2stim_asymm_v5,2020.2.10,MacIntel,60,60a5f9bf14d0aa2821c4bb84,,,2307,33,-72,1,0,0,response3disk,,4,-4,4,1,0,0,rectangle,-4,4,1,0,0,1,"[183,140,36,124,221,32,235,312,234,71,86,153,229,158,99,265,225,138,149,113]",-4,4,1,0,0,1,39,200,160,1,,,
,,,,,,,,,,,,,FF,,,,,,,,1.006,,,,,,,,,,,,,,,,,,,,,,,,,5c7ceda01d2afc0001f4ad1d,60a7d7fcb29dd492543b156f,2021-05-21_16h56.21.814,Simcolourproject_2stim_asymm_v5,2020.2.10,MacIntel,60,60a5f9bf14d0aa2821c4bb84,,,2730,-46,-111,1,0,0,response5disk,,3,-4,-3,1,0,0,rectangle,-4,-3,1,0,0,4,"[183,140,36,124,221,32,235,312,234,71,86,153,229,158,99,265,225,138,149,113]",-4,-3,1,0,0,1,40,201,26,1,,,
,,,,,,,,,,,,,FF,,,,,,,,1.12,,,,,,,,,,,,,,,,,,,,,,,,,5c7ceda01d2afc0001f4ad1d,60a7d7fcb29dd492543b156f,2021-05-21_16h56.21.814,Simcolourproject_2stim_asymm_v5,2020.2.10,MacIntel,60,60a5f9bf14d0aa2821c4bb84,,,3594,-34,-83,1,0,0,response5disk,,3,5,-6,1,0,0,rectangle,5,-6,1,0,0,7,"[183,140,36,124,221,32,235,312,234,71,86,153,229,158,99,265,225,138,149,113]",5,-6,1,0,0,1,41,202,113,1,,,
,,,,,,,,,,,,,FF,,,,,,,,1.12,,,,,,,,,,,,,,,,,,,,,,,,,5c7ceda01d2afc0001f4ad1d,60a7d7fcb29dd492543b156f,2021-05-21_16h56.21.814,Simcolourproject_2stim_asymm_v5,2020.2.10,MacIntel,60,60a5f9bf14d0aa2821c4bb84,,,1967,-51,-78,1,0,0,response5disk,,3,-6,-11,1,0,0,rectangle,-6,-11,1,0,0,2,"[183,140,36,124,221,32,235,312,234,71,86,153,229,158,99,265,225,138,149,113]",-6,-11,1,0,0,1,42,203,64,1,,,
,,,,,,,,,,,,,FF,,,,,,,,0.869,,,,,,,,,,,,,,,,,,,,,,,,,5c7ceda01d2afc0001f4ad1d,60a7d7fcb29dd492543b156f,2021-05-21_16h56.21.814,Simcolourproject_2stim_asymm_v5,2020.2.10,MacIntel,60,60a5f9bf14d0aa2821c4bb84,,,2510,64,-79,1,0,0,response3disk,,4,18,-9,1,0,0,rectangle,18,-9,1,0,0,0,"[183,140,36,124,221,32,235,312,234,71,86,153,229,158,99,265,225,138,149,113]",18,-9,1,0,0,1,43,204,14,1,,,
,,,,,,,,,,,,,FF,,,,,,,,1.154,,,,,,,,,,,,,,,,,,,,,,,,,5c7ceda01d2afc0001f4ad1d,60a7d7fcb29dd492543b156f,2021-05-21_16h56.21.814,Simcolourproject_2stim_asymm_v5,2020.2.10,MacIntel,60,60a5f9bf14d0aa2821c4bb84,,,2466,51,-28,1,0,0,response3disk,,5,21,-12,1,0,0,rectangle,21,-12,1,0,0,1,"[183,140,36,124,221,32,235,312,234,71,86,153,229,158,99,265,225,138,149,113]",21,-12,1,0,0,1,44,205,83,1,,,
,,,,,,,,,,,,,FF,,,,,,,,0.958,,,,,,,,,,,,,,,,,,,,,,,,,5c7ceda01d2afc0001f4ad1d,60a7d7fcb29dd492543b156f,2021-05-21_16h56.21.814,Simcolourproject_2stim_asymm_v5,2020.2.10,MacIntel,60,60a5f9bf14d0aa2821c4bb84,,,2232,-41,-113,1,0,0,response5disk,,3,-6,-14,1,0,0,rectangle,-6,-14,1,0,0,4,"[183,140,36,124,221,32,235,312,234,71,86,153,229,158,99,265,225,138,149,113]",-6,-14,1,0,0,1,45,206,105,1,,,
,,,,,,,,,,,,,FF,,,,,,,,0.853,,,,,,,,,,,,,,,,,,,,,,,,,5c7ceda01d2afc0001f4ad1d,60a7d7fcb29dd492543b156f,2021-05-21_16h56.21.814,Simcolourproject_2stim_asymm_v5,2020.2.10,MacIntel,60,60a5f9bf14d0aa2821c4bb84,,,1524,34,-74,1,0,0,response3disk,,4,14,-9,1,0,0,rectangle,14,-9,1,0,0,1,"[183,140,36,124,221,32,235,312,234,71,86,153,229,158,99,265,225,138,149,113]",14,-9,1,0,0,1,46,207,85,1,,,
,,,,,,,,,,,,,FF,,,,,,,,0.94,,,,,,,,,,,,,,,,,,,,,,,,,5c7ceda01d2afc0001f4ad1d,60a7d7fcb29dd492543b156f,2021-05-21_16h56.21.814,Simcolourproject_2stim_asymm_v5,2020.2.10,MacIntel,60,60a5f9bf14d0aa2821c4bb84,,,4029,30,-59,1,0,0,response3disk,,4,13,-3,1,0,0,rectangle,13,-3,1,0,0,4,"[183,140,36,124,221,32,235,312,234,71,86,153,229,158,99,265,225,138,149,113]",13,-3,1,0,0,1,47,208,129,1,,,
,,,,,,,,,,,,,FF,,,,,,,,0.919,,,,,,,,,,,,,,,,,,,,,,,,,5c7ceda01d2afc0001f4ad1d,60a7d7fcb29dd492543b156f,2021-05-21_16h56.21.814,Simcolourproject_2stim_asymm_v5,2020.2.10,MacIntel,60,60a5f9bf14d0aa2821c4bb84,,,1130,61,30,1,0,0,response1disk,,6,7,-5,1,0,0,rectangle,7,-5,1,0,0,0,"[183,140,36,124,221,32,235,312,234,71,86,153,229,158,99,265,225,138,149,113]",7,-5,1,0,0,1,48,209,37,1,,,
,,,,,,,,,,,,,FF,,,,,,,,1.491,,,,,,,,,,,,,,,,,,,,,,,,,5c7ceda01d2afc0001f4ad1d,60a7d7fcb29dd492543b156f,2021-05-21_16h56.21.814,Simcolourproject_2stim_asymm_v5,2020.2.10,MacIntel,60,60a5f9bf14d0aa2821c4bb84,,,3361,51,-29,1,0,0,response3disk,,5,-9,-1,1,0,0,rectangle,-9,-1,1,0,0,5,"[183,140,36,124,221,32,235,312,234,71,86,153,229,158,99,265,225,138,149,113]",-9,-1,1,0,0,1,49,210,95,1,,,
,,,,,,,,,,,,,FF,,,,,,,,1.241,,,,,,,,,,,,,,,,,,,,,,,,,5c7ceda01d2afc0001f4ad1d,60a7d7fcb29dd492543b156f,2021-05-21_16h56.21.814,Simcolourproject_2stim_asymm_v5,2020.2.10,MacIntel,60,60a5f9bf14d0aa2821c4bb84,,,1169,62,-32,1,0,0,response3disk,,5,4,-12,1,0,0,rectangle,4,-12,1,0,0,1,"[183,140,36,124,221,32,235,312,234,71,86,153,229,158,99,265,225,138,149,113]",4,-12,1,0,0,1,50,211,15,1,,,
,,,,,,,,,,,,,FF,,,,,,,,0.853,,,,,,,,,,,,,,,,,,,,,,,,,5c7ceda01d2afc0001f4ad1d,60a7d7fcb29dd492543b156f,2021-05-21_16h56.21.814,Simcolourproject_2stim_asymm_v5,2020.2.10,MacIntel,60,60a5f9bf14d0aa2821c4bb84,,,1031,32,-66,1,0,0,response3disk,,4,-2,3,1,0,0,rectangle,-2,3,1,0,0,0,"[183,140,36,124,221,32,235,312,234,71,86,153,229,158,99,265,225,138,149,113]",-2,3,1,0,0,1,51,212,62,1,,,
,,,,,,,,,,,,,FF,,,,,,,,1.388,,,,,,,,,,,,,,,,,,,,,,,,,5c7ceda01d2afc0001f4ad1d,60a7d7fcb29dd492543b156f,2021-05-21_16h56.21.814,Simcolourproject_2stim_asymm_v5,2020.2.10,MacIntel,60,60a5f9bf14d0aa2821c4bb84,,,2360,-88,-60,1,0,0,response5disk,,4,-6,-6,1,0,0,rectangle,-6,-6,1,0,0,1,"[183,140,36,124,221,32,235,312,234,71,86,153,229,158,99,265,225,138,149,113]",-6,-6,1,0,0,1,52,213,97,1,,,
,,,,,,,,,,,,,FF,,,,,,,,1.035,,,,,,,,,,,,,,,,,,,,,,,,,5c7ceda01d2afc0001f4ad1d,60a7d7fcb29dd492543b156f,2021-05-21_16h56.21.814,Simcolourproject_2stim_asymm_v5,2020.2.10,MacIntel,60,60a5f9bf14d0aa2821c4bb84,,,331,27,-56,1,0,0,response3disk,,4,5,10,1,0,0,rectangle,5,10,1,0,0,6,"[183,140,36,124,221,32,235,312,234,71,86,153,229,158,99,265,225,138,149,113]",5,10,1,0,0,1,53,214,116,1,,,
,,,,,,,,,,,,,FF,,,,,,,,2.207,,,,,,,,,,,,,,,,,,,,,,,,,5c7ceda01d2afc0001f4ad1d,60a7d7fcb29dd492543b156f,2021-05-21_16h56.21.814,Simcolourproject_2stim_asymm_v5,2020.2.10,MacIntel,60,60a5f9bf14d0aa2821c4bb84,,,2662,-83,24,1,0,0,response7disk,,1,-6,-6,1,0,0,rectangle,-6,-6,1,0,0,6,"[183,140,36,124,221,32,235,312,234,71,86,153,229,158,99,265,225,138,149,113]",-6,-6,1,0,0,1,54,215,73,1,,,
,,,,,,,,,,,,,FF,,,,,,,,1.067,,,,,,,,,,,,,,,,,,,,,,,,,5c7ceda01d2afc0001f4ad1d,60a7d7fcb29dd492543b156f,2021-05-21_16h56.21.814,Simcolourproject_2stim_asymm_v5,2020.2.10,MacIntel,60,60a5f9bf14d0aa2821c4bb84,,,2828,-48,-71,1,0,0,response5disk,,3,-4,-10,1,0,0,rectangle,-4,-10,1,0,0,5,"[183,140,36,124,221,32,235,312,234,71,86,153,229,158,99,265,225,138,149,113]",-4,-10,1,0,0,1,55,216,146,1,,,
,,,,,,,,,,,,,FF,,,,,,,,1.723,,,,,,,,,,,,,,,,,,,,,,,,,5c7ceda01d2afc0001f4ad1d,60a7d7fcb29dd492543b156f,2021-05-21_16h56.21.814,Simcolourproject_2stim_asymm_v5,2020.2.10,MacIntel,60,60a5f9bf14d0aa2821c4bb84,,,623,27,-82,1,0,0,response3disk,,4,-4,2,1,0,0,rectangle,-4,2,1,0,0,1,"[183,140,36,124,221,32,235,312,234,71,86,153,229,158,99,265,225,138,149,113]",-4,2,1,0,0,1,56,217,39,1,,,
,,,,,,,,,,,,,FF,,,,,,,,0.903,,,,,,,,,,,,,,,,,,,,,,,,,5c7ceda01d2afc0001f4ad1d,60a7d7fcb29dd492543b156f,2021-05-21_16h56.21.814,Simcolourproject_2stim_asymm_v5,2020.2.10,MacIntel,60,60a5f9bf14d0aa2821c4bb84,,,2789,-45,-77,1,0,0,response5disk,,3,3,-1,1,0,0,rectangle,3,-1,1,0,0,2,"[183,140,36,124,221,32,235,312,234,71,86,153,229,158,99,265,225,138,149,113]",3,-1,1,0,0,1,57,218,61,1,,,
,,,,,,,,,,,,,FF,,,,,,,,0.857,,,,,,,,,,,,,,,,,,,,,,,,,5c7ceda01d2afc0001f4ad1d,60a7d7fcb29dd492543b156f,2021-05-21_16h56.21.814,Simcolourproject_2stim_asymm_v5,2020.2.10,MacIntel,60,60a5f9bf14d0aa2821c4bb84,,,3264,35,-79,1,0,0,response3disk,,4,4,-11,1,0,0,rectangle,4,-11,1,0,0,5,"[183,140,36,124,221,32,235,312,234,71,86,153,229,158,99,265,225,138,149,113]",4,-11,1,0,0,1,58,219,81,1,,,
,,,,,,,,,,,,,FF,,,,,,,,1.019,,,,,,,,,,,,,,,,,,,,,,,,,5c7ceda01d2afc0001f4ad1d,60a7d7fcb29dd492543b156f,2021-05-21_16h56.21.814,Simcolourproject_2stim_asymm_v5,2020.2.10,MacIntel,60,60a5f9bf14d0aa2821c4bb84,,,1801,80,-26,1,0,0,response3disk,,5,-19,-9,1,0,0,rectangle,-37,77,1,0,0,0,"[183,140,36,124,221,32,235,312,234,71,86,153,229,158,99,265,225,138,149,113]",2,10,1,0,0,1,59,220,145,1,,response7disk_3,rectangle
,,,,,,,,,,,,,FF,,,,,,,,0.968,,,,,,,,,,,,,,,,,,,,,,,,,5c7ceda01d2afc0001f4ad1d,60a7d7fcb29dd492543b156f,2021-05-21_16h56.21.814,Simcolourproject_2stim_asymm_v5,2020.2.10,MacIntel,60,60a5f9bf14d0aa2821c4bb84,,,2373,31,-81,1,0,0,response3disk,,4,-6,6,1,0,0,rectangle,-6,6,1,0,0,6,"[183,140,36,124,221,32,235,312,234,71,86,153,229,158,99,265,225,138,149,113]",-6,6,1,0,0,1,60,221,27,1,,,
,,,,,,,,,,,,,FF,,,,,,,,0.836,,,,,,,,,,,,,,,,,,,,,,,,,5c7ceda01d2afc0001f4ad1d,60a7d7fcb29dd492543b156f,2021-05-21_16h56.21.814,Simcolourproject_2stim_asymm_v5,2020.2.10,MacIntel,60,60a5f9bf14d0aa2821c4bb84,,,3725,33,-77,1,0,0,response3disk,,4,4,-12,1,0,0,rectangle,4,-12,1,0,0,6,"[183,140,36,124,221,32,235,312,234,71,86,153,229,158,99,265,225,138,149,113]",4,-12,1,0,0,1,61,222,76,1,,,
,,,,,,,,,,,,,FF,,,,,,,,0.817,,,,,,,,,,,,,,,,,,,,,,,,,5c7ceda01d2afc0001f4ad1d,60a7d7fcb29dd492543b156f,2021-05-21_16h56.21.814,Simcolourproject_2stim_asymm_v5,2020.2.10,MacIntel,60,60a5f9bf14d0aa2821c4bb84,,,710,29,-74,1,0,0,response3disk,,4,7,-14,1,0,0,rectangle,7,-14,1,0,0,2,"[183,140,36,124,221,32,235,312,234,71,86,153,229,158,99,265,225,138,149,113]",7,-14,1,0,0,1,62,223,159,1,,,
,,,,,,,,,,,,,FF,,,,,,,,1.034,,,,,,,,,,,,,,,,,,,,,,,,,5c7ceda01d2afc0001f4ad1d,60a7d7fcb29dd492543b156f,2021-05-21_16h56.21.814,Simcolourproject_2stim_asymm_v5,2020.2.10,MacIntel,60,60a5f9bf14d0aa2821c4bb84,,,3224,80,29,1,0,0,response1disk,,6,-5,-5,1,0,0,rectangle,-52,84,1,0,0,0,"[183,140,36,124,221,32,235,312,234,71,86,153,229,158,99,265,225,138,149,113]",-9,6,1,0,0,1,63,224,4,1,,response7disk_3,rectangle
,,,,,,,,,,,,,FF,,,,,,,,0.903,,,,,,,,,,,,,,,,,,,,,,,,,5c7ceda01d2afc0001f4ad1d,60a7d7fcb29dd492543b156f,2021-05-21_16h56.21.814,Simcolourproject_2stim_asymm_v5,2020.2.10,MacIntel,60,60a5f9bf14d0aa2821c4bb84,,,4078,30,-60,1,0,0,response3disk,,4,0,-15,1,0,0,rectangle,0,-15,1,0,0,1,"[183,140,36,124,221,32,235,312,234,71,86,153,229,158,99,265,225,138,149,113]",0,-15,1,0,0,1,64,225,12,1,,,
,,,,,,,,,,,,,FF,,,,,,,,1.001,,,,,,,,,,,,,,,,,,,,,,,,,5c7ceda01d2afc0001f4ad1d,60a7d7fcb29dd492543b156f,2021-05-21_16h56.21.814,Simcolourproject_2stim_asymm_v5,2020.2.10,MacIntel,60,60a5f9bf14d0aa2821c4bb84,,,1352,34,-69,1,0,0,response3disk,,4,6,-10,1,0,0,rectangle,6,-10,1,0,0,3,"[183,140,36,124,221,32,235,312,234,71,86,153,229,158,99,265,225,138,149,113]",6,-10,1,0,0,1,65,226,101,1,,,
,,,,,,,,,,,,,FF,,,,,,,,0.834,,,,,,,,,,,,,,,,,,,,,,,,,5c7ceda01d2afc0001f4ad1d,60a7d7fcb29dd492543b156f,2021-05-21_16h56.21.814,Simcolourproject_2stim_asymm_v5,2020.2.10,MacIntel,60,60a5f9bf14d0aa2821c4bb84,,,2476,37,-65,1,0,0,response3disk,,4,15,-11,1,0,0,rectangle,15,-11,1,0,0,5,"[183,140,36,124,221,32,235,312,234,71,86,153,229,158,99,265,225,138,149,113]",15,-11,1,0,0,1,66,227,49,1,,,
,,,,,,,,,,,,,FF,,,,,,,,1.117,,,,,,,,,,,,,,,,,,,,,,,,,5c7ceda01d2afc0001f4ad1d,60a7d7fcb29dd492543b156f,2021-05-21_16h56.21.814,Simcolourproject_2stim_asymm_v5,2020.2.10,MacIntel,60,60a5f9bf14d0aa2821c4bb84,,,2014,60,-37,1,0,0,response3disk,,5,9,-3,1,0,0,rectangle,-40,-119,1,0,0,3,"[183,140,36,124,221,32,235,312,234,71,86,153,229,158,99,265,225,138,149,113]",-2,-1,1,0,0,1,67,228,63,1,,response5disk_3,rectangle
,,,,,,,,,,,,,FF,,,,,,,,0.802,,,,,,,,,,,,,,,,,,,,,,,,,5c7ceda01d2afc0001f4ad1d,60a7d7fcb29dd492543b156f,2021-05-21_16h56.21.814,Simcolourproject_2stim_asymm_v5,2020.2.10,MacIntel,60,60a5f9bf14d0aa2821c4bb84,,,905,40,-62,1,0,0,response3disk,,4,-1,-7,1,0,0,rectangle,-1,-7,1,0,0,6,"[183,140,36,124,221,32,235,312,234,71,86,153,229,158,99,265,225,138,149,113]",-1,-7,1,0,0,1,68,229,70,1,,,
,,,,,,,,,,,,,FF,,,,,,,,0.955,,,,,,,,,,,,,,,,,,,,,,,,,5c7ceda01d2afc0001f4ad1d,60a7d7fcb29dd492543b156f,2021-05-21_16h56.21.814,Simcolourproject_2stim_asymm_v5,2020.2.10,MacIntel,60,60a5f9bf14d0aa2821c4bb84,,,1541,23,-67,1,0,0,response3disk,,4,-10,-8,1,0,0,rectangle,-10,-8,1,0,0,4,"[183,140,36,124,221,32,235,312,234,71,86,153,229,158,99,265,225,138,149,113]",-10,-8,1,0,0,1,69,230,18,1,,,
,,,,,,,,,,,,,FF,,,,,,,,0.767,,,,,,,,,,,,,,,,,,,,,,,,,5c7ceda01d2afc0001f4ad1d,60a7d7fcb29dd492543b156f,2021-05-21_16h56.21.814,Simcolourproject_2stim_asymm_v5,2020.2.10,MacIntel,60,60a5f9bf14d0aa2821c4bb84,,,1091,82,-37,1,0,0,response3disk,,5,16,-4,1,0,0,rectangle,16,-4,1,0,0,6,"[183,140,36,124,221,32,235,312,234,71,86,153,229,158,99,265,225,138,149,113]",16,-4,1,0,0,1,70,231,139,1,,,
,,,,,,,,,,,,,FF,,,,,,,,0.957,,,,,,,,,,,,,,,,,,,,,,,,,5c7ceda01d2afc0001f4ad1d,60a7d7fcb29dd492543b156f,2021-05-21_16h56.21.814,Simcolourproject_2stim_asymm_v5,2020.2.10,MacIntel,60,60a5f9bf14d0aa2821c4bb84,,,2699,66,-39,1,0,0,response3disk,,5,-5,-5,1,0,0,rectangle,-5,-5,1,0,0,5,"[183,140,36,124,221,32,235,312,234,71,86,153,229,158,99,265,225,138,149,113]",-5,-5,1,0,0,1,71,232,28,1,,,
,,,,,,,,,,,,,FF,,,,,,,,0.802,,,,,,,,,,,,,,,,,,,,,,,,,5c7ceda01d2afc0001f4ad1d,60a7d7fcb29dd492543b156f,2021-05-21_16h56.21.814,Simcolourproject_2stim_asymm_v5,2020.2.10,MacIntel,60,60a5f9bf14d0aa2821c4bb84,,,433,72,-39,1,0,0,response3disk,,5,-10,2,1,0,0,rectangle,-44,-84,1,0,0,3,"[183,140,36,124,221,32,235,312,234,71,86,153,229,158,99,265,225,138,149,113]",-1,-11,1,0,0,1,72,233,107,1,,response5disk_3,rectangle
,,,,,,,,,,,,,FF,,,,,,,,0.902,,,,,,,,,,,,,,,,,,,,,,,,,5c7ceda01d2afc0001f4ad1d,60a7d7fcb29dd492543b156f,2021-05-21_16h56.21.814,Simcolourproject_2stim_asymm_v5,2020.2.10,MacIntel,60,60a5f9bf14d0aa2821c4bb84,,,3764,37,-67,1,0,0,response3disk,,4,2,-12,1,0,0,rectangle,88,-38,1,0,0,5,"[183,140,36,124,221,32,235,312,234,71,86,153,229,158,99,265,225,138,149,113]",0,-4,1,0,0,1,73,234,46,1,,response3disk_3,rectangle
,,,,,,,,,,,,,FF,,,,,,,,1.304,,,,,,,,,,,,,,,,,,,,,,,,,5c7ceda01d2afc0001f4ad1d,60a7d7fcb29dd492543b156f,2021-05-21_16h56.21.814,Simcolourproject_2stim_asymm_v5,2020.2.10,MacIntel,60,60a5f9bf14d0aa2821c4bb84,,,1195,67,-25,1,0,0,response3disk,,5,-7,14,1,0,0,rectangle,-7,14,1,0,0,7,"[183,140,36,124,221,32,235,312,234,71,86,153,229,158,99,265,225,138,149,113]",-7,14,1,0,0,1,74,235,24,1,,,
,,,,,,,,,,,,,FF,,,,,,,,0.802,,,,,,,,,,,,,,,,,,,,,,,,,5c7ceda01d2afc0001f4ad1d,60a7d7fcb29dd492543b156f,2021-05-21_16h56.21.814,Simcolourproject_2stim_asymm_v5,2020.2.10,MacIntel,60,60a5f9bf14d0aa2821c4bb84,,,2261,33,-55,1,0,0,response3disk,,4,14,-8,1,0,0,rectangle,14,-8,1,0,0,7,"[183,140,36,124,221,32,235,312,234,71,86,153,229,158,99,265,225,138,149,113]",14,-8,1,0,0,1,75,236,8,1,,,
,,,,,,,,,,,,,FF,,,,,,,,1.839,,,,,,,,,,,,,,,,,,,,,,,,,5c7ceda01d2afc0001f4ad1d,60a7d7fcb29dd492543b156f,2021-05-21_16h56.21.814,Simcolourproject_2stim_asymm_v5,2020.2.10,MacIntel,60,60a5f9bf14d0aa2821c4bb84,,,2881,42,-59,1,0,0,response3disk,,4,-1,3,1,0,0,rectangle,-1,3,1,0,0,2,"[183,140,36,124,221,32,235,312,234,71,86,153,229,158,99,265,225,138,149,113]",-1,3,1,0,0,1,76,237,90,1,,,
,,,,,,,,,,,,,FF,,,,,,,,1.04,,,,,,,,,,,,,,,,,,,,,,,,,5c7ceda01d2afc0001f4ad1d,60a7d7fcb29dd492543b156f,2021-05-21_16h56.21.814,Simcolourproject_2stim_asymm_v5,2020.2.10,MacIntel,60,60a5f9bf14d0aa2821c4bb84,,,4152,70,38,1,0,0,response1disk,,6,20,5,1,0,0,rectangle,20,5,1,0,0,3,"[183,140,36,124,221,32,235,312,234,71,86,153,229,158,99,265,225,138,149,113]",20,5,1,0,0,1,77,238,29,1,,,
,,,,,,,,,,,,,FF,,,,,,,,0.954,,,,,,,,,,,,,,,,,,,,,,,,,5c7ceda01d2afc0001f4ad1d,60a7d7fcb29dd492543b156f,2021-05-21_16h56.21.814,Simcolourproject_2stim_asymm_v5,2020.2.10,MacIntel,60,60a5f9bf14d0aa2821c4bb84,,,337,68,28,1,0,0,response1disk,,6,16,10,1,0,0,rectangle,16,10,1,0,0,0,"[183,140,36,124,221,32,235,312,234,71,86,153,229,158,99,265,225,138,149,113]",16,10,1,0,0,1,78,239,147,1,,,
,,,,,,,,,,,,,FF,,,,,,,,1.038,,,,,,,,,,,,,,,,,,,,,,,,,5c7ceda01d2afc0001f4ad1d,60a7d7fcb29dd492543b156f,2021-05-21_16h56.21.814,Simcolourproject_2stim_asymm_v5,2020.2.10,MacIntel,60,60a5f9bf14d0aa2821c4bb84,,,3171,76,-54,1,0,0,response3disk,,5,-9,13,1,0,0,rectangle,-9,13,1,0,0,4,"[183,140,36,124,221,32,235,312,234,71,86,153,229,158,99,265,225,138,149,113]",-9,13,1,0,0,1,79,240,79,1,,,
,,,,,,,,,,,,,FF,,,,,,,,1.187,,,,,,,,,,,,,,,,,,,,,,,,,5c7ceda01d2afc0001f4ad1d,60a7d7fcb29dd492543b156f,2021-05-21_16h56.21.814,Simcolourproject_2stim_asymm_v5,2020.2.10,MacIntel,60,60a5f9bf14d0aa2821c4bb84,,,1886,-48,80,1,0,0,response7disk,,0,-9,8,1,0,0,rectangle,-9,8,1,0,0,2,"[183,140,36,124,221,32,235,312,234,71,86,153,229,158,99,265,225,138,149,113]",-9,8,1,0,0,1,80,241,7,1,,,
,,,,,,,,,,,,,FF,,,,,,,,1.639,,,,,,,,,,,,,,,,,,,,,,,,,5c7ceda01d2afc0001f4ad1d,60a7d7fcb29dd492543b156f,2021-05-21_16h56.21.814,Simcolourproject_2stim_asymm_v5,2020.2.10,MacIntel,60,60a5f9bf14d0aa2821c4bb84,,,1297,-73,-29,1,0,0,response5disk,,0,-9,-15,1,0,0,rectangle,-9,-15,1,0,0,5,"[183,140,36,124,221,32,235,312,234,71,86,153,229,158,99,265,225,138,149,113]",-9,-15,1,0,0,1,81,242,120,1,,,
,,,,,,,,,,,,,FF,,,,,,,,1.204,,,,,,,,,,,,,,,,,,,,,,,,,5c7ceda01d2afc0001f4ad1d,60a7d7fcb29dd492543b156f,2021-05-21_16h56.21.814,Simcolourproject_2stim_asymm_v5,2020.2.10,MacIntel,60,60a5f9bf14d0aa2821c4bb84,,,1070,-42,-71,1,0,0,response5disk,,3,-6,-5,1,0,0,rectangle,-6,-5,1,0,0,6,"[183,140,36,124,221,32,235,312,234,71,86,153,229,158,99,265,225,138,149,113]",-6,-5,1,0,0,1,82,243,94,1,,,
,,,,,,,,,,,,,FF,,,,,,,,1.167,,,,,,,,,,,,,,,,,,,,,,,,,5c7ceda01d2afc0001f4ad1d,60a7d7fcb29dd492543b156f,2021-05-21_16h56.21.814,Simcolourproject_2stim_asymm_v5,2020.2.10,MacIntel,60,60a5f9bf14d0aa2821c4bb84,,,3263,60,-49,1,0,0,response3disk,,5,-9,-1,1,0,0,rectangle,-9,-1,1,0,0,0,"[183,140,36,124,221,32,235,312,234,71,86,153,229,158,99,265,225,138,149,113]",-9,-1,1,0,0,1,83,244,38,1,,,
,,,,,,,,,,,,,FF,,,,,,,,0.856,,,,,,,,,,,,,,,,,,,,,,,,,5c7ceda01d2afc0001f4ad1d,60a7d7fcb29dd492543b156f,2021-05-21_16h56.21.814,Simcolourproject_2stim_asymm_v5,2020.2.10,MacIntel,60,60a5f9bf14d0aa2821c4bb84,,,3687,43,-37,1,0,0,response3disk,,5,-9,-1,1,0,0,rectangle,-9,-1,1,0,0,2,"[183,140,36,124,221,32,235,312,234,71,86,153,229,158,99,265,225,138,149,113]",-9,-1,1,0,0,1,84,245,121,1,,,
,,,,,,,,,,,,,FF,,,,,,,,0.953,,,,,,,,,,,,,,,,,,,,,,,,,5c7ceda01d2afc0001f4ad1d,60a7d7fcb29dd492543b156f,2021-05-21_16h56.21.814,Simcolourproject_2stim_asymm_v5,2020.2.10,MacIntel,60,60a5f9bf14d0aa2821c4bb84,,,4071,-50,76,1,0,0,response7disk,,0,-7,5,1,0,0,rectangle,-7,5,1,0,0,2,"[183,140,36,124,221,32,235,312,234,71,86,153,229,158,99,265,225,138,149,113]",-7,5,1,0,0,1,85,246,68,1,,,
,,,,,,,,,,,,,FF,,,,,,,,1.07,,,,,,,,,,,,,,,,,,,,,,,,,5c7ceda01d2afc0001f4ad1d,60a7d7fcb29dd492543b156f,2021-05-21_16h56.21.814,Simcolourproject_2stim_asymm_v5,2020.2.10,MacIntel,60,60a5f9bf14d0aa2821c4bb84,,,2090,28,-66,1,0,0,response3disk,,4,-3,-4,1,0,0,rectangle,-3,-4,1,0,0,7,"[183,140,36,124,221,32,235,312,234,71,86,153,229,158,99,265,225,138,149,113]",-3,-4,1,0,0,1,86,247,144,1,,,
