key_resp.keys,key_resp.rt,key_resp_14.keys,key_resp_14.rt,key_resp_15.keys,key_resp_15.rt,key_resp_17.keys,key_resp_17.rt,key_resp_9.keys,key_resp_9.rt,key_resp_10.keys,key_resp_10.rt,practice_comparison,Ecc,mouse_5.x,mouse_5.y,mouse_5.leftButton,mouse_5.midButton,mouse_5.rightButton,mouse_5.clicked_name,pracsimilarity,response_time,mouse_10.x,mouse_10.y,mouse_10.leftButton,mouse_10.midButton,mouse_10.rightButton,mouse_10.clicked_name,mouse_7.x,mouse_7.y,mouse_7.leftButton,mouse_7.midButton,mouse_7.rightButton,catchnumberprac,mouse_6.x,mouse_6.y,mouse_6.leftButton,mouse_6.midButton,mouse_6.rightButton,duringprac.thisRepN,duringprac.thisTrialN,duringprac.thisN,duringprac.thisIndex,duringprac.ran,participant,session,date,expName,psychopyVersion,OS,frameRate,study_id,key_resp_22.keys,key_resp_22.rt,realcomparison,mouse.x,mouse.y,mouse.leftButton,mouse.midButton,mouse.rightButton,mouse.clicked_name,Colour2,similarity,mouse_2.x,mouse_2.y,mouse_2.leftButton,mouse_2.midButton,mouse_2.rightButton,mouse_2.clicked_name,mouse_3.x,mouse_3.y,mouse_3.leftButton,mouse_3.midButton,mouse_3.rightButton,mouse_3.clicked_name,catchnumber,catchtrialorder,mouse_11.x,mouse_11.y,mouse_11.leftButton,mouse_11.midButton,mouse_11.rightButton,mouse_11.clicked_name,trials_2.thisRepN,trials_2.thisTrialN,trials_2.thisN,trials_2.thisIndex,trials_2.ran,Colour1
space,1.45191,space,15.66052,space,24.665455,space,9.41876,space,4.417495,space,3.20704,112,FF,-49,-117,1,0,0,response5disk_5,3,6.93177,-10,-1,1,0,0,rectangle_8,-10,-1,1,0,0,7,-10,-1,1,0,0,0,0,0,3,1,5d1a69d8f97a18001977e0d7,60a7d7faac3d9818752b15e1,2021-05-21_16h56.09.996,Simcolourproject_2stim_asymm_v5,2020.2.10,Win32,60,60a5f9bf14d0aa2821c4bb84,,,,,,,,,,,,,,,,,,,,,,,,,,,,,,,,,,,,,
,,,,,,,,,,,,107,FF,-50,-95,1,0,0,response5disk_5,3,1.95427,-9,-3,1,0,0,rectangle_8,-9,-3,1,0,0,7,-9,-3,1,0,0,0,1,1,0,1,5d1a69d8f97a18001977e0d7,60a7d7faac3d9818752b15e1,2021-05-21_16h56.09.996,Simcolourproject_2stim_asymm_v5,2020.2.10,Win32,60,60a5f9bf14d0aa2821c4bb84,,,,,,,,,,,,,,,,,,,,,,,,,,,,,,,,,,,,,
,,,,,,,,,,,,136,PF,100,-38,1,0,0,response3disk_5,5,4.358655,11,-5,1,0,0,rectangle_8,11,-5,1,0,0,7,11,-5,1,0,0,0,2,2,6,1,5d1a69d8f97a18001977e0d7,60a7d7faac3d9818752b15e1,2021-05-21_16h56.09.996,Simcolourproject_2stim_asymm_v5,2020.2.10,Win32,60,60a5f9bf14d0aa2821c4bb84,,,,,,,,,,,,,,,,,,,,,,,,,,,,,,,,,,,,,
,,,,,,,,,,,,139,FF,-62,-92,1,0,0,response5disk_5,3,2.78993,-20,-3,1,0,0,rectangle_8,-20,-3,1,0,0,7,-20,-3,1,0,0,0,3,3,5,1,5d1a69d8f97a18001977e0d7,60a7d7faac3d9818752b15e1,2021-05-21_16h56.09.996,Simcolourproject_2stim_asymm_v5,2020.2.10,Win32,60,60a5f9bf14d0aa2821c4bb84,,,,,,,,,,,,,,,,,,,,,,,,,,,,,,,,,,,,,
,,,,,,,,,,,,22,PF,101,-37,1,0,0,response3disk_5,5,2.067395,8,-8,1,0,0,rectangle_8,8,-8,1,0,0,7,8,-8,1,0,0,0,4,4,4,1,5d1a69d8f97a18001977e0d7,60a7d7faac3d9818752b15e1,2021-05-21_16h56.09.996,Simcolourproject_2stim_asymm_v5,2020.2.10,Win32,60,60a5f9bf14d0aa2821c4bb84,,,,,,,,,,,,,,,,,,,,,,,,,,,,,,,,,,,,,
,,,,,,,,,,,,10,PF,53,-86,1,0,0,response3disk_5,4,1.61656,10,-2,1,0,0,rectangle_8,10,-2,1,0,0,7,10,-2,1,0,0,0,5,5,2,1,5d1a69d8f97a18001977e0d7,60a7d7faac3d9818752b15e1,2021-05-21_16h56.09.996,Simcolourproject_2stim_asymm_v5,2020.2.10,Win32,60,60a5f9bf14d0aa2821c4bb84,,,,,,,,,,,,,,,,,,,,,,,,,,,,,,,,,,,,,
,,,,,,,,,,,,95,PF,34,-99,1,0,0,response3disk_5,4,3.95421,-5,-6,1,0,0,rectangle_8,-5,-6,1,0,0,7,-5,-6,1,0,0,0,6,6,1,1,5d1a69d8f97a18001977e0d7,60a7d7faac3d9818752b15e1,2021-05-21_16h56.09.996,Simcolourproject_2stim_asymm_v5,2020.2.10,Win32,60,60a5f9bf14d0aa2821c4bb84,,,,,,,,,,,,,,,,,,,,,,,,,,,,,,,,,,,,,
,,,,,,,,,,,,,FF,,,,,,,,4.64842,,,,,,,,,,,,,,,,,,,,,,,5d1a69d8f97a18001977e0d7,60a7d7faac3d9818752b15e1,2021-05-21_16h56.09.996,Simcolourproject_2stim_asymm_v5,2020.2.10,Win32,60,60a5f9bf14d0aa2821c4bb84,space,3.47854,2270,38,-95,1,0,0,response3disk,,4,-7,-12,1,0,0,rectangle,34,91,1,0,0,response1disk_3,7,"[58,191,278,100,65,29,322,125,86,271,136,1,92,20,169,101,278,233,68,29]",-2,-7,1,0,0,rectangle,0,0,0,86,1,
,,,,,,,,,,,,,FF,,,,,,,,3.33947,,,,,,,,,,,,,,,,,,,,,,,5d1a69d8f97a18001977e0d7,60a7d7faac3d9818752b15e1,2021-05-21_16h56.09.996,Simcolourproject_2stim_asymm_v5,2020.2.10,Win32,60,60a5f9bf14d0aa2821c4bb84,,,1823,-101,-41,1,0,0,response5disk,,7,-3,-9,1,0,0,rectangle,-3,-9,1,0,0,,4,"[58,191,278,100,65,29,322,125,86,271,136,1,92,20,169,101,278,233,68,29]",-3,-9,1,0,0,,0,1,1,158,1,
,,,,,,,,,,,,,FF,,,,,,,,3.00619,,,,,,,,,,,,,,,,,,,,,,,5d1a69d8f97a18001977e0d7,60a7d7faac3d9818752b15e1,2021-05-21_16h56.09.996,Simcolourproject_2stim_asymm_v5,2020.2.10,Win32,60,60a5f9bf14d0aa2821c4bb84,,,3856,-53,-81,1,0,0,response5disk,,3,-15,-7,1,0,0,rectangle,-15,-7,1,0,0,,3,"[58,191,278,100,65,29,322,125,86,271,136,1,92,20,169,101,278,233,68,29]",-15,-7,1,0,0,,0,2,2,84,1,
,,,,,,,,,,,,,FF,,,,,,,,1.33553,,,,,,,,,,,,,,,,,,,,,,,5d1a69d8f97a18001977e0d7,60a7d7faac3d9818752b15e1,2021-05-21_16h56.09.996,Simcolourproject_2stim_asymm_v5,2020.2.10,Win32,60,60a5f9bf14d0aa2821c4bb84,,,428,74,-47,1,0,0,response3disk,,5,7,-7,1,0,0,rectangle,7,-7,1,0,0,,5,"[58,191,278,100,65,29,322,125,86,271,136,1,92,20,169,101,278,233,68,29]",7,-7,1,0,0,,0,3,3,63,1,
,,,,,,,,,,,,,FF,,,,,,,,1.1855,,,,,,,,,,,,,,,,,,,,,,,5d1a69d8f97a18001977e0d7,60a7d7faac3d9818752b15e1,2021-05-21_16h56.09.996,Simcolourproject_2stim_asymm_v5,2020.2.10,Win32,60,60a5f9bf14d0aa2821c4bb84,,,2837,44,-93,1,0,0,response3disk,,4,-5,-11,1,0,0,rectangle,-5,-11,1,0,0,,0,"[58,191,278,100,65,29,322,125,86,271,136,1,92,20,169,101,278,233,68,29]",-5,-11,1,0,0,,0,4,4,64,1,
,,,,,,,,,,,,,FF,,,,,,,,2.372905,,,,,,,,,,,,,,,,,,,,,,,5d1a69d8f97a18001977e0d7,60a7d7faac3d9818752b15e1,2021-05-21_16h56.09.996,Simcolourproject_2stim_asymm_v5,2020.2.10,Win32,60,60a5f9bf14d0aa2821c4bb84,,,2791,32,-98,1,0,0,response3disk,,4,-1,-8,1,0,0,rectangle,-1,-8,1,0,0,,5,"[58,191,278,100,65,29,322,125,86,271,136,1,92,20,169,101,278,233,68,29]",-1,-8,1,0,0,,0,5,5,113,1,
,,,,,,,,,,,,,FF,,,,,,,,1.936825,,,,,,,,,,,,,,,,,,,,,,,5d1a69d8f97a18001977e0d7,60a7d7faac3d9818752b15e1,2021-05-21_16h56.09.996,Simcolourproject_2stim_asymm_v5,2020.2.10,Win32,60,60a5f9bf14d0aa2821c4bb84,,,1627,67,45,1,0,0,response1disk,,6,7,-7,1,0,0,rectangle,7,-7,1,0,0,,1,"[58,191,278,100,65,29,322,125,86,271,136,1,92,20,169,101,278,233,68,29]",7,-7,1,0,0,,0,6,6,56,1,
,,,,,,,,,,,,,FF,,,,,,,,1.870265,,,,,,,,,,,,,,,,,,,,,,,5d1a69d8f97a18001977e0d7,60a7d7faac3d9818752b15e1,2021-05-21_16h56.09.996,Simcolourproject_2stim_asymm_v5,2020.2.10,Win32,60,60a5f9bf14d0aa2821c4bb84,,,4201,-64,-87,1,0,0,response5disk,,3,-6,-2,1,0,0,rectangle,-6,-2,1,0,0,,1,"[58,191,278,100,65,29,322,125,86,271,136,1,92,20,169,101,278,233,68,29]",-6,-2,1,0,0,,0,7,7,130,1,
,,,,,,,,,,,,,FF,,,,,,,,3.5579,,,,,,,,,,,,,,,,,,,,,,,5d1a69d8f97a18001977e0d7,60a7d7faac3d9818752b15e1,2021-05-21_16h56.09.996,Simcolourproject_2stim_asymm_v5,2020.2.10,Win32,60,60a5f9bf14d0aa2821c4bb84,,,884,64,86,1,0,0,response1disk,,7,6,-5,1,0,0,rectangle,6,-5,1,0,0,,1,"[58,191,278,100,65,29,322,125,86,271,136,1,92,20,169,101,278,233,68,29]",6,-5,1,0,0,,0,8,8,28,1,
,,,,,,,,,,,,,FF,,,,,,,,1.68694,,,,,,,,,,,,,,,,,,,,,,,5d1a69d8f97a18001977e0d7,60a7d7faac3d9818752b15e1,2021-05-21_16h56.09.996,Simcolourproject_2stim_asymm_v5,2020.2.10,Win32,60,60a5f9bf14d0aa2821c4bb84,,,208,51,-87,1,0,0,response3disk,,4,13,-7,1,0,0,rectangle,13,-7,1,0,0,,5,"[58,191,278,100,65,29,322,125,86,271,136,1,92,20,169,101,278,233,68,29]",13,-7,1,0,0,,0,9,9,145,1,
,,,,,,,,,,,,,FF,,,,,,,,1.168675,,,,,,,,,,,,,,,,,,,,,,,5d1a69d8f97a18001977e0d7,60a7d7faac3d9818752b15e1,2021-05-21_16h56.09.996,Simcolourproject_2stim_asymm_v5,2020.2.10,Win32,60,60a5f9bf14d0aa2821c4bb84,,,4192,43,-78,1,0,0,response3disk,,4,8,-3,1,0,0,rectangle,8,-3,1,0,0,,1,"[58,191,278,100,65,29,322,125,86,271,136,1,92,20,169,101,278,233,68,29]",8,-3,1,0,0,,0,10,10,21,1,
,,,,,,,,,,,,,FF,,,,,,,,0.935135,,,,,,,,,,,,,,,,,,,,,,,5d1a69d8f97a18001977e0d7,60a7d7faac3d9818752b15e1,2021-05-21_16h56.09.996,Simcolourproject_2stim_asymm_v5,2020.2.10,Win32,60,60a5f9bf14d0aa2821c4bb84,,,2974,36,-66,1,0,0,response3disk,,4,11,-6,1,0,0,rectangle,11,-6,1,0,0,,7,"[58,191,278,100,65,29,322,125,86,271,136,1,92,20,169,101,278,233,68,29]",11,-6,1,0,0,,0,11,11,18,1,
,,,,,,,,,,,,,FF,,,,,,,,4.44186,,,,,,,,,,,,,,,,,,,,,,,5d1a69d8f97a18001977e0d7,60a7d7faac3d9818752b15e1,2021-05-21_16h56.09.996,Simcolourproject_2stim_asymm_v5,2020.2.10,Win32,60,60a5f9bf14d0aa2821c4bb84,,,1131,-50,82,1,0,0,response7disk,,0,-9,1,1,0,0,rectangle,-9,1,1,0,0,,4,"[58,191,278,100,65,29,322,125,86,271,136,1,92,20,169,101,278,233,68,29]",-9,1,1,0,0,,0,12,12,33,1,
,,,,,,,,,,,,,FF,,,,,,,,2.471805,,,,,,,,,,,,,,,,,,,,,,,5d1a69d8f97a18001977e0d7,60a7d7faac3d9818752b15e1,2021-05-21_16h56.09.996,Simcolourproject_2stim_asymm_v5,2020.2.10,Win32,60,60a5f9bf14d0aa2821c4bb84,,,3145,103,-43,1,0,0,response3disk,,5,-6,-9,1,0,0,rectangle,-6,-9,1,0,0,,4,"[58,191,278,100,65,29,322,125,86,271,136,1,92,20,169,101,278,233,68,29]",-6,-9,1,0,0,,0,13,13,129,1,
,,,,,,,,,,,,,FF,,,,,,,,2.522065,,,,,,,,,,,,,,,,,,,,,,,5d1a69d8f97a18001977e0d7,60a7d7faac3d9818752b15e1,2021-05-21_16h56.09.996,Simcolourproject_2stim_asymm_v5,2020.2.10,Win32,60,60a5f9bf14d0aa2821c4bb84,,,4090,50,-99,1,0,0,response3disk,,4,0,-6,1,0,0,rectangle,0,-6,1,0,0,,7,"[58,191,278,100,65,29,322,125,86,271,136,1,92,20,169,101,278,233,68,29]",0,-6,1,0,0,,0,14,14,131,1,
,,,,,,,,,,,,,FF,,,,,,,,1.736885,,,,,,,,,,,,,,,,,,,,,,,5d1a69d8f97a18001977e0d7,60a7d7faac3d9818752b15e1,2021-05-21_16h56.09.996,Simcolourproject_2stim_asymm_v5,2020.2.10,Win32,60,60a5f9bf14d0aa2821c4bb84,,,788,41,-62,1,0,0,response3disk,,4,3,-4,1,0,0,rectangle,3,-4,1,0,0,,2,"[58,191,278,100,65,29,322,125,86,271,136,1,92,20,169,101,278,233,68,29]",3,-4,1,0,0,,0,15,15,55,1,
,,,,,,,,,,,,,FF,,,,,,,,1.904145,,,,,,,,,,,,,,,,,,,,,,,5d1a69d8f97a18001977e0d7,60a7d7faac3d9818752b15e1,2021-05-21_16h56.09.996,Simcolourproject_2stim_asymm_v5,2020.2.10,Win32,60,60a5f9bf14d0aa2821c4bb84,,,2997,-40,-81,1,0,0,response5disk,,3,-6,-6,1,0,0,rectangle,-6,-6,1,0,0,,4,"[58,191,278,100,65,29,322,125,86,271,136,1,92,20,169,101,278,233,68,29]",-6,-6,1,0,0,,0,16,16,108,1,
,,,,,,,,,,,,,FF,,,,,,,,1.58688,,,,,,,,,,,,,,,,,,,,,,,5d1a69d8f97a18001977e0d7,60a7d7faac3d9818752b15e1,2021-05-21_16h56.09.996,Simcolourproject_2stim_asymm_v5,2020.2.10,Win32,60,60a5f9bf14d0aa2821c4bb84,,,3850,36,-90,1,0,0,response3disk,,4,-9,-10,1,0,0,rectangle,-9,-10,1,0,0,,3,"[58,191,278,100,65,29,322,125,86,271,136,1,92,20,169,101,278,233,68,29]",-9,-10,1,0,0,,0,17,17,117,1,
,,,,,,,,,,,,,FF,,,,,,,,1.06859,,,,,,,,,,,,,,,,,,,,,,,5d1a69d8f97a18001977e0d7,60a7d7faac3d9818752b15e1,2021-05-21_16h56.09.996,Simcolourproject_2stim_asymm_v5,2020.2.10,Win32,60,60a5f9bf14d0aa2821c4bb84,,,3562,85,-41,1,0,0,response3disk,,5,3,-4,1,0,0,rectangle,3,-4,1,0,0,,2,"[58,191,278,100,65,29,322,125,86,271,136,1,92,20,169,101,278,233,68,29]",3,-4,1,0,0,,0,18,18,96,1,
,,,,,,,,,,,,,FF,,,,,,,,2.221165,,,,,,,,,,,,,,,,,,,,,,,5d1a69d8f97a18001977e0d7,60a7d7faac3d9818752b15e1,2021-05-21_16h56.09.996,Simcolourproject_2stim_asymm_v5,2020.2.10,Win32,60,60a5f9bf14d0aa2821c4bb84,,,2174,-54,-78,1,0,0,response5disk,,3,-10,1,1,0,0,rectangle,49,82,1,0,0,response1disk_3,7,"[58,191,278,100,65,29,322,125,86,271,136,1,92,20,169,101,278,233,68,29]",-2,-6,1,0,0,rectangle,0,19,19,73,1,
,,,,,,,,,,,,,FF,,,,,,,,1.870285,,,,,,,,,,,,,,,,,,,,,,,5d1a69d8f97a18001977e0d7,60a7d7faac3d9818752b15e1,2021-05-21_16h56.09.996,Simcolourproject_2stim_asymm_v5,2020.2.10,Win32,60,60a5f9bf14d0aa2821c4bb84,,,4209,79,-46,1,0,0,response3disk,,5,-3,-6,1,0,0,rectangle,-3,-6,1,0,0,,0,"[58,191,278,100,65,29,322,125,86,271,136,1,92,20,169,101,278,233,68,29]",-3,-6,1,0,0,,0,20,20,90,1,
,,,,,,,,,,,,,FF,,,,,,,,0.851935,,,,,,,,,,,,,,,,,,,,,,,5d1a69d8f97a18001977e0d7,60a7d7faac3d9818752b15e1,2021-05-21_16h56.09.996,Simcolourproject_2stim_asymm_v5,2020.2.10,Win32,60,60a5f9bf14d0aa2821c4bb84,,,176,84,-41,1,0,0,response3disk,,5,14,-2,1,0,0,rectangle,14,-2,1,0,0,,7,"[58,191,278,100,65,29,322,125,86,271,136,1,92,20,169,101,278,233,68,29]",14,-2,1,0,0,,0,21,21,149,1,
,,,,,,,,,,,,,FF,,,,,,,,2.722225,,,,,,,,,,,,,,,,,,,,,,,5d1a69d8f97a18001977e0d7,60a7d7faac3d9818752b15e1,2021-05-21_16h56.09.996,Simcolourproject_2stim_asymm_v5,2020.2.10,Win32,60,60a5f9bf14d0aa2821c4bb84,,,959,71,-29,1,0,0,response3disk,,5,10,-5,1,0,0,rectangle,10,-5,1,0,0,,3,"[58,191,278,100,65,29,322,125,86,271,136,1,92,20,169,101,278,233,68,29]",10,-5,1,0,0,,0,22,22,9,1,
,,,,,,,,,,,,,FF,,,,,,,,2.03088,,,,,,,,,,,,,,,,,,,,,,,5d1a69d8f97a18001977e0d7,60a7d7faac3d9818752b15e1,2021-05-21_16h56.09.996,Simcolourproject_2stim_asymm_v5,2020.2.10,Win32,60,60a5f9bf14d0aa2821c4bb84,,,3241,40,-90,1,0,0,response3disk,,4,6,1,1,0,0,rectangle,6,1,1,0,0,,4,"[58,191,278,100,65,29,322,125,86,271,136,1,92,20,169,101,278,233,68,29]",6,1,1,0,0,,0,23,23,79,1,
,,,,,,,,,,,,,FF,,,,,,,,1.4365,,,,,,,,,,,,,,,,,,,,,,,5d1a69d8f97a18001977e0d7,60a7d7faac3d9818752b15e1,2021-05-21_16h56.09.996,Simcolourproject_2stim_asymm_v5,2020.2.10,Win32,60,60a5f9bf14d0aa2821c4bb84,,,4366,-64,80,1,0,0,response7disk,,0,-20,-3,1,0,0,rectangle,-20,-3,1,0,0,,0,"[58,191,278,100,65,29,322,125,86,271,136,1,92,20,169,101,278,233,68,29]",-20,-3,1,0,0,,0,24,24,36,1,
,,,,,,,,,,,,,FF,,,,,,,,0.88507,,,,,,,,,,,,,,,,,,,,,,,5d1a69d8f97a18001977e0d7,60a7d7faac3d9818752b15e1,2021-05-21_16h56.09.996,Simcolourproject_2stim_asymm_v5,2020.2.10,Win32,60,60a5f9bf14d0aa2821c4bb84,,,4181,-47,86,1,0,0,response7disk,,0,-7,1,1,0,0,rectangle,-7,1,1,0,0,,4,"[58,191,278,100,65,29,322,125,86,271,136,1,92,20,169,101,278,233,68,29]",-7,1,1,0,0,,0,25,25,95,1,
,,,,,,,,,,,,,FF,,,,,,,,1.60291,,,,,,,,,,,,,,,,,,,,,,,5d1a69d8f97a18001977e0d7,60a7d7faac3d9818752b15e1,2021-05-21_16h56.09.996,Simcolourproject_2stim_asymm_v5,2020.2.10,Win32,60,60a5f9bf14d0aa2821c4bb84,,,1065,-54,-79,1,0,0,response5disk,,3,-14,4,1,0,0,rectangle,-14,4,1,0,0,,6,"[58,191,278,100,65,29,322,125,86,271,136,1,92,20,169,101,278,233,68,29]",-14,4,1,0,0,,0,26,26,32,1,
,,,,,,,,,,,,,FF,,,,,,,,1.21905,,,,,,,,,,,,,,,,,,,,,,,5d1a69d8f97a18001977e0d7,60a7d7faac3d9818752b15e1,2021-05-21_16h56.09.996,Simcolourproject_2stim_asymm_v5,2020.2.10,Win32,60,60a5f9bf14d0aa2821c4bb84,,,3600,71,-48,1,0,0,response3disk,,5,7,-9,1,0,0,rectangle,7,-9,1,0,0,,4,"[58,191,278,100,65,29,322,125,86,271,136,1,92,20,169,101,278,233,68,29]",7,-9,1,0,0,,0,27,27,2,1,
,,,,,,,,,,,,,FF,,,,,,,,1.26947,,,,,,,,,,,,,,,,,,,,,,,5d1a69d8f97a18001977e0d7,60a7d7faac3d9818752b15e1,2021-05-21_16h56.09.996,Simcolourproject_2stim_asymm_v5,2020.2.10,Win32,60,60a5f9bf14d0aa2821c4bb84,,,1975,57,-84,1,0,0,response3disk,,4,12,-5,1,0,0,rectangle,-45,94,1,0,0,response7disk_3,0,"[58,191,278,100,65,29,322,125,86,271,136,1,92,20,169,101,278,233,68,29]",-3,5,1,0,0,rectangle,0,28,28,87,1,
,,,,,,,,,,,,,FF,,,,,,,,1.87012,,,,,,,,,,,,,,,,,,,,,,,5d1a69d8f97a18001977e0d7,60a7d7faac3d9818752b15e1,2021-05-21_16h56.09.996,Simcolourproject_2stim_asymm_v5,2020.2.10,Win32,60,60a5f9bf14d0aa2821c4bb84,,,3805,36,-67,1,0,0,response3disk,,4,-3,5,1,0,0,rectangle,-3,5,1,0,0,,4,"[58,191,278,100,65,29,322,125,86,271,136,1,92,20,169,101,278,233,68,29]",-3,5,1,0,0,,0,29,29,68,1,
,,,,,,,,,,,,,FF,,,,,,,,0.918585,,,,,,,,,,,,,,,,,,,,,,,5d1a69d8f97a18001977e0d7,60a7d7faac3d9818752b15e1,2021-05-21_16h56.09.996,Simcolourproject_2stim_asymm_v5,2020.2.10,Win32,60,60a5f9bf14d0aa2821c4bb84,,,2708,88,-38,1,0,0,response3disk,,5,12,11,1,0,0,rectangle,12,11,1,0,0,,4,"[58,191,278,100,65,29,322,125,86,271,136,1,92,20,169,101,278,233,68,29]",12,11,1,0,0,,0,30,30,65,1,
,,,,,,,,,,,,,FF,,,,,,,,1.7067,,,,,,,,,,,,,,,,,,,,,,,5d1a69d8f97a18001977e0d7,60a7d7faac3d9818752b15e1,2021-05-21_16h56.09.996,Simcolourproject_2stim_asymm_v5,2020.2.10,Win32,60,60a5f9bf14d0aa2821c4bb84,,,3682,34,-102,1,0,0,response3disk,,4,-4,-9,1,0,0,rectangle,-4,-9,1,0,0,,4,"[58,191,278,100,65,29,322,125,86,271,136,1,92,20,169,101,278,233,68,29]",-4,-9,1,0,0,,0,31,31,88,1,
,,,,,,,,,,,,,FF,,,,,,,,1.28553,,,,,,,,,,,,,,,,,,,,,,,5d1a69d8f97a18001977e0d7,60a7d7faac3d9818752b15e1,2021-05-21_16h56.09.996,Simcolourproject_2stim_asymm_v5,2020.2.10,Win32,60,60a5f9bf14d0aa2821c4bb84,,,266,41,-91,1,0,0,response3disk,,4,-10,-8,1,0,0,rectangle,-10,-8,1,0,0,,6,"[58,191,278,100,65,29,322,125,86,271,136,1,92,20,169,101,278,233,68,29]",-10,-8,1,0,0,,0,32,32,139,1,
,,,,,,,,,,,,,FF,,,,,,,,0.93527,,,,,,,,,,,,,,,,,,,,,,,5d1a69d8f97a18001977e0d7,60a7d7faac3d9818752b15e1,2021-05-21_16h56.09.996,Simcolourproject_2stim_asymm_v5,2020.2.10,Win32,60,60a5f9bf14d0aa2821c4bb84,,,3865,-46,-89,1,0,0,response5disk,,3,-6,-10,1,0,0,rectangle,-6,-10,1,0,0,,6,"[58,191,278,100,65,29,322,125,86,271,136,1,92,20,169,101,278,233,68,29]",-6,-10,1,0,0,,0,33,33,85,1,
,,,,,,,,,,,,,FF,,,,,,,,1.06892,,,,,,,,,,,,,,,,,,,,,,,5d1a69d8f97a18001977e0d7,60a7d7faac3d9818752b15e1,2021-05-21_16h56.09.996,Simcolourproject_2stim_asymm_v5,2020.2.10,Win32,60,60a5f9bf14d0aa2821c4bb84,,,2441,97,-44,1,0,0,response3disk,,5,13,-7,1,0,0,rectangle,13,-7,1,0,0,,7,"[58,191,278,100,65,29,322,125,86,271,136,1,92,20,169,101,278,233,68,29]",13,-7,1,0,0,,0,34,34,121,1,
,,,,,,,,,,,,,FF,,,,,,,,1.168955,,,,,,,,,,,,,,,,,,,,,,,5d1a69d8f97a18001977e0d7,60a7d7faac3d9818752b15e1,2021-05-21_16h56.09.996,Simcolourproject_2stim_asymm_v5,2020.2.10,Win32,60,60a5f9bf14d0aa2821c4bb84,,,1388,35,-82,1,0,0,response3disk,,4,-6,-5,1,0,0,rectangle,-6,-5,1,0,0,,1,"[58,191,278,100,65,29,322,125,86,271,136,1,92,20,169,101,278,233,68,29]",-6,-5,1,0,0,,0,35,35,146,1,
,,,,,,,,,,,,,FF,,,,,,,,0.95193,,,,,,,,,,,,,,,,,,,,,,,5d1a69d8f97a18001977e0d7,60a7d7faac3d9818752b15e1,2021-05-21_16h56.09.996,Simcolourproject_2stim_asymm_v5,2020.2.10,Win32,60,60a5f9bf14d0aa2821c4bb84,,,1873,83,39,1,0,0,response1disk,,6,-1,-10,1,0,0,rectangle,-1,-10,1,0,0,,3,"[58,191,278,100,65,29,322,125,86,271,136,1,92,20,169,101,278,233,68,29]",-1,-10,1,0,0,,0,36,36,45,1,
,,,,,,,,,,,,,FF,,,,,,,,1.05345,,,,,,,,,,,,,,,,,,,,,,,5d1a69d8f97a18001977e0d7,60a7d7faac3d9818752b15e1,2021-05-21_16h56.09.996,Simcolourproject_2stim_asymm_v5,2020.2.10,Win32,60,60a5f9bf14d0aa2821c4bb84,,,2936,-34,-78,1,0,0,response5disk,,3,-3,-5,1,0,0,rectangle,-3,-5,1,0,0,,5,"[58,191,278,100,65,29,322,125,86,271,136,1,92,20,169,101,278,233,68,29]",-3,-5,1,0,0,,0,37,37,160,1,
,,,,,,,,,,,,,FF,,,,,,,,5.862415,,,,,,,,,,,,,,,,,,,,,,,5d1a69d8f97a18001977e0d7,60a7d7faac3d9818752b15e1,2021-05-21_16h56.09.996,Simcolourproject_2stim_asymm_v5,2020.2.10,Win32,60,60a5f9bf14d0aa2821c4bb84,,,3760,62,-42,1,0,0,response3disk,,5,11,-11,1,0,0,rectangle,11,-11,1,0,0,,1,"[58,191,278,100,65,29,322,125,86,271,136,1,92,20,169,101,278,233,68,29]",11,-11,1,0,0,,0,38,38,114,1,
,,,,,,,,,,,,,FF,,,,,,,,1.553045,,,,,,,,,,,,,,,,,,,,,,,5d1a69d8f97a18001977e0d7,60a7d7faac3d9818752b15e1,2021-05-21_16h56.09.996,Simcolourproject_2stim_asymm_v5,2020.2.10,Win32,60,60a5f9bf14d0aa2821c4bb84,,,667,80,-47,1,0,0,response3disk,,5,-5,-2,1,0,0,rectangle,-5,-2,1,0,0,,3,"[58,191,278,100,65,29,322,125,86,271,136,1,92,20,169,101,278,233,68,29]",-5,-2,1,0,0,,0,39,39,155,1,
,,,,,,,,,,,,,FF,,,,,,,,1.58604,,,,,,,,,,,,,,,,,,,,,,,5d1a69d8f97a18001977e0d7,60a7d7faac3d9818752b15e1,2021-05-21_16h56.09.996,Simcolourproject_2stim_asymm_v5,2020.2.10,Win32,60,60a5f9bf14d0aa2821c4bb84,,,3589,49,-65,1,0,0,response3disk,,4,11,-10,1,0,0,rectangle,11,-10,1,0,0,,6,"[58,191,278,100,65,29,322,125,86,271,136,1,92,20,169,101,278,233,68,29]",11,-10,1,0,0,,0,40,40,89,1,
,,,,,,,,,,,,,FF,,,,,,,,1.370395,,,,,,,,,,,,,,,,,,,,,,,5d1a69d8f97a18001977e0d7,60a7d7faac3d9818752b15e1,2021-05-21_16h56.09.996,Simcolourproject_2stim_asymm_v5,2020.2.10,Win32,60,60a5f9bf14d0aa2821c4bb84,,,4203,-41,-77,1,0,0,response5disk,,3,-7,-9,1,0,0,rectangle,-7,-9,1,0,0,,2,"[58,191,278,100,65,29,322,125,86,271,136,1,92,20,169,101,278,233,68,29]",-7,-9,1,0,0,,0,41,41,135,1,
,,,,,,,,,,,,,FF,,,,,,,,1.235875,,,,,,,,,,,,,,,,,,,,,,,5d1a69d8f97a18001977e0d7,60a7d7faac3d9818752b15e1,2021-05-21_16h56.09.996,Simcolourproject_2stim_asymm_v5,2020.2.10,Win32,60,60a5f9bf14d0aa2821c4bb84,,,3092,-35,-63,1,0,0,response5disk,,3,1,-8,1,0,0,rectangle,1,-8,1,0,0,,5,"[58,191,278,100,65,29,322,125,86,271,136,1,92,20,169,101,278,233,68,29]",1,-8,1,0,0,,0,42,42,118,1,
,,,,,,,,,,,,,FF,,,,,,,,1.23576,,,,,,,,,,,,,,,,,,,,,,,5d1a69d8f97a18001977e0d7,60a7d7faac3d9818752b15e1,2021-05-21_16h56.09.996,Simcolourproject_2stim_asymm_v5,2020.2.10,Win32,60,60a5f9bf14d0aa2821c4bb84,,,3138,-29,-73,1,0,0,response5disk,,3,2,-6,1,0,0,rectangle,2,-6,1,0,0,,1,"[58,191,278,100,65,29,322,125,86,271,136,1,92,20,169,101,278,233,68,29]",2,-6,1,0,0,,0,43,43,59,1,
,,,,,,,,,,,,,FF,,,,,,,,1.470145,,,,,,,,,,,,,,,,,,,,,,,5d1a69d8f97a18001977e0d7,60a7d7faac3d9818752b15e1,2021-05-21_16h56.09.996,Simcolourproject_2stim_asymm_v5,2020.2.10,Win32,60,60a5f9bf14d0aa2821c4bb84,,,1226,35,-66,1,0,0,response3disk,,4,-3,-9,1,0,0,rectangle,-3,-9,1,0,0,,6,"[58,191,278,100,65,29,322,125,86,271,136,1,92,20,169,101,278,233,68,29]",-3,-9,1,0,0,,0,44,44,30,1,
,,,,,,,,,,,,,FF,,,,,,,,1.151935,,,,,,,,,,,,,,,,,,,,,,,5d1a69d8f97a18001977e0d7,60a7d7faac3d9818752b15e1,2021-05-21_16h56.09.996,Simcolourproject_2stim_asymm_v5,2020.2.10,Win32,60,60a5f9bf14d0aa2821c4bb84,,,2422,31,-54,1,0,0,response3disk,,4,2,-8,1,0,0,rectangle,2,-8,1,0,0,,7,"[58,191,278,100,65,29,322,125,86,271,136,1,92,20,169,101,278,233,68,29]",2,-8,1,0,0,,0,45,45,151,1,
,,,,,,,,,,,,,FF,,,,,,,,3.072215,,,,,,,,,,,,,,,,,,,,,,,5d1a69d8f97a18001977e0d7,60a7d7faac3d9818752b15e1,2021-05-21_16h56.09.996,Simcolourproject_2stim_asymm_v5,2020.2.10,Win32,60,60a5f9bf14d0aa2821c4bb84,,,2437,105,31,1,0,0,response1disk,,6,14,1,1,0,0,rectangle,14,1,1,0,0,,3,"[58,191,278,100,65,29,322,125,86,271,136,1,92,20,169,101,278,233,68,29]",14,1,1,0,0,,0,46,46,93,1,
,,,,,,,,,,,,,FF,,,,,,,,1.05231,,,,,,,,,,,,,,,,,,,,,,,5d1a69d8f97a18001977e0d7,60a7d7faac3d9818752b15e1,2021-05-21_16h56.09.996,Simcolourproject_2stim_asymm_v5,2020.2.10,Win32,60,60a5f9bf14d0aa2821c4bb84,,,2913,79,-42,1,0,0,response3disk,,5,11,0,1,0,0,rectangle,11,0,1,0,0,,2,"[58,191,278,100,65,29,322,125,86,271,136,1,92,20,169,101,278,233,68,29]",11,0,1,0,0,,0,47,47,110,1,
,,,,,,,,,,,,,FF,,,,,,,,2.154275,,,,,,,,,,,,,,,,,,,,,,,5d1a69d8f97a18001977e0d7,60a7d7faac3d9818752b15e1,2021-05-21_16h56.09.996,Simcolourproject_2stim_asymm_v5,2020.2.10,Win32,60,60a5f9bf14d0aa2821c4bb84,,,1224,105,-38,1,0,0,response3disk,,5,22,-4,1,0,0,rectangle,22,-4,1,0,0,,2,"[58,191,278,100,65,29,322,125,86,271,136,1,92,20,169,101,278,233,68,29]",22,-4,1,0,0,,0,48,48,126,1,
,,,,,,,,,,,,,FF,,,,,,,,1.31937,,,,,,,,,,,,,,,,,,,,,,,5d1a69d8f97a18001977e0d7,60a7d7faac3d9818752b15e1,2021-05-21_16h56.09.996,Simcolourproject_2stim_asymm_v5,2020.2.10,Win32,60,60a5f9bf14d0aa2821c4bb84,,,990,38,-89,1,0,0,response3disk,,4,1,-7,1,0,0,rectangle,1,-7,1,0,0,,5,"[58,191,278,100,65,29,322,125,86,271,136,1,92,20,169,101,278,233,68,29]",1,-7,1,0,0,,0,49,49,124,1,
,,,,,,,,,,,,,FF,,,,,,,,0.95213,,,,,,,,,,,,,,,,,,,,,,,5d1a69d8f97a18001977e0d7,60a7d7faac3d9818752b15e1,2021-05-21_16h56.09.996,Simcolourproject_2stim_asymm_v5,2020.2.10,Win32,60,60a5f9bf14d0aa2821c4bb84,,,1771,100,-40,1,0,0,response3disk,,5,7,-2,1,0,0,rectangle,7,-2,1,0,0,,4,"[58,191,278,100,65,29,322,125,86,271,136,1,92,20,169,101,278,233,68,29]",7,-2,1,0,0,,0,50,50,13,1,
,,,,,,,,,,,,,FF,,,,,,,,1.31998,,,,,,,,,,,,,,,,,,,,,,,5d1a69d8f97a18001977e0d7,60a7d7faac3d9818752b15e1,2021-05-21_16h56.09.996,Simcolourproject_2stim_asymm_v5,2020.2.10,Win32,60,60a5f9bf14d0aa2821c4bb84,,,758,74,48,1,0,0,response1disk,,6,6,-9,1,0,0,rectangle,6,-9,1,0,0,,0,"[58,191,278,100,65,29,322,125,86,271,136,1,92,20,169,101,278,233,68,29]",6,-9,1,0,0,,0,51,51,159,1,
,,,,,,,,,,,,,FF,,,,,,,,1.102215,,,,,,,,,,,,,,,,,,,,,,,5d1a69d8f97a18001977e0d7,60a7d7faac3d9818752b15e1,2021-05-21_16h56.09.996,Simcolourproject_2stim_asymm_v5,2020.2.10,Win32,60,60a5f9bf14d0aa2821c4bb84,,,3096,-42,71,1,0,0,response7disk,,0,3,-11,1,0,0,rectangle,3,-11,1,0,0,,2,"[58,191,278,100,65,29,322,125,86,271,136,1,92,20,169,101,278,233,68,29]",3,-11,1,0,0,,0,52,52,123,1,
,,,,,,,,,,,,,FF,,,,,,,,1.619935,,,,,,,,,,,,,,,,,,,,,,,5d1a69d8f97a18001977e0d7,60a7d7faac3d9818752b15e1,2021-05-21_16h56.09.996,Simcolourproject_2stim_asymm_v5,2020.2.10,Win32,60,60a5f9bf14d0aa2821c4bb84,,,2933,-46,-63,1,0,0,response5disk,,3,-12,-7,1,0,0,rectangle,-12,-7,1,0,0,,3,"[58,191,278,100,65,29,322,125,86,271,136,1,92,20,169,101,278,233,68,29]",-12,-7,1,0,0,,0,53,53,76,1,
,,,,,,,,,,,,,FF,,,,,,,,1.034815,,,,,,,,,,,,,,,,,,,,,,,5d1a69d8f97a18001977e0d7,60a7d7faac3d9818752b15e1,2021-05-21_16h56.09.996,Simcolourproject_2stim_asymm_v5,2020.2.10,Win32,60,60a5f9bf14d0aa2821c4bb84,,,930,88,-47,1,0,0,response3disk,,5,5,-4,1,0,0,rectangle,5,-4,1,0,0,,5,"[58,191,278,100,65,29,322,125,86,271,136,1,92,20,169,101,278,233,68,29]",5,-4,1,0,0,,0,54,54,80,1,
,,,,,,,,,,,,,FF,,,,,,,,1.36925,,,,,,,,,,,,,,,,,,,,,,,5d1a69d8f97a18001977e0d7,60a7d7faac3d9818752b15e1,2021-05-21_16h56.09.996,Simcolourproject_2stim_asymm_v5,2020.2.10,Win32,60,60a5f9bf14d0aa2821c4bb84,,,3440,86,-46,1,0,0,response3disk,,5,12,0,1,0,0,rectangle,12,0,1,0,0,,7,"[58,191,278,100,65,29,322,125,86,271,136,1,92,20,169,101,278,233,68,29]",12,0,1,0,0,,0,55,55,97,1,
,,,,,,,,,,,,,FF,,,,,,,,0.80162,,,,,,,,,,,,,,,,,,,,,,,5d1a69d8f97a18001977e0d7,60a7d7faac3d9818752b15e1,2021-05-21_16h56.09.996,Simcolourproject_2stim_asymm_v5,2020.2.10,Win32,60,60a5f9bf14d0aa2821c4bb84,,,4365,-37,83,1,0,0,response7disk,,0,0,0,1,0,0,rectangle,0,0,1,0,0,,0,"[58,191,278,100,65,29,322,125,86,271,136,1,92,20,169,101,278,233,68,29]",0,0,1,0,0,,0,56,56,67,1,
,,,,,,,,,,,,,FF,,,,,,,,1.536205,,,,,,,,,,,,,,,,,,,,,,,5d1a69d8f97a18001977e0d7,60a7d7faac3d9818752b15e1,2021-05-21_16h56.09.996,Simcolourproject_2stim_asymm_v5,2020.2.10,Win32,60,60a5f9bf14d0aa2821c4bb84,,,5,-43,-62,1,0,0,response5disk,,3,0,6,1,0,0,rectangle,-47,121,1,0,0,response7disk_3,0,"[58,191,278,100,65,29,322,125,86,271,136,1,92,20,169,101,278,233,68,29]",0,1,1,0,0,rectangle,0,57,57,82,1,
,,,,,,,,,,,,,FF,,,,,,,,2.054075,,,,,,,,,,,,,,,,,,,,,,,5d1a69d8f97a18001977e0d7,60a7d7faac3d9818752b15e1,2021-05-21_16h56.09.996,Simcolourproject_2stim_asymm_v5,2020.2.10,Win32,60,60a5f9bf14d0aa2821c4bb84,,,2743,88,-39,1,0,0,response3disk,,5,8,-9,1,0,0,rectangle,8,-9,1,0,0,,5,"[58,191,278,100,65,29,322,125,86,271,136,1,92,20,169,101,278,233,68,29]",8,-9,1,0,0,,0,58,58,62,1,
,,,,,,,,,,,,,FF,,,,,,,,1.001885,,,,,,,,,,,,,,,,,,,,,,,5d1a69d8f97a18001977e0d7,60a7d7faac3d9818752b15e1,2021-05-21_16h56.09.996,Simcolourproject_2stim_asymm_v5,2020.2.10,Win32,60,60a5f9bf14d0aa2821c4bb84,,,652,89,-42,1,0,0,response3disk,,5,19,-1,1,0,0,rectangle,19,-1,1,0,0,,7,"[58,191,278,100,65,29,322,125,86,271,136,1,92,20,169,101,278,233,68,29]",19,-1,1,0,0,,0,59,59,27,1,
,,,,,,,,,,,,,FF,,,,,,,,0.935185,,,,,,,,,,,,,,,,,,,,,,,5d1a69d8f97a18001977e0d7,60a7d7faac3d9818752b15e1,2021-05-21_16h56.09.996,Simcolourproject_2stim_asymm_v5,2020.2.10,Win32,60,60a5f9bf14d0aa2821c4bb84,,,318,118,51,1,0,0,response1disk,,6,17,-8,1,0,0,rectangle,17,-8,1,0,0,,7,"[58,191,278,100,65,29,322,125,86,271,136,1,92,20,169,101,278,233,68,29]",17,-8,1,0,0,,0,60,60,132,1,
,,,,,,,,,,,,,FF,,,,,,,,0.88527,,,,,,,,,,,,,,,,,,,,,,,5d1a69d8f97a18001977e0d7,60a7d7faac3d9818752b15e1,2021-05-21_16h56.09.996,Simcolourproject_2stim_asymm_v5,2020.2.10,Win32,60,60a5f9bf14d0aa2821c4bb84,,,129,108,42,1,0,0,response1disk,,6,16,-9,1,0,0,rectangle,16,-9,1,0,0,,1,"[58,191,278,100,65,29,322,125,86,271,136,1,92,20,169,101,278,233,68,29]",16,-9,1,0,0,,0,61,61,109,1,
,,,,,,,,,,,,,FF,,,,,,,,1.08565,,,,,,,,,,,,,,,,,,,,,,,5d1a69d8f97a18001977e0d7,60a7d7faac3d9818752b15e1,2021-05-21_16h56.09.996,Simcolourproject_2stim_asymm_v5,2020.2.10,Win32,60,60a5f9bf14d0aa2821c4bb84,,,1298,-62,39,1,0,0,response7disk,,1,4,-7,1,0,0,rectangle,4,-7,1,0,0,,0,"[58,191,278,100,65,29,322,125,86,271,136,1,92,20,169,101,278,233,68,29]",4,-7,1,0,0,,0,62,62,111,1,
,,,,,,,,,,,,,FF,,,,,,,,1.40235,,,,,,,,,,,,,,,,,,,,,,,5d1a69d8f97a18001977e0d7,60a7d7faac3d9818752b15e1,2021-05-21_16h56.09.996,Simcolourproject_2stim_asymm_v5,2020.2.10,Win32,60,60a5f9bf14d0aa2821c4bb84,,,2150,68,-40,1,0,0,response3disk,,5,6,-6,1,0,0,rectangle,6,-6,1,0,0,,7,"[58,191,278,100,65,29,322,125,86,271,136,1,92,20,169,101,278,233,68,29]",6,-6,1,0,0,,0,63,63,52,1,
,,,,,,,,,,,,,FF,,,,,,,,1.03544,,,,,,,,,,,,,,,,,,,,,,,5d1a69d8f97a18001977e0d7,60a7d7faac3d9818752b15e1,2021-05-21_16h56.09.996,Simcolourproject_2stim_asymm_v5,2020.2.10,Win32,60,60a5f9bf14d0aa2821c4bb84,,,2519,84,38,1,0,0,response1disk,,6,10,-3,1,0,0,rectangle,45,-87,1,0,0,response3disk_3,4,"[58,191,278,100,65,29,322,125,86,271,136,1,92,20,169,101,278,233,68,29]",-4,-3,1,0,0,rectangle,0,64,64,69,1,
,,,,,,,,,,,,,FF,,,,,,,,1.118935,,,,,,,,,,,,,,,,,,,,,,,5d1a69d8f97a18001977e0d7,60a7d7faac3d9818752b15e1,2021-05-21_16h56.09.996,Simcolourproject_2stim_asymm_v5,2020.2.10,Win32,60,60a5f9bf14d0aa2821c4bb84,,,1336,66,-39,1,0,0,response3disk,,5,2,-13,1,0,0,rectangle,2,-13,1,0,0,,5,"[58,191,278,100,65,29,322,125,86,271,136,1,92,20,169,101,278,233,68,29]",2,-13,1,0,0,,0,65,65,136,1,
,,,,,,,,,,,,,FF,,,,,,,,2.287975,,,,,,,,,,,,,,,,,,,,,,,5d1a69d8f97a18001977e0d7,60a7d7faac3d9818752b15e1,2021-05-21_16h56.09.996,Simcolourproject_2stim_asymm_v5,2020.2.10,Win32,60,60a5f9bf14d0aa2821c4bb84,,,705,51,-70,1,0,0,response3disk,,4,13,-12,1,0,0,rectangle,13,-12,1,0,0,,1,"[58,191,278,100,65,29,322,125,86,271,136,1,92,20,169,101,278,233,68,29]",13,-12,1,0,0,,0,66,66,119,1,
,,,,,,,,,,,,,FF,,,,,,,,1.953955,,,,,,,,,,,,,,,,,,,,,,,5d1a69d8f97a18001977e0d7,60a7d7faac3d9818752b15e1,2021-05-21_16h56.09.996,Simcolourproject_2stim_asymm_v5,2020.2.10,Win32,60,60a5f9bf14d0aa2821c4bb84,,,2308,49,-67,1,0,0,response3disk,,4,16,-10,1,0,0,rectangle,43,-87,1,0,0,response3disk_3,4,"[58,191,278,100,65,29,322,125,86,271,136,1,92,20,169,101,278,233,68,29]",2,-5,1,0,0,rectangle,0,67,67,66,1,
,,,,,,,,,,,,,FF,,,,,,,,4.893475,,,,,,,,,,,,,,,,,,,,,,,5d1a69d8f97a18001977e0d7,60a7d7faac3d9818752b15e1,2021-05-21_16h56.09.996,Simcolourproject_2stim_asymm_v5,2020.2.10,Win32,60,60a5f9bf14d0aa2821c4bb84,,,969,92,36,1,0,0,response1disk,,6,25,2,1,0,0,rectangle,25,2,1,0,0,,0,"[58,191,278,100,65,29,322,125,86,271,136,1,92,20,169,101,278,233,68,29]",25,2,1,0,0,,0,68,68,91,1,
,,,,,,,,,,,,,FF,,,,,,,,1.908195,,,,,,,,,,,,,,,,,,,,,,,5d1a69d8f97a18001977e0d7,60a7d7faac3d9818752b15e1,2021-05-21_16h56.09.996,Simcolourproject_2stim_asymm_v5,2020.2.10,Win32,60,60a5f9bf14d0aa2821c4bb84,,,1366,86,43,1,0,0,response1disk,,6,-12,2,1,0,0,rectangle,-12,2,1,0,0,,0,"[58,191,278,100,65,29,322,125,86,271,136,1,92,20,169,101,278,233,68,29]",-12,2,1,0,0,,0,69,69,92,1,
,,,,,,,,,,,,,FF,,,,,,,,2.26834,,,,,,,,,,,,,,,,,,,,,,,5d1a69d8f97a18001977e0d7,60a7d7faac3d9818752b15e1,2021-05-21_16h56.09.996,Simcolourproject_2stim_asymm_v5,2020.2.10,Win32,60,60a5f9bf14d0aa2821c4bb84,,,559,95,-43,1,0,0,response3disk,,5,-11,0,1,0,0,rectangle,-11,0,1,0,0,,5,"[58,191,278,100,65,29,322,125,86,271,136,1,92,20,169,101,278,233,68,29]",-11,0,1,0,0,,0,70,70,19,1,
,,,,,,,,,,,,,FF,,,,,,,,1.75384,,,,,,,,,,,,,,,,,,,,,,,5d1a69d8f97a18001977e0d7,60a7d7faac3d9818752b15e1,2021-05-21_16h56.09.996,Simcolourproject_2stim_asymm_v5,2020.2.10,Win32,60,60a5f9bf14d0aa2821c4bb84,,,3793,76,-35,1,0,0,response3disk,,5,6,-11,1,0,0,rectangle,6,-11,1,0,0,,5,"[58,191,278,100,65,29,322,125,86,271,136,1,92,20,169,101,278,233,68,29]",6,-11,1,0,0,,0,71,71,143,1,
,,,,,,,,,,,,,FF,,,,,,,,1.13626,,,,,,,,,,,,,,,,,,,,,,,5d1a69d8f97a18001977e0d7,60a7d7faac3d9818752b15e1,2021-05-21_16h56.09.996,Simcolourproject_2stim_asymm_v5,2020.2.10,Win32,60,60a5f9bf14d0aa2821c4bb84,,,3548,90,-40,1,0,0,response3disk,,5,6,-2,1,0,0,rectangle,6,-2,1,0,0,,5,"[58,191,278,100,65,29,322,125,86,271,136,1,92,20,169,101,278,233,68,29]",6,-2,1,0,0,,0,72,72,148,1,
,,,,,,,,,,,,,FF,,,,,,,,0.804125,,,,,,,,,,,,,,,,,,,,,,,5d1a69d8f97a18001977e0d7,60a7d7faac3d9818752b15e1,2021-05-21_16h56.09.996,Simcolourproject_2stim_asymm_v5,2020.2.10,Win32,60,60a5f9bf14d0aa2821c4bb84,,,1325,73,-47,1,0,0,response3disk,,5,7,-7,1,0,0,rectangle,7,-7,1,0,0,,3,"[58,191,278,100,65,29,322,125,86,271,136,1,92,20,169,101,278,233,68,29]",7,-7,1,0,0,,0,73,73,144,1,
,,,,,,,,,,,,,FF,,,,,,,,1.136735,,,,,,,,,,,,,,,,,,,,,,,5d1a69d8f97a18001977e0d7,60a7d7faac3d9818752b15e1,2021-05-21_16h56.09.996,Simcolourproject_2stim_asymm_v5,2020.2.10,Win32,60,60a5f9bf14d0aa2821c4bb84,,,422,71,-46,1,0,0,response3disk,,5,-5,1,1,0,0,rectangle,-5,1,1,0,0,,2,"[58,191,278,100,65,29,322,125,86,271,136,1,92,20,169,101,278,233,68,29]",-5,1,1,0,0,,0,74,74,156,1,
,,,,,,,,,,,,,FF,,,,,,,,0.95633,,,,,,,,,,,,,,,,,,,,,,,5d1a69d8f97a18001977e0d7,60a7d7faac3d9818752b15e1,2021-05-21_16h56.09.996,Simcolourproject_2stim_asymm_v5,2020.2.10,Win32,60,60a5f9bf14d0aa2821c4bb84,,,784,46,-81,1,0,0,response3disk,,4,-3,-2,1,0,0,rectangle,-3,-2,1,0,0,,1,"[58,191,278,100,65,29,322,125,86,271,136,1,92,20,169,101,278,233,68,29]",-3,-2,1,0,0,,0,75,75,24,1,
,,,,,,,,,,,,,FF,,,,,,,,1.83786,,,,,,,,,,,,,,,,,,,,,,,5d1a69d8f97a18001977e0d7,60a7d7faac3d9818752b15e1,2021-05-21_16h56.09.996,Simcolourproject_2stim_asymm_v5,2020.2.10,Win32,60,60a5f9bf14d0aa2821c4bb84,,,16,75,-50,1,0,0,response3disk,,5,-5,-4,1,0,0,rectangle,-5,-4,1,0,0,,3,"[58,191,278,100,65,29,322,125,86,271,136,1,92,20,169,101,278,233,68,29]",-5,-4,1,0,0,,0,76,76,94,1,
,,,,,,,,,,,,,FF,,,,,,,,1.186745,,,,,,,,,,,,,,,,,,,,,,,5d1a69d8f97a18001977e0d7,60a7d7faac3d9818752b15e1,2021-05-21_16h56.09.996,Simcolourproject_2stim_asymm_v5,2020.2.10,Win32,60,60a5f9bf14d0aa2821c4bb84,,,1158,84,-57,1,0,0,response3disk,,5,-2,-4,1,0,0,rectangle,-2,-4,1,0,0,,1,"[58,191,278,100,65,29,322,125,86,271,136,1,92,20,169,101,278,233,68,29]",-2,-4,1,0,0,,0,77,77,49,1,
,,,,,,,,,,,,,FF,,,,,,,,1.206765,,,,,,,,,,,,,,,,,,,,,,,5d1a69d8f97a18001977e0d7,60a7d7faac3d9818752b15e1,2021-05-21_16h56.09.996,Simcolourproject_2stim_asymm_v5,2020.2.10,Win32,60,60a5f9bf14d0aa2821c4bb84,,,2374,68,-50,1,0,0,response3disk,,5,-6,-9,1,0,0,rectangle,-6,-9,1,0,0,,4,"[58,191,278,100,65,29,322,125,86,271,136,1,92,20,169,101,278,233,68,29]",-6,-9,1,0,0,,0,78,78,6,1,
,,,,,,,,,,,,,FF,,,,,,,,2.01718,,,,,,,,,,,,,,,,,,,,,,,5d1a69d8f97a18001977e0d7,60a7d7faac3d9818752b15e1,2021-05-21_16h56.09.996,Simcolourproject_2stim_asymm_v5,2020.2.10,Win32,60,60a5f9bf14d0aa2821c4bb84,,,792,58,-80,1,0,0,response3disk,,4,2,-1,1,0,0,rectangle,2,-1,1,0,0,,3,"[58,191,278,100,65,29,322,125,86,271,136,1,92,20,169,101,278,233,68,29]",2,-1,1,0,0,,0,79,79,25,1,
,,,,,,,,,,,,,FF,,,,,,,,2.05452,,,,,,,,,,,,,,,,,,,,,,,5d1a69d8f97a18001977e0d7,60a7d7faac3d9818752b15e1,2021-05-21_16h56.09.996,Simcolourproject_2stim_asymm_v5,2020.2.10,Win32,60,60a5f9bf14d0aa2821c4bb84,,,470,91,-65,1,0,0,response3disk,,5,3,-2,1,0,0,rectangle,3,-2,1,0,0,,0,"[58,191,278,100,65,29,322,125,86,271,136,1,92,20,169,101,278,233,68,29]",3,-2,1,0,0,,0,80,80,4,1,
,,,,,,,,,,,,,FF,,,,,,,,2.017295,,,,,,,,,,,,,,,,,,,,,,,5d1a69d8f97a18001977e0d7,60a7d7faac3d9818752b15e1,2021-05-21_16h56.09.996,Simcolourproject_2stim_asymm_v5,2020.2.10,Win32,60,60a5f9bf14d0aa2821c4bb84,,,2862,80,-54,1,0,0,response3disk,,5,-1,-5,1,0,0,rectangle,-1,-5,1,0,0,,6,"[58,191,278,100,65,29,322,125,86,271,136,1,92,20,169,101,278,233,68,29]",-1,-5,1,0,0,,0,81,81,101,1,
,,,,,,,,,,,,,FF,,,,,,,,1.006925,,,,,,,,,,,,,,,,,,,,,,,5d1a69d8f97a18001977e0d7,60a7d7faac3d9818752b15e1,2021-05-21_16h56.09.996,Simcolourproject_2stim_asymm_v5,2020.2.10,Win32,60,60a5f9bf14d0aa2821c4bb84,,,1390,54,-81,1,0,0,response3disk,,4,-1,-1,1,0,0,rectangle,-1,-1,1,0,0,,2,"[58,191,278,100,65,29,322,125,86,271,136,1,92,20,169,101,278,233,68,29]",-1,-1,1,0,0,,0,82,82,81,1,
,,,,,,,,,,,,,FF,,,,,,,,0.956355,,,,,,,,,,,,,,,,,,,,,,,5d1a69d8f97a18001977e0d7,60a7d7faac3d9818752b15e1,2021-05-21_16h56.09.996,Simcolourproject_2stim_asymm_v5,2020.2.10,Win32,60,60a5f9bf14d0aa2821c4bb84,,,2255,72,36,1,0,0,response1disk,,6,7,-7,1,0,0,rectangle,7,-7,1,0,0,,3,"[58,191,278,100,65,29,322,125,86,271,136,1,92,20,169,101,278,233,68,29]",7,-7,1,0,0,,0,83,83,50,1,
,,,,,,,,,,,,,FF,,,,,,,,1.169525,,,,,,,,,,,,,,,,,,,,,,,5d1a69d8f97a18001977e0d7,60a7d7faac3d9818752b15e1,2021-05-21_16h56.09.996,Simcolourproject_2stim_asymm_v5,2020.2.10,Win32,60,60a5f9bf14d0aa2821c4bb84,,,4347,29,-65,1,0,0,response3disk,,4,-4,-5,1,0,0,rectangle,-4,-5,1,0,0,,1,"[58,191,278,100,65,29,322,125,86,271,136,1,92,20,169,101,278,233,68,29]",-4,-5,1,0,0,,0,84,84,122,1,
,,,,,,,,,,,,,FF,,,,,,,,1.314965,,,,,,,,,,,,,,,,,,,,,,,5d1a69d8f97a18001977e0d7,60a7d7faac3d9818752b15e1,2021-05-21_16h56.09.996,Simcolourproject_2stim_asymm_v5,2020.2.10,Win32,60,60a5f9bf14d0aa2821c4bb84,,,294,39,-59,1,0,0,response3disk,,4,-7,-3,1,0,0,rectangle,-82,56,1,0,0,response7disk_3,1,"[58,191,278,100,65,29,322,125,86,271,136,1,92,20,169,101,278,233,68,29]",-13,-2,1,0,0,rectangle,0,85,85,26,1,
,,,,,,,,,,,,,FF,,,,,,,,2.371545,,,,,,,,,,,,,,,,,,,,,,,5d1a69d8f97a18001977e0d7,60a7d7faac3d9818752b15e1,2021-05-21_16h56.09.996,Simcolourproject_2stim_asymm_v5,2020.2.10,Win32,60,60a5f9bf14d0aa2821c4bb84,,,2271,72,-44,1,0,0,response3disk,,5,-14,-11,1,0,0,rectangle,-14,-11,1,0,0,,3,"[58,191,278,100,65,29,322,125,86,271,136,1,92,20,169,101,278,233,68,29]",-14,-11,1,0,0,,0,86,86,15,1,
,,,,,,,,,,,,,FF,,,,,,,,1.219295,,,,,,,,,,,,,,,,,,,,,,,5d1a69d8f97a18001977e0d7,60a7d7faac3d9818752b15e1,2021-05-21_16h56.09.996,Simcolourproject_2stim_asymm_v5,2020.2.10,Win32,60,60a5f9bf14d0aa2821c4bb84,,,2612,42,-83,1,0,0,response3disk,,4,-12,-10,1,0,0,rectangle,-12,-10,1,0,0,,2,"[58,191,278,100,65,29,322,125,86,271,136,1,92,20,169,101,278,233,68,29]",-12,-10,1,0,0,,0,87,87,100,1,
,,,,,,,,,,,,,FF,,,,,,,,0.918915,,,,,,,,,,,,,,,,,,,,,,,5d1a69d8f97a18001977e0d7,60a7d7faac3d9818752b15e1,2021-05-21_16h56.09.996,Simcolourproject_2stim_asymm_v5,2020.2.10,Win32,60,60a5f9bf14d0aa2821c4bb84,,,3696,78,-37,1,0,0,response3disk,,5,7,0,1,0,0,rectangle,7,0,1,0,0,,3,"[58,191,278,100,65,29,322,125,86,271,136,1,92,20,169,101,278,233,68,29]",7,0,1,0,0,,0,88,88,12,1,
,,,,,,,,,,,,,FF,,,,,,,,2.35488,,,,,,,,,,,,,,,,,,,,,,,5d1a69d8f97a18001977e0d7,60a7d7faac3d9818752b15e1,2021-05-21_16h56.09.996,Simcolourproject_2stim_asymm_v5,2020.2.10,Win32,60,60a5f9bf14d0aa2821c4bb84,,,2897,95,-40,1,0,0,response3disk,,5,4,-4,1,0,0,rectangle,4,-4,1,0,0,,2,"[58,191,278,100,65,29,322,125,86,271,136,1,92,20,169,101,278,233,68,29]",4,-4,1,0,0,,0,89,89,42,1,
,,,,,,,,,,,,,FF,,,,,,,,1.2867,,,,,,,,,,,,,,,,,,,,,,,5d1a69d8f97a18001977e0d7,60a7d7faac3d9818752b15e1,2021-05-21_16h56.09.996,Simcolourproject_2stim_asymm_v5,2020.2.10,Win32,60,60a5f9bf14d0aa2821c4bb84,,,408,42,-63,1,0,0,response3disk,,4,-4,-9,1,0,0,rectangle,-4,-9,1,0,0,,2,"[58,191,278,100,65,29,322,125,86,271,136,1,92,20,169,101,278,233,68,29]",-4,-9,1,0,0,,0,90,90,53,1,
,,,,,,,,,,,,,FF,,,,,,,,1.7205,,,,,,,,,,,,,,,,,,,,,,,5d1a69d8f97a18001977e0d7,60a7d7faac3d9818752b15e1,2021-05-21_16h56.09.996,Simcolourproject_2stim_asymm_v5,2020.2.10,Win32,60,60a5f9bf14d0aa2821c4bb84,,,3919,36,-64,1,0,0,response3disk,,4,-4,-7,1,0,0,rectangle,41,120,1,0,0,response1disk_3,7,"[58,191,278,100,65,29,322,125,86,271,136,1,92,20,169,101,278,233,68,29]",-11,-2,1,0,0,rectangle,0,91,91,16,1,
,,,,,,,,,,,,,FF,,,,,,,,1.470015,,,,,,,,,,,,,,,,,,,,,,,5d1a69d8f97a18001977e0d7,60a7d7faac3d9818752b15e1,2021-05-21_16h56.09.996,Simcolourproject_2stim_asymm_v5,2020.2.10,Win32,60,60a5f9bf14d0aa2821c4bb84,,,1907,41,-64,1,0,0,response3disk,,4,-4,-3,1,0,0,rectangle,-4,-3,1,0,0,,0,"[58,191,278,100,65,29,322,125,86,271,136,1,92,20,169,101,278,233,68,29]",-4,-3,1,0,0,,0,92,92,128,1,
,,,,,,,,,,,,,FF,,,,,,,,1.37398,,,,,,,,,,,,,,,,,,,,,,,5d1a69d8f97a18001977e0d7,60a7d7faac3d9818752b15e1,2021-05-21_16h56.09.996,Simcolourproject_2stim_asymm_v5,2020.2.10,Win32,60,60a5f9bf14d0aa2821c4bb84,,,533,-38,-75,1,0,0,response5disk,,3,0,-12,1,0,0,rectangle,0,-12,1,0,0,,0,"[58,191,278,100,65,29,322,125,86,271,136,1,92,20,169,101,278,233,68,29]",0,-12,1,0,0,,0,93,93,106,1,
,,,,,,,,,,,,,FF,,,,,,,,1.05683,,,,,,,,,,,,,,,,,,,,,,,5d1a69d8f97a18001977e0d7,60a7d7faac3d9818752b15e1,2021-05-21_16h56.09.996,Simcolourproject_2stim_asymm_v5,2020.2.10,Win32,60,60a5f9bf14d0aa2821c4bb84,,,4225,-68,-31,1,0,0,response5disk,,3,10,0,1,0,0,rectangle,10,0,1,0,0,,2,"[58,191,278,100,65,29,322,125,86,271,136,1,92,20,169,101,278,233,68,29]",10,0,1,0,0,,0,94,94,34,1,
,,,,,,,,,,,,,FF,,,,,,,,1.018615,,,,,,,,,,,,,,,,,,,,,,,5d1a69d8f97a18001977e0d7,60a7d7faac3d9818752b15e1,2021-05-21_16h56.09.996,Simcolourproject_2stim_asymm_v5,2020.2.10,Win32,60,60a5f9bf14d0aa2821c4bb84,,,1927,82,-42,1,0,0,response3disk,,5,-6,1,1,0,0,rectangle,-6,1,1,0,0,,3,"[58,191,278,100,65,29,322,125,86,271,136,1,92,20,169,101,278,233,68,29]",-6,1,1,0,0,,0,95,95,133,1,
,,,,,,,,,,,,,FF,,,,,,,,1.469765,,,,,,,,,,,,,,,,,,,,,,,5d1a69d8f97a18001977e0d7,60a7d7faac3d9818752b15e1,2021-05-21_16h56.09.996,Simcolourproject_2stim_asymm_v5,2020.2.10,Win32,60,60a5f9bf14d0aa2821c4bb84,,,2050,70,32,1,0,0,response1disk,,6,0,-9,1,0,0,rectangle,0,-9,1,0,0,,2,"[58,191,278,100,65,29,322,125,86,271,136,1,92,20,169,101,278,233,68,29]",0,-9,1,0,0,,0,96,96,70,1,
,,,,,,,,,,,,,FF,,,,,,,,3.623785,,,,,,,,,,,,,,,,,,,,,,,5d1a69d8f97a18001977e0d7,60a7d7faac3d9818752b15e1,2021-05-21_16h56.09.996,Simcolourproject_2stim_asymm_v5,2020.2.10,Win32,60,60a5f9bf14d0aa2821c4bb84,,,1946,84,-28,1,0,0,response3disk,,5,19,-2,1,0,0,rectangle,19,-2,1,0,0,,1,"[58,191,278,100,65,29,322,125,86,271,136,1,92,20,169,101,278,233,68,29]",19,-2,1,0,0,,0,97,97,153,1,
,,,,,,,,,,,,,FF,,,,,,,,1.33615,,,,,,,,,,,,,,,,,,,,,,,5d1a69d8f97a18001977e0d7,60a7d7faac3d9818752b15e1,2021-05-21_16h56.09.996,Simcolourproject_2stim_asymm_v5,2020.2.10,Win32,60,60a5f9bf14d0aa2821c4bb84,,,3403,57,34,1,0,0,response1disk,,6,-5,-5,1,0,0,rectangle,-5,-5,1,0,0,,4,"[58,191,278,100,65,29,322,125,86,271,136,1,92,20,169,101,278,233,68,29]",-5,-5,1,0,0,,0,98,98,8,1,
,,,,,,,,,,,,,FF,,,,,,,,1.268975,,,,,,,,,,,,,,,,,,,,,,,5d1a69d8f97a18001977e0d7,60a7d7faac3d9818752b15e1,2021-05-21_16h56.09.996,Simcolourproject_2stim_asymm_v5,2020.2.10,Win32,60,60a5f9bf14d0aa2821c4bb84,,,1803,86,-25,1,0,0,response3disk,,5,19,6,1,0,0,rectangle,-92,-43,1,0,0,response5disk_3,2,"[58,191,278,100,65,29,322,125,86,271,136,1,92,20,169,101,278,233,68,29]",14,-3,1,0,0,rectangle,0,99,99,0,1,
,,,,,,,,,,,,,FF,,,,,,,,2.42146,,,,,,,,,,,,,,,,,,,,,,,5d1a69d8f97a18001977e0d7,60a7d7faac3d9818752b15e1,2021-05-21_16h56.09.996,Simcolourproject_2stim_asymm_v5,2020.2.10,Win32,60,60a5f9bf14d0aa2821c4bb84,,,3798,69,-49,1,0,0,response3disk,,5,-7,-2,1,0,0,rectangle,-49,-119,1,0,0,response5disk_3,3,"[58,191,278,100,65,29,322,125,86,271,136,1,92,20,169,101,278,233,68,29]",-4,-1,1,0,0,rectangle,0,100,100,141,1,
,,,,,,,,,,,,,FF,,,,,,,,5.961795,,,,,,,,,,,,,,,,,,,,,,,5d1a69d8f97a18001977e0d7,60a7d7faac3d9818752b15e1,2021-05-21_16h56.09.996,Simcolourproject_2stim_asymm_v5,2020.2.10,Win32,60,60a5f9bf14d0aa2821c4bb84,,,1267,85,-50,1,0,0,response3disk,,5,2,-2,1,0,0,rectangle,2,-2,1,0,0,,4,"[58,191,278,100,65,29,322,125,86,271,136,1,92,20,169,101,278,233,68,29]",2,-2,1,0,0,,0,101,101,120,1,
,,,,,,,,,,,,,FF,,,,,,,,1.46955,,,,,,,,,,,,,,,,,,,,,,,5d1a69d8f97a18001977e0d7,60a7d7faac3d9818752b15e1,2021-05-21_16h56.09.996,Simcolourproject_2stim_asymm_v5,2020.2.10,Win32,60,60a5f9bf14d0aa2821c4bb84,,,4194,48,-72,1,0,0,response3disk,,4,6,-10,1,0,0,rectangle,6,-10,1,0,0,,7,"[58,191,278,100,65,29,322,125,86,271,136,1,92,20,169,101,278,233,68,29]",6,-10,1,0,0,,0,102,102,44,1,
,,,,,,,,,,,,,FF,,,,,,,,1.002035,,,,,,,,,,,,,,,,,,,,,,,5d1a69d8f97a18001977e0d7,60a7d7faac3d9818752b15e1,2021-05-21_16h56.09.996,Simcolourproject_2stim_asymm_v5,2020.2.10,Win32,60,60a5f9bf14d0aa2821c4bb84,,,562,43,-70,1,0,0,response3disk,,4,-1,-7,1,0,0,rectangle,-1,-7,1,0,0,,7,"[58,191,278,100,65,29,322,125,86,271,136,1,92,20,169,101,278,233,68,29]",-1,-7,1,0,0,,0,103,103,3,1,
,,,,,,,,,,,,,FF,,,,,,,,1.48612,,,,,,,,,,,,,,,,,,,,,,,5d1a69d8f97a18001977e0d7,60a7d7faac3d9818752b15e1,2021-05-21_16h56.09.996,Simcolourproject_2stim_asymm_v5,2020.2.10,Win32,60,60a5f9bf14d0aa2821c4bb84,,,1814,100,24,1,0,0,response1disk,,6,-7,-4,1,0,0,rectangle,-7,-4,1,0,0,,5,"[58,191,278,100,65,29,322,125,86,271,136,1,92,20,169,101,278,233,68,29]",-7,-4,1,0,0,,0,104,104,35,1,
,,,,,,,,,,,,,FF,,,,,,,,1.168765,,,,,,,,,,,,,,,,,,,,,,,5d1a69d8f97a18001977e0d7,60a7d7faac3d9818752b15e1,2021-05-21_16h56.09.996,Simcolourproject_2stim_asymm_v5,2020.2.10,Win32,60,60a5f9bf14d0aa2821c4bb84,,,812,46,-68,1,0,0,response3disk,,4,1,-6,1,0,0,rectangle,1,-6,1,0,0,,1,"[58,191,278,100,65,29,322,125,86,271,136,1,92,20,169,101,278,233,68,29]",1,-6,1,0,0,,0,105,105,138,1,
,,,,,,,,,,,,,FF,,,,,,,,1.185745,,,,,,,,,,,,,,,,,,,,,,,5d1a69d8f97a18001977e0d7,60a7d7faac3d9818752b15e1,2021-05-21_16h56.09.996,Simcolourproject_2stim_asymm_v5,2020.2.10,Win32,60,60a5f9bf14d0aa2821c4bb84,,,2643,40,-62,1,0,0,response3disk,,4,4,3,1,0,0,rectangle,4,3,1,0,0,,4,"[58,191,278,100,65,29,322,125,86,271,136,1,92,20,169,101,278,233,68,29]",4,3,1,0,0,,0,106,106,157,1,
,,,,,,,,,,,,,FF,,,,,,,,1.068375,,,,,,,,,,,,,,,,,,,,,,,5d1a69d8f97a18001977e0d7,60a7d7faac3d9818752b15e1,2021-05-21_16h56.09.996,Simcolourproject_2stim_asymm_v5,2020.2.10,Win32,60,60a5f9bf14d0aa2821c4bb84,,,3348,58,-37,1,0,0,response3disk,,5,-2,-2,1,0,0,rectangle,-2,-2,1,0,0,,6,"[58,191,278,100,65,29,322,125,86,271,136,1,92,20,169,101,278,233,68,29]",-2,-2,1,0,0,,0,107,107,23,1,
,,,,,,,,,,,,,FF,,,,,,,,1.28626,,,,,,,,,,,,,,,,,,,,,,,5d1a69d8f97a18001977e0d7,60a7d7faac3d9818752b15e1,2021-05-21_16h56.09.996,Simcolourproject_2stim_asymm_v5,2020.2.10,Win32,60,60a5f9bf14d0aa2821c4bb84,,,1201,-32,-67,1,0,0,response5disk,,3,1,1,1,0,0,rectangle,1,1,1,0,0,,2,"[58,191,278,100,65,29,322,125,86,271,136,1,92,20,169,101,278,233,68,29]",1,1,1,0,0,,0,108,108,77,1,
,,,,,,,,,,,,,FF,,,,,,,,0.90184,,,,,,,,,,,,,,,,,,,,,,,5d1a69d8f97a18001977e0d7,60a7d7faac3d9818752b15e1,2021-05-21_16h56.09.996,Simcolourproject_2stim_asymm_v5,2020.2.10,Win32,60,60a5f9bf14d0aa2821c4bb84,,,1370,-66,-32,1,0,0,response5disk,,3,11,1,1,0,0,rectangle,11,1,1,0,0,,1,"[58,191,278,100,65,29,322,125,86,271,136,1,92,20,169,101,278,233,68,29]",11,1,1,0,0,,0,109,109,116,1,
,,,,,,,,,,,,,FF,,,,,,,,1.08556,,,,,,,,,,,,,,,,,,,,,,,5d1a69d8f97a18001977e0d7,60a7d7faac3d9818752b15e1,2021-05-21_16h56.09.996,Simcolourproject_2stim_asymm_v5,2020.2.10,Win32,60,60a5f9bf14d0aa2821c4bb84,,,58,93,-49,1,0,0,response3disk,,5,-3,-1,1,0,0,rectangle,-3,-1,1,0,0,,7,"[58,191,278,100,65,29,322,125,86,271,136,1,92,20,169,101,278,233,68,29]",-3,-1,1,0,0,,0,110,110,39,1,
,,,,,,,,,,,,,FF,,,,,,,,1.252725,,,,,,,,,,,,,,,,,,,,,,,5d1a69d8f97a18001977e0d7,60a7d7faac3d9818752b15e1,2021-05-21_16h56.09.996,Simcolourproject_2stim_asymm_v5,2020.2.10,Win32,60,60a5f9bf14d0aa2821c4bb84,,,2083,40,-55,1,0,0,response3disk,,4,-7,-2,1,0,0,rectangle,-7,-2,1,0,0,,2,"[58,191,278,100,65,29,322,125,86,271,136,1,92,20,169,101,278,233,68,29]",-7,-2,1,0,0,,0,111,111,54,1,
,,,,,,,,,,,,,FF,,,,,,,,1.185395,,,,,,,,,,,,,,,,,,,,,,,5d1a69d8f97a18001977e0d7,60a7d7faac3d9818752b15e1,2021-05-21_16h56.09.996,Simcolourproject_2stim_asymm_v5,2020.2.10,Win32,60,60a5f9bf14d0aa2821c4bb84,,,2279,75,36,1,0,0,response1disk,,6,0,-7,1,0,0,rectangle,0,-7,1,0,0,,1,"[58,191,278,100,65,29,322,125,86,271,136,1,92,20,169,101,278,233,68,29]",0,-7,1,0,0,,0,112,112,7,1,
,,,,,,,,,,,,,FF,,,,,,,,2.00375,,,,,,,,,,,,,,,,,,,,,,,5d1a69d8f97a18001977e0d7,60a7d7faac3d9818752b15e1,2021-05-21_16h56.09.996,Simcolourproject_2stim_asymm_v5,2020.2.10,Win32,60,60a5f9bf14d0aa2821c4bb84,,,3796,82,-34,1,0,0,response3disk,,5,1,0,1,0,0,rectangle,1,0,1,0,0,,3,"[58,191,278,100,65,29,322,125,86,271,136,1,92,20,169,101,278,233,68,29]",1,0,1,0,0,,0,113,113,37,1,
,,,,,,,,,,,,,FF,,,,,,,,2.05392,,,,,,,,,,,,,,,,,,,,,,,5d1a69d8f97a18001977e0d7,60a7d7faac3d9818752b15e1,2021-05-21_16h56.09.996,Simcolourproject_2stim_asymm_v5,2020.2.10,Win32,60,60a5f9bf14d0aa2821c4bb84,,,1683,51,-71,1,0,0,response3disk,,4,11,-9,1,0,0,rectangle,11,-9,1,0,0,,6,"[58,191,278,100,65,29,322,125,86,271,136,1,92,20,169,101,278,233,68,29]",11,-9,1,0,0,,0,114,114,105,1,
,,,,,,,,,,,,,FF,,,,,,,,2.07058,,,,,,,,,,,,,,,,,,,,,,,5d1a69d8f97a18001977e0d7,60a7d7faac3d9818752b15e1,2021-05-21_16h56.09.996,Simcolourproject_2stim_asymm_v5,2020.2.10,Win32,60,60a5f9bf14d0aa2821c4bb84,,,412,53,38,1,0,0,response1disk,,6,5,-2,1,0,0,rectangle,5,-2,1,0,0,,7,"[58,191,278,100,65,29,322,125,86,271,136,1,92,20,169,101,278,233,68,29]",5,-2,1,0,0,,0,115,115,104,1,
,,,,,,,,,,,,,FF,,,,,,,,2.020685,,,,,,,,,,,,,,,,,,,,,,,5d1a69d8f97a18001977e0d7,60a7d7faac3d9818752b15e1,2021-05-21_16h56.09.996,Simcolourproject_2stim_asymm_v5,2020.2.10,Win32,60,60a5f9bf14d0aa2821c4bb84,,,1518,69,30,1,0,0,response1disk,,6,7,-6,1,0,0,rectangle,7,-6,1,0,0,,5,"[58,191,278,100,65,29,322,125,86,271,136,1,92,20,169,101,278,233,68,29]",7,-6,1,0,0,,0,116,116,72,1,
,,,,,,,,,,,,,FF,,,,,,,,1.20234,,,,,,,,,,,,,,,,,,,,,,,5d1a69d8f97a18001977e0d7,60a7d7faac3d9818752b15e1,2021-05-21_16h56.09.996,Simcolourproject_2stim_asymm_v5,2020.2.10,Win32,60,60a5f9bf14d0aa2821c4bb84,,,767,39,73,1,0,0,response1disk,,7,2,2,1,0,0,rectangle,2,2,1,0,0,,0,"[58,191,278,100,65,29,322,125,86,271,136,1,92,20,169,101,278,233,68,29]",2,2,1,0,0,,0,117,117,98,1,
,,,,,,,,,,,,,FF,,,,,,,,1.302725,,,,,,,,,,,,,,,,,,,,,,,5d1a69d8f97a18001977e0d7,60a7d7faac3d9818752b15e1,2021-05-21_16h56.09.996,Simcolourproject_2stim_asymm_v5,2020.2.10,Win32,60,60a5f9bf14d0aa2821c4bb84,,,1700,71,30,1,0,0,response1disk,,6,14,3,1,0,0,rectangle,14,3,1,0,0,,6,"[58,191,278,100,65,29,322,125,86,271,136,1,92,20,169,101,278,233,68,29]",14,3,1,0,0,,0,118,118,75,1,
,,,,,,,,,,,,,FF,,,,,,,,1.352875,,,,,,,,,,,,,,,,,,,,,,,5d1a69d8f97a18001977e0d7,60a7d7faac3d9818752b15e1,2021-05-21_16h56.09.996,Simcolourproject_2stim_asymm_v5,2020.2.10,Win32,60,60a5f9bf14d0aa2821c4bb84,,,2334,70,-52,1,0,0,response3disk,,5,-3,-6,1,0,0,rectangle,-3,-6,1,0,0,,7,"[58,191,278,100,65,29,322,125,86,271,136,1,92,20,169,101,278,233,68,29]",-3,-6,1,0,0,,0,119,119,103,1,
,,,,,,,,,,,,,FF,,,,,,,,1.068725,,,,,,,,,,,,,,,,,,,,,,,5d1a69d8f97a18001977e0d7,60a7d7faac3d9818752b15e1,2021-05-21_16h56.09.996,Simcolourproject_2stim_asymm_v5,2020.2.10,Win32,60,60a5f9bf14d0aa2821c4bb84,,,633,-72,-36,1,0,0,response5disk,,5,0,-11,1,0,0,rectangle,0,-11,1,0,0,,6,"[58,191,278,100,65,29,322,125,86,271,136,1,92,20,169,101,278,233,68,29]",0,-11,1,0,0,,0,120,120,102,1,
,,,,,,,,,,,,,FF,,,,,,,,2.45505,,,,,,,,,,,,,,,,,,,,,,,5d1a69d8f97a18001977e0d7,60a7d7faac3d9818752b15e1,2021-05-21_16h56.09.996,Simcolourproject_2stim_asymm_v5,2020.2.10,Win32,60,60a5f9bf14d0aa2821c4bb84,,,2343,63,-42,1,0,0,response3disk,,5,4,-7,1,0,0,rectangle,4,-7,1,0,0,,3,"[58,191,278,100,65,29,322,125,86,271,136,1,92,20,169,101,278,233,68,29]",4,-7,1,0,0,,0,121,121,152,1,
,,,,,,,,,,,,,FF,,,,,,,,1.23569,,,,,,,,,,,,,,,,,,,,,,,5d1a69d8f97a18001977e0d7,60a7d7faac3d9818752b15e1,2021-05-21_16h56.09.996,Simcolourproject_2stim_asymm_v5,2020.2.10,Win32,60,60a5f9bf14d0aa2821c4bb84,,,3363,77,-45,1,0,0,response3disk,,5,9,2,1,0,0,rectangle,9,2,1,0,0,,2,"[58,191,278,100,65,29,322,125,86,271,136,1,92,20,169,101,278,233,68,29]",9,2,1,0,0,,0,122,122,127,1,
,,,,,,,,,,,,,FF,,,,,,,,1.45256,,,,,,,,,,,,,,,,,,,,,,,5d1a69d8f97a18001977e0d7,60a7d7faac3d9818752b15e1,2021-05-21_16h56.09.996,Simcolourproject_2stim_asymm_v5,2020.2.10,Win32,60,60a5f9bf14d0aa2821c4bb84,,,3519,-44,-70,1,0,0,response5disk,,3,3,-4,1,0,0,rectangle,3,-4,1,0,0,,3,"[58,191,278,100,65,29,322,125,86,271,136,1,92,20,169,101,278,233,68,29]",3,-4,1,0,0,,0,123,123,10,1,
,,,,,,,,,,,,,FF,,,,,,,,1.202575,,,,,,,,,,,,,,,,,,,,,,,5d1a69d8f97a18001977e0d7,60a7d7faac3d9818752b15e1,2021-05-21_16h56.09.996,Simcolourproject_2stim_asymm_v5,2020.2.10,Win32,60,60a5f9bf14d0aa2821c4bb84,,,3291,-77,-39,1,0,0,response5disk,,3,-5,-7,1,0,0,rectangle,40,-118,1,0,0,response3disk_3,4,"[58,191,278,100,65,29,322,125,86,271,136,1,92,20,169,101,278,233,68,29]",-8,-3,1,0,0,rectangle,0,124,124,112,1,
,,,,,,,,,,,,,FF,,,,,,,,1.068015,,,,,,,,,,,,,,,,,,,,,,,5d1a69d8f97a18001977e0d7,60a7d7faac3d9818752b15e1,2021-05-21_16h56.09.996,Simcolourproject_2stim_asymm_v5,2020.2.10,Win32,60,60a5f9bf14d0aa2821c4bb84,,,4133,69,-32,1,0,0,response3disk,,5,10,-3,1,0,0,rectangle,10,-3,1,0,0,,1,"[58,191,278,100,65,29,322,125,86,271,136,1,92,20,169,101,278,233,68,29]",10,-3,1,0,0,,0,125,125,140,1,
,,,,,,,,,,,,,FF,,,,,,,,1.33574,,,,,,,,,,,,,,,,,,,,,,,5d1a69d8f97a18001977e0d7,60a7d7faac3d9818752b15e1,2021-05-21_16h56.09.996,Simcolourproject_2stim_asymm_v5,2020.2.10,Win32,60,60a5f9bf14d0aa2821c4bb84,,,635,-50,-79,1,0,0,response5disk,,3,-11,-5,1,0,0,rectangle,-11,-5,1,0,0,,2,"[58,191,278,100,65,29,322,125,86,271,136,1,92,20,169,101,278,233,68,29]",-11,-5,1,0,0,,0,126,126,17,1,
,,,,,,,,,,,,,FF,,,,,,,,2.45468,,,,,,,,,,,,,,,,,,,,,,,5d1a69d8f97a18001977e0d7,60a7d7faac3d9818752b15e1,2021-05-21_16h56.09.996,Simcolourproject_2stim_asymm_v5,2020.2.10,Win32,60,60a5f9bf14d0aa2821c4bb84,,,1251,62,-47,1,0,0,response3disk,,5,2,-4,1,0,0,rectangle,2,-4,1,0,0,,6,"[58,191,278,100,65,29,322,125,86,271,136,1,92,20,169,101,278,233,68,29]",2,-4,1,0,0,,0,127,127,147,1,
,,,,,,,,,,,,,FF,,,,,,,,3.05559,,,,,,,,,,,,,,,,,,,,,,,5d1a69d8f97a18001977e0d7,60a7d7faac3d9818752b15e1,2021-05-21_16h56.09.996,Simcolourproject_2stim_asymm_v5,2020.2.10,Win32,60,60a5f9bf14d0aa2821c4bb84,,,2183,74,31,1,0,0,response1disk,,6,15,-3,1,0,0,rectangle,15,-3,1,0,0,,6,"[58,191,278,100,65,29,322,125,86,271,136,1,92,20,169,101,278,233,68,29]",15,-3,1,0,0,,0,128,128,43,1,
,,,,,,,,,,,,,FF,,,,,,,,0.86834,,,,,,,,,,,,,,,,,,,,,,,5d1a69d8f97a18001977e0d7,60a7d7faac3d9818752b15e1,2021-05-21_16h56.09.996,Simcolourproject_2stim_asymm_v5,2020.2.10,Win32,60,60a5f9bf14d0aa2821c4bb84,,,3357,59,-33,1,0,0,response3disk,,5,6,-6,1,0,0,rectangle,6,-6,1,0,0,,2,"[58,191,278,100,65,29,322,125,86,271,136,1,92,20,169,101,278,233,68,29]",6,-6,1,0,0,,0,129,129,31,1,
,,,,,,,,,,,,,FF,,,,,,,,2.90585,,,,,,,,,,,,,,,,,,,,,,,5d1a69d8f97a18001977e0d7,60a7d7faac3d9818752b15e1,2021-05-21_16h56.09.996,Simcolourproject_2stim_asymm_v5,2020.2.10,Win32,60,60a5f9bf14d0aa2821c4bb84,,,2339,66,24,1,0,0,response1disk,,6,3,-6,1,0,0,rectangle,3,-6,1,0,0,,4,"[58,191,278,100,65,29,322,125,86,271,136,1,92,20,169,101,278,233,68,29]",3,-6,1,0,0,,0,130,130,48,1,
,,,,,,,,,,,,,FF,,,,,,,,1.068625,,,,,,,,,,,,,,,,,,,,,,,5d1a69d8f97a18001977e0d7,60a7d7faac3d9818752b15e1,2021-05-21_16h56.09.996,Simcolourproject_2stim_asymm_v5,2020.2.10,Win32,60,60a5f9bf14d0aa2821c4bb84,,,2233,-64,27,1,0,0,response7disk,,1,-11,-4,1,0,0,rectangle,-11,-4,1,0,0,,5,"[58,191,278,100,65,29,322,125,86,271,136,1,92,20,169,101,278,233,68,29]",-11,-4,1,0,0,,0,131,131,134,1,
,,,,,,,,,,,,,FF,,,,,,,,1.152375,,,,,,,,,,,,,,,,,,,,,,,5d1a69d8f97a18001977e0d7,60a7d7faac3d9818752b15e1,2021-05-21_16h56.09.996,Simcolourproject_2stim_asymm_v5,2020.2.10,Win32,60,60a5f9bf14d0aa2821c4bb84,,,1467,27,-67,1,0,0,response3disk,,4,2,-13,1,0,0,rectangle,2,-13,1,0,0,,1,"[58,191,278,100,65,29,322,125,86,271,136,1,92,20,169,101,278,233,68,29]",2,-13,1,0,0,,0,132,132,99,1,
,,,,,,,,,,,,,FF,,,,,,,,1.001865,,,,,,,,,,,,,,,,,,,,,,,5d1a69d8f97a18001977e0d7,60a7d7faac3d9818752b15e1,2021-05-21_16h56.09.996,Simcolourproject_2stim_asymm_v5,2020.2.10,Win32,60,60a5f9bf14d0aa2821c4bb84,,,3383,-59,30,1,0,0,response7disk,,1,-6,-5,1,0,0,rectangle,-6,-5,1,0,0,,0,"[58,191,278,100,65,29,322,125,86,271,136,1,92,20,169,101,278,233,68,29]",-6,-5,1,0,0,,0,133,133,29,1,
,,,,,,,,,,,,,FF,,,,,,,,2.621945,,,,,,,,,,,,,,,,,,,,,,,5d1a69d8f97a18001977e0d7,60a7d7faac3d9818752b15e1,2021-05-21_16h56.09.996,Simcolourproject_2stim_asymm_v5,2020.2.10,Win32,60,60a5f9bf14d0aa2821c4bb84,,,218,76,-47,1,0,0,response3disk,,5,-4,-10,1,0,0,rectangle,-4,-10,1,0,0,,0,"[58,191,278,100,65,29,322,125,86,271,136,1,92,20,169,101,278,233,68,29]",-4,-10,1,0,0,,0,134,134,107,1,
,,,,,,,,,,,,,FF,,,,,,,,0.735685,,,,,,,,,,,,,,,,,,,,,,,5d1a69d8f97a18001977e0d7,60a7d7faac3d9818752b15e1,2021-05-21_16h56.09.996,Simcolourproject_2stim_asymm_v5,2020.2.10,Win32,60,60a5f9bf14d0aa2821c4bb84,,,791,37,-70,1,0,0,response3disk,,4,-2,-7,1,0,0,rectangle,45,-92,1,0,0,response3disk_3,4,"[58,191,278,100,65,29,322,125,86,271,136,1,92,20,169,101,278,233,68,29]",-1,-4,1,0,0,rectangle,0,135,135,46,1,
,,,,,,,,,,,,,FF,,,,,,,,1.202255,,,,,,,,,,,,,,,,,,,,,,,5d1a69d8f97a18001977e0d7,60a7d7faac3d9818752b15e1,2021-05-21_16h56.09.996,Simcolourproject_2stim_asymm_v5,2020.2.10,Win32,60,60a5f9bf14d0aa2821c4bb84,,,2200,72,-38,1,0,0,response3disk,,5,5,-11,1,0,0,rectangle,5,-11,1,0,0,,6,"[58,191,278,100,65,29,322,125,86,271,136,1,92,20,169,101,278,233,68,29]",5,-11,1,0,0,,0,136,136,142,1,
,,,,,,,,,,,,,FF,,,,,,,,0.88495,,,,,,,,,,,,,,,,,,,,,,,5d1a69d8f97a18001977e0d7,60a7d7faac3d9818752b15e1,2021-05-21_16h56.09.996,Simcolourproject_2stim_asymm_v5,2020.2.10,Win32,60,60a5f9bf14d0aa2821c4bb84,,,1017,62,29,1,0,0,response1disk,,6,-6,2,1,0,0,rectangle,-6,2,1,0,0,,2,"[58,191,278,100,65,29,322,125,86,271,136,1,92,20,169,101,278,233,68,29]",-6,2,1,0,0,,0,137,137,57,1,
,,,,,,,,,,,,,FF,,,,,,,,1.436265,,,,,,,,,,,,,,,,,,,,,,,5d1a69d8f97a18001977e0d7,60a7d7faac3d9818752b15e1,2021-05-21_16h56.09.996,Simcolourproject_2stim_asymm_v5,2020.2.10,Win32,60,60a5f9bf14d0aa2821c4bb84,,,439,34,-76,1,0,0,response3disk,,4,-9,-10,1,0,0,rectangle,-9,-10,1,0,0,,2,"[58,191,278,100,65,29,322,125,86,271,136,1,92,20,169,101,278,233,68,29]",-9,-10,1,0,0,,0,138,138,154,1,
,,,,,,,,,,,,,FF,,,,,,,,1.168935,,,,,,,,,,,,,,,,,,,,,,,5d1a69d8f97a18001977e0d7,60a7d7faac3d9818752b15e1,2021-05-21_16h56.09.996,Simcolourproject_2stim_asymm_v5,2020.2.10,Win32,60,60a5f9bf14d0aa2821c4bb84,,,3089,-42,-76,1,0,0,response5disk,,3,2,-7,1,0,0,rectangle,2,-7,1,0,0,,7,"[58,191,278,100,65,29,322,125,86,271,136,1,92,20,169,101,278,233,68,29]",2,-7,1,0,0,,0,139,139,71,1,
,,,,,,,,,,,,,FF,,,,,,,,2.47194,,,,,,,,,,,,,,,,,,,,,,,5d1a69d8f97a18001977e0d7,60a7d7faac3d9818752b15e1,2021-05-21_16h56.09.996,Simcolourproject_2stim_asymm_v5,2020.2.10,Win32,60,60a5f9bf14d0aa2821c4bb84,,,3945,28,-82,1,0,0,response3disk,,4,-11,-8,1,0,0,rectangle,-11,-8,1,0,0,,4,"[58,191,278,100,65,29,322,125,86,271,136,1,92,20,169,101,278,233,68,29]",-11,-8,1,0,0,,0,140,140,125,1,
,,,,,,,,,,,,,FF,,,,,,,,1.18623,,,,,,,,,,,,,,,,,,,,,,,5d1a69d8f97a18001977e0d7,60a7d7faac3d9818752b15e1,2021-05-21_16h56.09.996,Simcolourproject_2stim_asymm_v5,2020.2.10,Win32,60,60a5f9bf14d0aa2821c4bb84,,,2873,63,33,1,0,0,response1disk,,6,11,6,1,0,0,rectangle,11,6,1,0,0,,3,"[58,191,278,100,65,29,322,125,86,271,136,1,92,20,169,101,278,233,68,29]",11,6,1,0,0,,0,141,141,11,1,
,,,,,,,,,,,,,FF,,,,,,,,4.559165,,,,,,,,,,,,,,,,,,,,,,,5d1a69d8f97a18001977e0d7,60a7d7faac3d9818752b15e1,2021-05-21_16h56.09.996,Simcolourproject_2stim_asymm_v5,2020.2.10,Win32,60,60a5f9bf14d0aa2821c4bb84,,,549,34,-96,1,0,0,response3disk,,4,-7,-1,1,0,0,rectangle,-7,-1,1,0,0,,2,"[58,191,278,100,65,29,322,125,86,271,136,1,92,20,169,101,278,233,68,29]",-7,-1,1,0,0,,0,142,142,41,1,
,,,,,,,,,,,,,FF,,,,,,,,1.6199,,,,,,,,,,,,,,,,,,,,,,,5d1a69d8f97a18001977e0d7,60a7d7faac3d9818752b15e1,2021-05-21_16h56.09.996,Simcolourproject_2stim_asymm_v5,2020.2.10,Win32,60,60a5f9bf14d0aa2821c4bb84,,,3210,35,-74,1,0,0,response3disk,,4,-9,-4,1,0,0,rectangle,-9,-4,1,0,0,,2,"[58,191,278,100,65,29,322,125,86,271,136,1,92,20,169,101,278,233,68,29]",-9,-4,1,0,0,,0,143,143,78,1,
,,,,,,,,,,,,,FF,,,,,,,,2.839375,,,,,,,,,,,,,,,,,,,,,,,5d1a69d8f97a18001977e0d7,60a7d7faac3d9818752b15e1,2021-05-21_16h56.09.996,Simcolourproject_2stim_asymm_v5,2020.2.10,Win32,60,60a5f9bf14d0aa2821c4bb84,,,329,73,-39,1,0,0,response3disk,,5,4,2,1,0,0,rectangle,4,2,1,0,0,,3,"[58,191,278,100,65,29,322,125,86,271,136,1,92,20,169,101,278,233,68,29]",4,2,1,0,0,,0,144,144,38,1,
,,,,,,,,,,,,,FF,,,,,,,,1.837145,,,,,,,,,,,,,,,,,,,,,,,5d1a69d8f97a18001977e0d7,60a7d7faac3d9818752b15e1,2021-05-21_16h56.09.996,Simcolourproject_2stim_asymm_v5,2020.2.10,Win32,60,60a5f9bf14d0aa2821c4bb84,,,824,-58,-74,1,0,0,response5disk,,3,-6,-1,1,0,0,rectangle,-6,-1,1,0,0,,1,"[58,191,278,100,65,29,322,125,86,271,136,1,92,20,169,101,278,233,68,29]",-6,-1,1,0,0,,0,145,145,1,1,
,,,,,,,,,,,,,FF,,,,,,,,1.352485,,,,,,,,,,,,,,,,,,,,,,,5d1a69d8f97a18001977e0d7,60a7d7faac3d9818752b15e1,2021-05-21_16h56.09.996,Simcolourproject_2stim_asymm_v5,2020.2.10,Win32,60,60a5f9bf14d0aa2821c4bb84,,,3733,62,-33,1,0,0,response3disk,,5,2,1,1,0,0,rectangle,2,1,1,0,0,,2,"[58,191,278,100,65,29,322,125,86,271,136,1,92,20,169,101,278,233,68,29]",2,1,1,0,0,,0,146,146,115,1,
,,,,,,,,,,,,,FF,,,,,,,,0.951765,,,,,,,,,,,,,,,,,,,,,,,5d1a69d8f97a18001977e0d7,60a7d7faac3d9818752b15e1,2021-05-21_16h56.09.996,Simcolourproject_2stim_asymm_v5,2020.2.10,Win32,60,60a5f9bf14d0aa2821c4bb84,,,886,-71,42,1,0,0,response7disk,,1,2,-4,1,0,0,rectangle,2,-4,1,0,0,,6,"[58,191,278,100,65,29,322,125,86,271,136,1,92,20,169,101,278,233,68,29]",2,-4,1,0,0,,0,147,147,137,1,
,,,,,,,,,,,,,FF,,,,,,,,1.30247,,,,,,,,,,,,,,,,,,,,,,,5d1a69d8f97a18001977e0d7,60a7d7faac3d9818752b15e1,2021-05-21_16h56.09.996,Simcolourproject_2stim_asymm_v5,2020.2.10,Win32,60,60a5f9bf14d0aa2821c4bb84,,,637,-59,-33,1,0,0,response5disk,,1,0,-1,1,0,0,rectangle,0,-1,1,0,0,,5,"[58,191,278,100,65,29,322,125,86,271,136,1,92,20,169,101,278,233,68,29]",0,-1,1,0,0,,0,148,148,58,1,
,,,,,,,,,,,,,FF,,,,,,,,1.152335,,,,,,,,,,,,,,,,,,,,,,,5d1a69d8f97a18001977e0d7,60a7d7faac3d9818752b15e1,2021-05-21_16h56.09.996,Simcolourproject_2stim_asymm_v5,2020.2.10,Win32,60,60a5f9bf14d0aa2821c4bb84,,,192,-36,-53,1,0,0,response5disk,,3,0,0,1,0,0,rectangle,0,0,1,0,0,,3,"[58,191,278,100,65,29,322,125,86,271,136,1,92,20,169,101,278,233,68,29]",0,0,1,0,0,,0,149,149,14,1,
,,,,,,,,,,,,,FF,,,,,,,,1.03552,,,,,,,,,,,,,,,,,,,,,,,5d1a69d8f97a18001977e0d7,60a7d7faac3d9818752b15e1,2021-05-21_16h56.09.996,Simcolourproject_2stim_asymm_v5,2020.2.10,Win32,60,60a5f9bf14d0aa2821c4bb84,,,2081,63,31,1,0,0,response1disk,,6,5,-9,1,0,0,rectangle,5,-9,1,0,0,,7,"[58,191,278,100,65,29,322,125,86,271,136,1,92,20,169,101,278,233,68,29]",5,-9,1,0,0,,0,150,150,47,1,
,,,,,,,,,,,,,FF,,,,,,,,2.02069,,,,,,,,,,,,,,,,,,,,,,,5d1a69d8f97a18001977e0d7,60a7d7faac3d9818752b15e1,2021-05-21_16h56.09.996,Simcolourproject_2stim_asymm_v5,2020.2.10,Win32,60,60a5f9bf14d0aa2821c4bb84,,,3463,72,39,1,0,0,response1disk,,6,5,4,1,0,0,rectangle,5,4,1,0,0,,0,"[58,191,278,100,65,29,322,125,86,271,136,1,92,20,169,101,278,233,68,29]",5,4,1,0,0,,0,151,151,60,1,
,,,,,,,,,,,,,FF,,,,,,,,1.169005,,,,,,,,,,,,,,,,,,,,,,,5d1a69d8f97a18001977e0d7,60a7d7faac3d9818752b15e1,2021-05-21_16h56.09.996,Simcolourproject_2stim_asymm_v5,2020.2.10,Win32,60,60a5f9bf14d0aa2821c4bb84,,,772,86,47,1,0,0,response1disk,,6,6,0,1,0,0,rectangle,6,0,1,0,0,,7,"[58,191,278,100,65,29,322,125,86,271,136,1,92,20,169,101,278,233,68,29]",6,0,1,0,0,,0,152,152,51,1,
,,,,,,,,,,,,,FF,,,,,,,,1.469625,,,,,,,,,,,,,,,,,,,,,,,5d1a69d8f97a18001977e0d7,60a7d7faac3d9818752b15e1,2021-05-21_16h56.09.996,Simcolourproject_2stim_asymm_v5,2020.2.10,Win32,60,60a5f9bf14d0aa2821c4bb84,,,3385,-51,-62,1,0,0,response5disk,,3,-10,-2,1,0,0,rectangle,-10,-2,1,0,0,,2,"[58,191,278,100,65,29,322,125,86,271,136,1,92,20,169,101,278,233,68,29]",-10,-2,1,0,0,,0,153,153,83,1,
,,,,,,,,,,,,,FF,,,,,,,,1.25244,,,,,,,,,,,,,,,,,,,,,,,5d1a69d8f97a18001977e0d7,60a7d7faac3d9818752b15e1,2021-05-21_16h56.09.996,Simcolourproject_2stim_asymm_v5,2020.2.10,Win32,60,60a5f9bf14d0aa2821c4bb84,,,737,62,-34,1,0,0,response3disk,,5,10,-9,1,0,0,rectangle,10,-9,1,0,0,,1,"[58,191,278,100,65,29,322,125,86,271,136,1,92,20,169,101,278,233,68,29]",10,-9,1,0,0,,0,154,154,20,1,
,,,,,,,,,,,,,FF,,,,,,,,2.822575,,,,,,,,,,,,,,,,,,,,,,,5d1a69d8f97a18001977e0d7,60a7d7faac3d9818752b15e1,2021-05-21_16h56.09.996,Simcolourproject_2stim_asymm_v5,2020.2.10,Win32,60,60a5f9bf14d0aa2821c4bb84,,,808,-93,38,1,0,0,response7disk,,1,-7,4,1,0,0,rectangle,-7,4,1,0,0,,3,"[58,191,278,100,65,29,322,125,86,271,136,1,92,20,169,101,278,233,68,29]",-7,4,1,0,0,,0,155,155,40,1,
,,,,,,,,,,,,,FF,,,,,,,,3.27283,,,,,,,,,,,,,,,,,,,,,,,5d1a69d8f97a18001977e0d7,60a7d7faac3d9818752b15e1,2021-05-21_16h56.09.996,Simcolourproject_2stim_asymm_v5,2020.2.10,Win32,60,60a5f9bf14d0aa2821c4bb84,,,654,49,-66,1,0,0,response3disk,,4,-3,2,1,0,0,rectangle,-3,2,1,0,0,,4,"[58,191,278,100,65,29,322,125,86,271,136,1,92,20,169,101,278,233,68,29]",-3,2,1,0,0,,0,156,156,74,1,
,,,,,,,,,,,,,FF,,,,,,,,1.168765,,,,,,,,,,,,,,,,,,,,,,,5d1a69d8f97a18001977e0d7,60a7d7faac3d9818752b15e1,2021-05-21_16h56.09.996,Simcolourproject_2stim_asymm_v5,2020.2.10,Win32,60,60a5f9bf14d0aa2821c4bb84,,,2776,-41,-63,1,0,0,response5disk,,3,-5,-10,1,0,0,rectangle,-5,-10,1,0,0,,0,"[58,191,278,100,65,29,322,125,86,271,136,1,92,20,169,101,278,233,68,29]",-5,-10,1,0,0,,0,157,157,150,1,
,,,,,,,,,,,,,FF,,,,,,,,2.220995,,,,,,,,,,,,,,,,,,,,,,,5d1a69d8f97a18001977e0d7,60a7d7faac3d9818752b15e1,2021-05-21_16h56.09.996,Simcolourproject_2stim_asymm_v5,2020.2.10,Win32,60,60a5f9bf14d0aa2821c4bb84,,,1107,103,-27,1,0,0,response3disk,,5,7,2,1,0,0,rectangle,7,2,1,0,0,,6,"[58,191,278,100,65,29,322,125,86,271,136,1,92,20,169,101,278,233,68,29]",7,2,1,0,0,,0,158,158,22,1,
,,,,,,,,,,,,,FF,,,,,,,,3.47328,,,,,,,,,,,,,,,,,,,,,,,5d1a69d8f97a18001977e0d7,60a7d7faac3d9818752b15e1,2021-05-21_16h56.09.996,Simcolourproject_2stim_asymm_v5,2020.2.10,Win32,60,60a5f9bf14d0aa2821c4bb84,,,3727,76,-25,1,0,0,response3disk,,5,15,6,1,0,0,rectangle,15,6,1,0,0,,1,"[58,191,278,100,65,29,322,125,86,271,136,1,92,20,169,101,278,233,68,29]",15,6,1,0,0,,0,159,159,61,1,
,,,,,,,,,,,,,FF,,,,,,,,0.935295,,,,,,,,,,,,,,,,,,,,,,,5d1a69d8f97a18001977e0d7,60a7d7faac3d9818752b15e1,2021-05-21_16h56.09.996,Simcolourproject_2stim_asymm_v5,2020.2.10,Win32,60,60a5f9bf14d0aa2821c4bb84,,,20,72,45,1,0,0,response1disk,,6,18,3,1,0,0,rectangle,18,3,1,0,0,,0,"[58,191,278,100,65,29,322,125,86,271,136,1,92,20,169,101,278,233,68,29]",18,3,1,0,0,,0,160,160,5,1,
,,,,,,,,,,,,,FF,,,,,,,,1.469735,,,,,,,,,,,,,,,,,,,,,,,5d1a69d8f97a18001977e0d7,60a7d7faac3d9818752b15e1,2021-05-21_16h56.09.996,Simcolourproject_2stim_asymm_v5,2020.2.10,Win32,60,60a5f9bf14d0aa2821c4bb84,,,2838,32,-79,1,0,0,response3disk,,4,6,-11,1,0,0,rectangle,6,-11,1,0,0,,6,"[58,191,278,100,65,29,322,125,86,271,136,1,92,20,169,101,278,233,68,29]",6,-11,1,0,0,,1,0,161,110,1,
,,,,,,,,,,,,,FF,,,,,,,,1.235645,,,,,,,,,,,,,,,,,,,,,,,5d1a69d8f97a18001977e0d7,60a7d7faac3d9818752b15e1,2021-05-21_16h56.09.996,Simcolourproject_2stim_asymm_v5,2020.2.10,Win32,60,60a5f9bf14d0aa2821c4bb84,,,2936,-51,-89,1,0,0,response5disk,,3,5,-1,1,0,0,rectangle,5,-1,1,0,0,,2,"[58,191,278,100,65,29,322,125,86,271,136,1,92,20,169,101,278,233,68,29]",5,-1,1,0,0,,1,1,162,103,1,
,,,,,,,,,,,,,FF,,,,,,,,1.202135,,,,,,,,,,,,,,,,,,,,,,,5d1a69d8f97a18001977e0d7,60a7d7faac3d9818752b15e1,2021-05-21_16h56.09.996,Simcolourproject_2stim_asymm_v5,2020.2.10,Win32,60,60a5f9bf14d0aa2821c4bb84,,,767,49,77,1,0,0,response1disk,,7,12,-2,1,0,0,rectangle,12,-2,1,0,0,,7,"[58,191,278,100,65,29,322,125,86,271,136,1,92,20,169,101,278,233,68,29]",12,-2,1,0,0,,1,2,163,115,1,
,,,,,,,,,,,,,FF,,,,,,,,1.904,,,,,,,,,,,,,,,,,,,,,,,5d1a69d8f97a18001977e0d7,60a7d7faac3d9818752b15e1,2021-05-21_16h56.09.996,Simcolourproject_2stim_asymm_v5,2020.2.10,Win32,60,60a5f9bf14d0aa2821c4bb84,,,652,76,-55,1,0,0,response3disk,,5,3,-10,1,0,0,rectangle,3,-10,1,0,0,,6,"[58,191,278,100,65,29,322,125,86,271,136,1,92,20,169,101,278,233,68,29]",3,-10,1,0,0,,1,3,164,13,1,
,,,,,,,,,,,,,FF,,,,,,,,0.901915,,,,,,,,,,,,,,,,,,,,,,,5d1a69d8f97a18001977e0d7,60a7d7faac3d9818752b15e1,2021-05-21_16h56.09.996,Simcolourproject_2stim_asymm_v5,2020.2.10,Win32,60,60a5f9bf14d0aa2821c4bb84,,,4181,-47,75,1,0,0,response7disk,,0,2,-2,1,0,0,rectangle,2,-2,1,0,0,,6,"[58,191,278,100,65,29,322,125,86,271,136,1,92,20,169,101,278,233,68,29]",2,-2,1,0,0,,1,4,165,5,1,
,,,,,,,,,,,,,FF,,,,,,,,1.98728,,,,,,,,,,,,,,,,,,,,,,,5d1a69d8f97a18001977e0d7,60a7d7faac3d9818752b15e1,2021-05-21_16h56.09.996,Simcolourproject_2stim_asymm_v5,2020.2.10,Win32,60,60a5f9bf14d0aa2821c4bb84,,,4192,61,-39,1,0,0,response3disk,,5,15,-3,1,0,0,rectangle,15,-3,1,0,0,,1,"[58,191,278,100,65,29,322,125,86,271,136,1,92,20,169,101,278,233,68,29]",15,-3,1,0,0,,1,5,166,14,1,
,,,,,,,,,,,,,FF,,,,,,,,1.052105,,,,,,,,,,,,,,,,,,,,,,,5d1a69d8f97a18001977e0d7,60a7d7faac3d9818752b15e1,2021-05-21_16h56.09.996,Simcolourproject_2stim_asymm_v5,2020.2.10,Win32,60,60a5f9bf14d0aa2821c4bb84,,,959,58,-48,1,0,0,response3disk,,5,11,-11,1,0,0,rectangle,11,-11,1,0,0,,3,"[58,191,278,100,65,29,322,125,86,271,136,1,92,20,169,101,278,233,68,29]",11,-11,1,0,0,,1,6,167,151,1,
,,,,,,,,,,,,,FF,,,,,,,,1.436255,,,,,,,,,,,,,,,,,,,,,,,5d1a69d8f97a18001977e0d7,60a7d7faac3d9818752b15e1,2021-05-21_16h56.09.996,Simcolourproject_2stim_asymm_v5,2020.2.10,Win32,60,60a5f9bf14d0aa2821c4bb84,,,930,78,25,1,0,0,response1disk,,6,15,-3,1,0,0,rectangle,-85,52,1,0,0,response7disk_3,1,"[58,191,278,100,65,29,322,125,86,271,136,1,92,20,169,101,278,233,68,29]",5,2,1,0,0,rectangle,1,7,168,54,1,
,,,,,,,,,,,,,FF,,,,,,,,2.258825,,,,,,,,,,,,,,,,,,,,,,,5d1a69d8f97a18001977e0d7,60a7d7faac3d9818752b15e1,2021-05-21_16h56.09.996,Simcolourproject_2stim_asymm_v5,2020.2.10,Win32,60,60a5f9bf14d0aa2821c4bb84,,,2974,81,-38,1,0,0,response3disk,,5,0,-6,1,0,0,rectangle,0,-6,1,0,0,,2,"[58,191,278,100,65,29,322,125,86,271,136,1,92,20,169,101,278,233,68,29]",0,-6,1,0,0,,1,8,169,28,1,
,,,,,,,,,,,,,FF,,,,,,,,4.02473,,,,,,,,,,,,,,,,,,,,,,,5d1a69d8f97a18001977e0d7,60a7d7faac3d9818752b15e1,2021-05-21_16h56.09.996,Simcolourproject_2stim_asymm_v5,2020.2.10,Win32,60,60a5f9bf14d0aa2821c4bb84,,,633,66,-41,1,0,0,response3disk,,5,1,-6,1,0,0,rectangle,1,-6,1,0,0,,2,"[58,191,278,100,65,29,322,125,86,271,136,1,92,20,169,101,278,233,68,29]",1,-6,1,0,0,,1,9,170,132,1,
,,,,,,,,,,,,,FF,,,,,,,,1.641205,,,,,,,,,,,,,,,,,,,,,,,5d1a69d8f97a18001977e0d7,60a7d7faac3d9818752b15e1,2021-05-21_16h56.09.996,Simcolourproject_2stim_asymm_v5,2020.2.10,Win32,60,60a5f9bf14d0aa2821c4bb84,,,784,52,-68,1,0,0,response3disk,,4,6,-12,1,0,0,rectangle,6,-12,1,0,0,,0,"[58,191,278,100,65,29,322,125,86,271,136,1,92,20,169,101,278,233,68,29]",6,-12,1,0,0,,1,10,171,47,1,
,,,,,,,,,,,,,FF,,,,,,,,1.87072,,,,,,,,,,,,,,,,,,,,,,,5d1a69d8f97a18001977e0d7,60a7d7faac3d9818752b15e1,2021-05-21_16h56.09.996,Simcolourproject_2stim_asymm_v5,2020.2.10,Win32,60,60a5f9bf14d0aa2821c4bb84,,,3463,84,-41,1,0,0,response3disk,,5,3,-9,1,0,0,rectangle,3,-9,1,0,0,,6,"[58,191,278,100,65,29,322,125,86,271,136,1,92,20,169,101,278,233,68,29]",3,-9,1,0,0,,1,11,172,106,1,
,,,,,,,,,,,,,FF,,,,,,,,1.549545,,,,,,,,,,,,,,,,,,,,,,,5d1a69d8f97a18001977e0d7,60a7d7faac3d9818752b15e1,2021-05-21_16h56.09.996,Simcolourproject_2stim_asymm_v5,2020.2.10,Win32,60,60a5f9bf14d0aa2821c4bb84,,,737,33,-77,1,0,0,response3disk,,4,-9,-17,1,0,0,rectangle,-9,-17,1,0,0,,4,"[58,191,278,100,65,29,322,125,86,271,136,1,92,20,169,101,278,233,68,29]",-9,-17,1,0,0,,1,12,173,125,1,
,,,,,,,,,,,,,FF,,,,,,,,1.25382,,,,,,,,,,,,,,,,,,,,,,,5d1a69d8f97a18001977e0d7,60a7d7faac3d9818752b15e1,2021-05-21_16h56.09.996,Simcolourproject_2stim_asymm_v5,2020.2.10,Win32,60,60a5f9bf14d0aa2821c4bb84,,,3138,-46,-68,1,0,0,response5disk,,3,-12,-9,1,0,0,rectangle,-12,-9,1,0,0,,4,"[58,191,278,100,65,29,322,125,86,271,136,1,92,20,169,101,278,233,68,29]",-12,-9,1,0,0,,1,13,174,112,1,
,,,,,,,,,,,,,FF,,,,,,,,0.93534,,,,,,,,,,,,,,,,,,,,,,,5d1a69d8f97a18001977e0d7,60a7d7faac3d9818752b15e1,2021-05-21_16h56.09.996,Simcolourproject_2stim_asymm_v5,2020.2.10,Win32,60,60a5f9bf14d0aa2821c4bb84,,,886,-63,37,1,0,0,response7disk,,1,-3,-13,1,0,0,rectangle,-3,-13,1,0,0,,1,"[58,191,278,100,65,29,322,125,86,271,136,1,92,20,169,101,278,233,68,29]",-3,-13,1,0,0,,1,14,175,42,1,
,,,,,,,,,,,,,FF,,,,,,,,3.00651,,,,,,,,,,,,,,,,,,,,,,,5d1a69d8f97a18001977e0d7,60a7d7faac3d9818752b15e1,2021-05-21_16h56.09.996,Simcolourproject_2stim_asymm_v5,2020.2.10,Win32,60,60a5f9bf14d0aa2821c4bb84,,,2083,33,-68,1,0,0,response3disk,,4,3,-4,1,0,0,rectangle,3,-4,1,0,0,,5,"[58,191,278,100,65,29,322,125,86,271,136,1,92,20,169,101,278,233,68,29]",3,-4,1,0,0,,1,15,176,90,1,
,,,,,,,,,,,,,FF,,,,,,,,0.951705,,,,,,,,,,,,,,,,,,,,,,,5d1a69d8f97a18001977e0d7,60a7d7faac3d9818752b15e1,2021-05-21_16h56.09.996,Simcolourproject_2stim_asymm_v5,2020.2.10,Win32,60,60a5f9bf14d0aa2821c4bb84,,,1158,72,-41,1,0,0,response3disk,,5,2,-1,1,0,0,rectangle,2,-1,1,0,0,,5,"[58,191,278,100,65,29,322,125,86,271,136,1,92,20,169,101,278,233,68,29]",2,-1,1,0,0,,1,16,177,123,1,
,,,,,,,,,,,,,FF,,,,,,,,1.273865,,,,,,,,,,,,,,,,,,,,,,,5d1a69d8f97a18001977e0d7,60a7d7faac3d9818752b15e1,2021-05-21_16h56.09.996,Simcolourproject_2stim_asymm_v5,2020.2.10,Win32,60,60a5f9bf14d0aa2821c4bb84,,,1336,87,30,1,0,0,response1disk,,6,17,0,1,0,0,rectangle,17,0,1,0,0,,0,"[58,191,278,100,65,29,322,125,86,271,136,1,92,20,169,101,278,233,68,29]",17,0,1,0,0,,1,17,178,56,1,
,,,,,,,,,,,,,FF,,,,,,,,1.37296,,,,,,,,,,,,,,,,,,,,,,,5d1a69d8f97a18001977e0d7,60a7d7faac3d9818752b15e1,2021-05-21_16h56.09.996,Simcolourproject_2stim_asymm_v5,2020.2.10,Win32,60,60a5f9bf14d0aa2821c4bb84,,,3589,64,27,1,0,0,response1disk,,6,14,-5,1,0,0,rectangle,14,-5,1,0,0,,7,"[58,191,278,100,65,29,322,125,86,271,136,1,92,20,169,101,278,233,68,29]",14,-5,1,0,0,,1,18,179,34,1,
,,,,,,,,,,,,,FF,,,,,,,,1.089815,,,,,,,,,,,,,,,,,,,,,,,5d1a69d8f97a18001977e0d7,60a7d7faac3d9818752b15e1,2021-05-21_16h56.09.996,Simcolourproject_2stim_asymm_v5,2020.2.10,Win32,60,60a5f9bf14d0aa2821c4bb84,,,824,33,-69,1,0,0,response3disk,,4,3,-6,1,0,0,rectangle,3,-6,1,0,0,,2,"[58,191,278,100,65,29,322,125,86,271,136,1,92,20,169,101,278,233,68,29]",3,-6,1,0,0,,1,19,180,83,1,
,,,,,,,,,,,,,FF,,,,,,,,1.93343,,,,,,,,,,,,,,,,,,,,,,,5d1a69d8f97a18001977e0d7,60a7d7faac3d9818752b15e1,2021-05-21_16h56.09.996,Simcolourproject_2stim_asymm_v5,2020.2.10,Win32,60,60a5f9bf14d0aa2821c4bb84,,,2050,80,-28,1,0,0,response3disk,,5,7,-7,1,0,0,rectangle,7,-7,1,0,0,,6,"[58,191,278,100,65,29,322,125,86,271,136,1,92,20,169,101,278,233,68,29]",7,-7,1,0,0,,1,20,181,104,1,
,,,,,,,,,,,,,FF,,,,,,,,2.8353,,,,,,,,,,,,,,,,,,,,,,,5d1a69d8f97a18001977e0d7,60a7d7faac3d9818752b15e1,2021-05-21_16h56.09.996,Simcolourproject_2stim_asymm_v5,2020.2.10,Win32,60,60a5f9bf14d0aa2821c4bb84,,,58,101,-37,1,0,0,response3disk,,5,10,-4,1,0,0,rectangle,10,-4,1,0,0,,6,"[58,191,278,100,65,29,322,125,86,271,136,1,92,20,169,101,278,233,68,29]",10,-4,1,0,0,,1,21,182,15,1,
,,,,,,,,,,,,,FF,,,,,,,,1.62442,,,,,,,,,,,,,,,,,,,,,,,5d1a69d8f97a18001977e0d7,60a7d7faac3d9818752b15e1,2021-05-21_16h56.09.996,Simcolourproject_2stim_asymm_v5,2020.2.10,Win32,60,60a5f9bf14d0aa2821c4bb84,,,3291,-34,-88,1,0,0,response5disk,,3,-1,-8,1,0,0,rectangle,-1,-8,1,0,0,,2,"[58,191,278,100,65,29,322,125,86,271,136,1,92,20,169,101,278,233,68,29]",-1,-8,1,0,0,,1,22,183,70,1,
,,,,,,,,,,,,,FF,,,,,,,,1.0064,,,,,,,,,,,,,,,,,,,,,,,5d1a69d8f97a18001977e0d7,60a7d7faac3d9818752b15e1,2021-05-21_16h56.09.996,Simcolourproject_2stim_asymm_v5,2020.2.10,Win32,60,60a5f9bf14d0aa2821c4bb84,,,3727,82,-43,1,0,0,response3disk,,5,7,-11,1,0,0,rectangle,7,-11,1,0,0,,1,"[58,191,278,100,65,29,322,125,86,271,136,1,92,20,169,101,278,233,68,29]",7,-11,1,0,0,,1,23,184,39,1,
,,,,,,,,,,,,,FF,,,,,,,,1.5241,,,,,,,,,,,,,,,,,,,,,,,5d1a69d8f97a18001977e0d7,60a7d7faac3d9818752b15e1,2021-05-21_16h56.09.996,Simcolourproject_2stim_asymm_v5,2020.2.10,Win32,60,60a5f9bf14d0aa2821c4bb84,,,3519,36,-63,1,0,0,response3disk,,4,2,1,1,0,0,rectangle,2,1,1,0,0,,2,"[58,191,278,100,65,29,322,125,86,271,136,1,92,20,169,101,278,233,68,29]",2,1,1,0,0,,1,24,185,43,1,
,,,,,,,,,,,,,FF,,,,,,,,2.438145,,,,,,,,,,,,,,,,,,,,,,,5d1a69d8f97a18001977e0d7,60a7d7faac3d9818752b15e1,2021-05-21_16h56.09.996,Simcolourproject_2stim_asymm_v5,2020.2.10,Win32,60,60a5f9bf14d0aa2821c4bb84,,,3145,90,29,1,0,0,response1disk,,6,1,-1,1,0,0,rectangle,1,-1,1,0,0,,1,"[58,191,278,100,65,29,322,125,86,271,136,1,92,20,169,101,278,233,68,29]",1,-1,1,0,0,,1,25,186,154,1,
,,,,,,,,,,,,,FF,,,,,,,,0.80153,,,,,,,,,,,,,,,,,,,,,,,5d1a69d8f97a18001977e0d7,60a7d7faac3d9818752b15e1,2021-05-21_16h56.09.996,Simcolourproject_2stim_asymm_v5,2020.2.10,Win32,60,60a5f9bf14d0aa2821c4bb84,,,1366,80,38,1,0,0,response1disk,,6,12,3,1,0,0,rectangle,12,3,1,0,0,,5,"[58,191,278,100,65,29,322,125,86,271,136,1,92,20,169,101,278,233,68,29]",12,3,1,0,0,,1,26,187,63,1,
,,,,,,,,,,,,,FF,,,,,,,,1.78316,,,,,,,,,,,,,,,,,,,,,,,5d1a69d8f97a18001977e0d7,60a7d7faac3d9818752b15e1,2021-05-21_16h56.09.996,Simcolourproject_2stim_asymm_v5,2020.2.10,Win32,60,60a5f9bf14d0aa2821c4bb84,,,549,33,-95,1,0,0,response3disk,,4,-6,-6,1,0,0,rectangle,-6,-6,1,0,0,,2,"[58,191,278,100,65,29,322,125,86,271,136,1,92,20,169,101,278,233,68,29]",-6,-6,1,0,0,,1,27,188,100,1,
,,,,,,,,,,,,,FF,,,,,,,,1.156295,,,,,,,,,,,,,,,,,,,,,,,5d1a69d8f97a18001977e0d7,60a7d7faac3d9818752b15e1,2021-05-21_16h56.09.996,Simcolourproject_2stim_asymm_v5,2020.2.10,Win32,60,60a5f9bf14d0aa2821c4bb84,,,3385,-42,-70,1,0,0,response5disk,,3,-5,-16,1,0,0,rectangle,-5,-16,1,0,0,,5,"[58,191,278,100,65,29,322,125,86,271,136,1,92,20,169,101,278,233,68,29]",-5,-16,1,0,0,,1,28,189,3,1,
,,,,,,,,,,,,,FF,,,,,,,,1.25237,,,,,,,,,,,,,,,,,,,,,,,5d1a69d8f97a18001977e0d7,60a7d7faac3d9818752b15e1,2021-05-21_16h56.09.996,Simcolourproject_2stim_asymm_v5,2020.2.10,Win32,60,60a5f9bf14d0aa2821c4bb84,,,788,73,-41,1,0,0,response3disk,,5,9,-11,1,0,0,rectangle,-46,-101,1,0,0,response5disk_3,3,"[58,191,278,100,65,29,322,125,86,271,136,1,92,20,169,101,278,233,68,29]",0,-4,1,0,0,rectangle,1,29,190,19,1,
,,,,,,,,,,,,,FF,,,,,,,,1.51998,,,,,,,,,,,,,,,,,,,,,,,5d1a69d8f97a18001977e0d7,60a7d7faac3d9818752b15e1,2021-05-21_16h56.09.996,Simcolourproject_2stim_asymm_v5,2020.2.10,Win32,60,60a5f9bf14d0aa2821c4bb84,,,3798,40,-68,1,0,0,response3disk,,4,5,-7,1,0,0,rectangle,5,-7,1,0,0,,1,"[58,191,278,100,65,29,322,125,86,271,136,1,92,20,169,101,278,233,68,29]",5,-7,1,0,0,,1,30,191,80,1,
,,,,,,,,,,,,,FF,,,,,,,,1.11887,,,,,,,,,,,,,,,,,,,,,,,5d1a69d8f97a18001977e0d7,60a7d7faac3d9818752b15e1,2021-05-21_16h56.09.996,Simcolourproject_2stim_asymm_v5,2020.2.10,Win32,60,60a5f9bf14d0aa2821c4bb84,,,2437,86,26,1,0,0,response1disk,,6,7,-8,1,0,0,rectangle,7,-8,1,0,0,,3,"[58,191,278,100,65,29,322,125,86,271,136,1,92,20,169,101,278,233,68,29]",7,-8,1,0,0,,1,31,192,77,1,
,,,,,,,,,,,,,FF,,,,,,,,1.11895,,,,,,,,,,,,,,,,,,,,,,,5d1a69d8f97a18001977e0d7,60a7d7faac3d9818752b15e1,2021-05-21_16h56.09.996,Simcolourproject_2stim_asymm_v5,2020.2.10,Win32,60,60a5f9bf14d0aa2821c4bb84,,,1201,-39,-71,1,0,0,response5disk,,3,-6,-5,1,0,0,rectangle,-6,-5,1,0,0,,0,"[58,191,278,100,65,29,322,125,86,271,136,1,92,20,169,101,278,233,68,29]",-6,-5,1,0,0,,1,32,193,142,1,
,,,,,,,,,,,,,FF,,,,,,,,3.13948,,,,,,,,,,,,,,,,,,,,,,,5d1a69d8f97a18001977e0d7,60a7d7faac3d9818752b15e1,2021-05-21_16h56.09.996,Simcolourproject_2stim_asymm_v5,2020.2.10,Win32,60,60a5f9bf14d0aa2821c4bb84,,,408,76,-31,1,0,0,response3disk,,5,12,-2,1,0,0,rectangle,12,-2,1,0,0,,7,"[58,191,278,100,65,29,322,125,86,271,136,1,92,20,169,101,278,233,68,29]",12,-2,1,0,0,,1,33,194,60,1,
,,,,,,,,,,,,,FF,,,,,,,,1.453075,,,,,,,,,,,,,,,,,,,,,,,5d1a69d8f97a18001977e0d7,60a7d7faac3d9818752b15e1,2021-05-21_16h56.09.996,Simcolourproject_2stim_asymm_v5,2020.2.10,Win32,60,60a5f9bf14d0aa2821c4bb84,,,969,-82,29,1,0,0,response7disk,,1,-6,-5,1,0,0,rectangle,-6,-5,1,0,0,,3,"[58,191,278,100,65,29,322,125,86,271,136,1,92,20,169,101,278,233,68,29]",-6,-5,1,0,0,,1,34,195,96,1,
,,,,,,,,,,,,,FF,,,,,,,,2.27139,,,,,,,,,,,,,,,,,,,,,,,5d1a69d8f97a18001977e0d7,60a7d7faac3d9818752b15e1,2021-05-21_16h56.09.996,Simcolourproject_2stim_asymm_v5,2020.2.10,Win32,60,60a5f9bf14d0aa2821c4bb84,,,2873,65,-36,1,0,0,response3disk,,5,-7,-5,1,0,0,rectangle,-7,-5,1,0,0,,4,"[58,191,278,100,65,29,322,125,86,271,136,1,92,20,169,101,278,233,68,29]",-7,-5,1,0,0,,1,35,196,32,1,
,,,,,,,,,,,,,FF,,,,,,,,0.885075,,,,,,,,,,,,,,,,,,,,,,,5d1a69d8f97a18001977e0d7,60a7d7faac3d9818752b15e1,2021-05-21_16h56.09.996,Simcolourproject_2stim_asymm_v5,2020.2.10,Win32,60,60a5f9bf14d0aa2821c4bb84,,,208,67,-27,1,0,0,response3disk,,5,5,3,1,0,0,rectangle,5,3,1,0,0,,7,"[58,191,278,100,65,29,322,125,86,271,136,1,92,20,169,101,278,233,68,29]",5,3,1,0,0,,1,36,197,107,1,
,,,,,,,,,,,,,FF,,,,,,,,0.98676,,,,,,,,,,,,,,,,,,,,,,,5d1a69d8f97a18001977e0d7,60a7d7faac3d9818752b15e1,2021-05-21_16h56.09.996,Simcolourproject_2stim_asymm_v5,2020.2.10,Win32,60,60a5f9bf14d0aa2821c4bb84,,,2612,27,-59,1,0,0,response3disk,,4,-5,-7,1,0,0,rectangle,-5,-7,1,0,0,,0,"[58,191,278,100,65,29,322,125,86,271,136,1,92,20,169,101,278,233,68,29]",-5,-7,1,0,0,,1,37,198,105,1,
,,,,,,,,,,,,,FF,,,,,,,,1.385955,,,,,,,,,,,,,,,,,,,,,,,5d1a69d8f97a18001977e0d7,60a7d7faac3d9818752b15e1,2021-05-21_16h56.09.996,Simcolourproject_2stim_asymm_v5,2020.2.10,Win32,60,60a5f9bf14d0aa2821c4bb84,,,2174,38,-67,1,0,0,response3disk,,4,6,-7,1,0,0,rectangle,6,-7,1,0,0,,7,"[58,191,278,100,65,29,322,125,86,271,136,1,92,20,169,101,278,233,68,29]",6,-7,1,0,0,,1,38,199,139,1,
,,,,,,,,,,,,,FF,,,,,,,,0.952135,,,,,,,,,,,,,,,,,,,,,,,5d1a69d8f97a18001977e0d7,60a7d7faac3d9818752b15e1,2021-05-21_16h56.09.996,Simcolourproject_2stim_asymm_v5,2020.2.10,Win32,60,60a5f9bf14d0aa2821c4bb84,,,2933,35,-65,1,0,0,response3disk,,4,9,-11,1,0,0,rectangle,9,-11,1,0,0,,6,"[58,191,278,100,65,29,322,125,86,271,136,1,92,20,169,101,278,233,68,29]",9,-11,1,0,0,,1,39,200,158,1,
,,,,,,,,,,,,,FF,,,,,,,,1.70319,,,,,,,,,,,,,,,,,,,,,,,5d1a69d8f97a18001977e0d7,60a7d7faac3d9818752b15e1,2021-05-21_16h56.09.996,Simcolourproject_2stim_asymm_v5,2020.2.10,Win32,60,60a5f9bf14d0aa2821c4bb84,,,4209,81,-37,1,0,0,response3disk,,5,6,-1,1,0,0,rectangle,6,-1,1,0,0,,3,"[58,191,278,100,65,29,322,125,86,271,136,1,92,20,169,101,278,233,68,29]",6,-1,1,0,0,,1,40,201,89,1,
,,,,,,,,,,,,,FF,,,,,,,,1.536975,,,,,,,,,,,,,,,,,,,,,,,5d1a69d8f97a18001977e0d7,60a7d7faac3d9818752b15e1,2021-05-21_16h56.09.996,Simcolourproject_2stim_asymm_v5,2020.2.10,Win32,60,60a5f9bf14d0aa2821c4bb84,,,1700,75,53,1,0,0,response1disk,,6,7,1,1,0,0,rectangle,7,1,1,0,0,,3,"[58,191,278,100,65,29,322,125,86,271,136,1,92,20,169,101,278,233,68,29]",7,1,1,0,0,,1,41,202,23,1,
,,,,,,,,,,,,,FF,,,,,,,,1.08562,,,,,,,,,,,,,,,,,,,,,,,5d1a69d8f97a18001977e0d7,60a7d7faac3d9818752b15e1,2021-05-21_16h56.09.996,Simcolourproject_2stim_asymm_v5,2020.2.10,Win32,60,60a5f9bf14d0aa2821c4bb84,,,3548,31,-66,1,0,0,response3disk,,4,1,-2,1,0,0,rectangle,1,-2,1,0,0,,4,"[58,191,278,100,65,29,322,125,86,271,136,1,92,20,169,101,278,233,68,29]",1,-2,1,0,0,,1,42,203,65,1,
,,,,,,,,,,,,,FF,,,,,,,,0.9521,,,,,,,,,,,,,,,,,,,,,,,5d1a69d8f97a18001977e0d7,60a7d7faac3d9818752b15e1,2021-05-21_16h56.09.996,Simcolourproject_2stim_asymm_v5,2020.2.10,Win32,60,60a5f9bf14d0aa2821c4bb84,,,2441,87,-39,1,0,0,response3disk,,5,7,4,1,0,0,rectangle,7,4,1,0,0,,1,"[58,191,278,100,65,29,322,125,86,271,136,1,92,20,169,101,278,233,68,29]",7,4,1,0,0,,1,43,204,66,1,
,,,,,,,,,,,,,FF,,,,,,,,1.219245,,,,,,,,,,,,,,,,,,,,,,,5d1a69d8f97a18001977e0d7,60a7d7faac3d9818752b15e1,2021-05-21_16h56.09.996,Simcolourproject_2stim_asymm_v5,2020.2.10,Win32,60,60a5f9bf14d0aa2821c4bb84,,,1388,39,-62,1,0,0,response3disk,,4,5,-7,1,0,0,rectangle,5,-7,1,0,0,,4,"[58,191,278,100,65,29,322,125,86,271,136,1,92,20,169,101,278,233,68,29]",5,-7,1,0,0,,1,44,205,37,1,
,,,,,,,,,,,,,FF,,,,,,,,2.72263,,,,,,,,,,,,,,,,,,,,,,,5d1a69d8f97a18001977e0d7,60a7d7faac3d9818752b15e1,2021-05-21_16h56.09.996,Simcolourproject_2stim_asymm_v5,2020.2.10,Win32,60,60a5f9bf14d0aa2821c4bb84,,,3092,41,-63,1,0,0,response3disk,,4,0,-9,1,0,0,rectangle,0,-9,1,0,0,,1,"[58,191,278,100,65,29,322,125,86,271,136,1,92,20,169,101,278,233,68,29]",0,-9,1,0,0,,1,45,206,88,1,
,,,,,,,,,,,,,FF,,,,,,,,0.952265,,,,,,,,,,,,,,,,,,,,,,,5d1a69d8f97a18001977e0d7,60a7d7faac3d9818752b15e1,2021-05-21_16h56.09.996,Simcolourproject_2stim_asymm_v5,2020.2.10,Win32,60,60a5f9bf14d0aa2821c4bb84,,,3357,101,-42,1,0,0,response3disk,,5,3,-11,1,0,0,rectangle,3,-11,1,0,0,,1,"[58,191,278,100,65,29,322,125,86,271,136,1,92,20,169,101,278,233,68,29]",3,-11,1,0,0,,1,46,207,156,1,
,,,,,,,,,,,,,FF,,,,,,,,2.137685,,,,,,,,,,,,,,,,,,,,,,,5d1a69d8f97a18001977e0d7,60a7d7faac3d9818752b15e1,2021-05-21_16h56.09.996,Simcolourproject_2stim_asymm_v5,2020.2.10,Win32,60,60a5f9bf14d0aa2821c4bb84,,,428,100,-35,1,0,0,response3disk,,5,-6,-11,1,0,0,rectangle,-6,-11,1,0,0,,6,"[58,191,278,100,65,29,322,125,86,271,136,1,92,20,169,101,278,233,68,29]",-6,-11,1,0,0,,1,47,208,52,1,
,,,,,,,,,,,,,FF,,,,,,,,3.536925,,,,,,,,,,,,,,,,,,,,,,,5d1a69d8f97a18001977e0d7,60a7d7faac3d9818752b15e1,2021-05-21_16h56.09.996,Simcolourproject_2stim_asymm_v5,2020.2.10,Win32,60,60a5f9bf14d0aa2821c4bb84,,,1975,68,-31,1,0,0,response3disk,,5,6,-7,1,0,0,rectangle,6,-7,1,0,0,,1,"[58,191,278,100,65,29,322,125,86,271,136,1,92,20,169,101,278,233,68,29]",6,-7,1,0,0,,1,48,209,118,1,
,,,,,,,,,,,,,FF,,,,,,,,1.03306,,,,,,,,,,,,,,,,,,,,,,,5d1a69d8f97a18001977e0d7,60a7d7faac3d9818752b15e1,2021-05-21_16h56.09.996,Simcolourproject_2stim_asymm_v5,2020.2.10,Win32,60,60a5f9bf14d0aa2821c4bb84,,,1107,70,-32,1,0,0,response3disk,,5,-5,4,1,0,0,rectangle,-5,4,1,0,0,,1,"[58,191,278,100,65,29,322,125,86,271,136,1,92,20,169,101,278,233,68,29]",-5,4,1,0,0,,1,49,210,33,1,
,,,,,,,,,,,,,FF,,,,,,,,1.069495,,,,,,,,,,,,,,,,,,,,,,,5d1a69d8f97a18001977e0d7,60a7d7faac3d9818752b15e1,2021-05-21_16h56.09.996,Simcolourproject_2stim_asymm_v5,2020.2.10,Win32,60,60a5f9bf14d0aa2821c4bb84,,,20,75,39,1,0,0,response1disk,,6,11,-2,1,0,0,rectangle,11,-2,1,0,0,,4,"[58,191,278,100,65,29,322,125,86,271,136,1,92,20,169,101,278,233,68,29]",11,-2,1,0,0,,1,50,211,150,1,
,,,,,,,,,,,,,FF,,,,,,,,1.090385,,,,,,,,,,,,,,,,,,,,,,,5d1a69d8f97a18001977e0d7,60a7d7faac3d9818752b15e1,2021-05-21_16h56.09.996,Simcolourproject_2stim_asymm_v5,2020.2.10,Win32,60,60a5f9bf14d0aa2821c4bb84,,,266,32,-66,1,0,0,response3disk,,4,-9,-5,1,0,0,rectangle,-9,-5,1,0,0,,1,"[58,191,278,100,65,29,322,125,86,271,136,1,92,20,169,101,278,233,68,29]",-9,-5,1,0,0,,1,51,212,50,1,
,,,,,,,,,,,,,FF,,,,,,,,4.693445,,,,,,,,,,,,,,,,,,,,,,,5d1a69d8f97a18001977e0d7,60a7d7faac3d9818752b15e1,2021-05-21_16h56.09.996,Simcolourproject_2stim_asymm_v5,2020.2.10,Win32,60,60a5f9bf14d0aa2821c4bb84,,,3440,90,-40,1,0,0,response3disk,,5,15,-8,1,0,0,rectangle,15,-8,1,0,0,,0,"[58,191,278,100,65,29,322,125,86,271,136,1,92,20,169,101,278,233,68,29]",15,-8,1,0,0,,1,52,213,1,1,
,,,,,,,,,,,,,FF,,,,,,,,1.533045,,,,,,,,,,,,,,,,,,,,,,,5d1a69d8f97a18001977e0d7,60a7d7faac3d9818752b15e1,2021-05-21_16h56.09.996,Simcolourproject_2stim_asymm_v5,2020.2.10,Win32,60,60a5f9bf14d0aa2821c4bb84,,,470,69,-40,1,0,0,response3disk,,5,-3,-9,1,0,0,rectangle,-3,-9,1,0,0,,0,"[58,191,278,100,65,29,322,125,86,271,136,1,92,20,169,101,278,233,68,29]",-3,-9,1,0,0,,1,53,214,91,1,
,,,,,,,,,,,,,FF,,,,,,,,1.653905,,,,,,,,,,,,,,,,,,,,,,,5d1a69d8f97a18001977e0d7,60a7d7faac3d9818752b15e1,2021-05-21_16h56.09.996,Simcolourproject_2stim_asymm_v5,2020.2.10,Win32,60,60a5f9bf14d0aa2821c4bb84,,,2279,90,-31,1,0,0,response3disk,,5,25,-6,1,0,0,rectangle,25,-6,1,0,0,,4,"[58,191,278,100,65,29,322,125,86,271,136,1,92,20,169,101,278,233,68,29]",25,-6,1,0,0,,1,54,215,21,1,
,,,,,,,,,,,,,FF,,,,,,,,1.00629,,,,,,,,,,,,,,,,,,,,,,,5d1a69d8f97a18001977e0d7,60a7d7faac3d9818752b15e1,2021-05-21_16h56.09.996,Simcolourproject_2stim_asymm_v5,2020.2.10,Win32,60,60a5f9bf14d0aa2821c4bb84,,,1325,77,40,1,0,0,response1disk,,6,18,0,1,0,0,rectangle,18,0,1,0,0,,3,"[58,191,278,100,65,29,322,125,86,271,136,1,92,20,169,101,278,233,68,29]",18,0,1,0,0,,1,55,216,68,1,
,,,,,,,,,,,,,FF,,,,,,,,1.10245,,,,,,,,,,,,,,,,,,,,,,,5d1a69d8f97a18001977e0d7,60a7d7faac3d9818752b15e1,2021-05-21_16h56.09.996,Simcolourproject_2stim_asymm_v5,2020.2.10,Win32,60,60a5f9bf14d0aa2821c4bb84,,,2862,65,-47,1,0,0,response3disk,,5,2,-9,1,0,0,rectangle,2,-9,1,0,0,,2,"[58,191,278,100,65,29,322,125,86,271,136,1,92,20,169,101,278,233,68,29]",2,-9,1,0,0,,1,56,217,61,1,
,,,,,,,,,,,,,FF,,,,,,,,0.872905,,,,,,,,,,,,,,,,,,,,,,,5d1a69d8f97a18001977e0d7,60a7d7faac3d9818752b15e1,2021-05-21_16h56.09.996,Simcolourproject_2stim_asymm_v5,2020.2.10,Win32,60,60a5f9bf14d0aa2821c4bb84,,,2897,36,-65,1,0,0,response3disk,,4,-1,-10,1,0,0,rectangle,-1,-10,1,0,0,,5,"[58,191,278,100,65,29,322,125,86,271,136,1,92,20,169,101,278,233,68,29]",-1,-10,1,0,0,,1,57,218,127,1,
,,,,,,,,,,,,,FF,,,,,,,,2.38802,,,,,,,,,,,,,,,,,,,,,,,5d1a69d8f97a18001977e0d7,60a7d7faac3d9818752b15e1,2021-05-21_16h56.09.996,Simcolourproject_2stim_asymm_v5,2020.2.10,Win32,60,60a5f9bf14d0aa2821c4bb84,,,2708,73,-32,1,0,0,response3disk,,5,9,-4,1,0,0,rectangle,9,-4,1,0,0,,6,"[58,191,278,100,65,29,322,125,86,271,136,1,92,20,169,101,278,233,68,29]",9,-4,1,0,0,,1,58,219,40,1,
,,,,,,,,,,,,,FF,,,,,,,,1.20303,,,,,,,,,,,,,,,,,,,,,,,5d1a69d8f97a18001977e0d7,60a7d7faac3d9818752b15e1,2021-05-21_16h56.09.996,Simcolourproject_2stim_asymm_v5,2020.2.10,Win32,60,60a5f9bf14d0aa2821c4bb84,,,2200,76,23,1,0,0,response1disk,,6,7,-7,1,0,0,rectangle,7,-7,1,0,0,,4,"[58,191,278,100,65,29,322,125,86,271,136,1,92,20,169,101,278,233,68,29]",7,-7,1,0,0,,1,59,220,84,1,
,,,,,,,,,,,,,FF,,,,,,,,1.41976,,,,,,,,,,,,,,,,,,,,,,,5d1a69d8f97a18001977e0d7,60a7d7faac3d9818752b15e1,2021-05-21_16h56.09.996,Simcolourproject_2stim_asymm_v5,2020.2.10,Win32,60,60a5f9bf14d0aa2821c4bb84,,,3383,-85,-36,1,0,0,response5disk,,6,-10,-2,1,0,0,rectangle,-10,-2,1,0,0,,5,"[58,191,278,100,65,29,322,125,86,271,136,1,92,20,169,101,278,233,68,29]",-10,-2,1,0,0,,1,60,221,102,1,
,,,,,,,,,,,,,FF,,,,,,,,1.71681,,,,,,,,,,,,,,,,,,,,,,,5d1a69d8f97a18001977e0d7,60a7d7faac3d9818752b15e1,2021-05-21_16h56.09.996,Simcolourproject_2stim_asymm_v5,2020.2.10,Win32,60,60a5f9bf14d0aa2821c4bb84,,,2837,24,-90,1,0,0,response3disk,,4,-2,-6,1,0,0,rectangle,-2,-6,1,0,0,,2,"[58,191,278,100,65,29,322,125,86,271,136,1,92,20,169,101,278,233,68,29]",-2,-6,1,0,0,,1,61,222,26,1,
,,,,,,,,,,,,,FF,,,,,,,,3.09409,,,,,,,,,,,,,,,,,,,,,,,5d1a69d8f97a18001977e0d7,60a7d7faac3d9818752b15e1,2021-05-21_16h56.09.996,Simcolourproject_2stim_asymm_v5,2020.2.10,Win32,60,60a5f9bf14d0aa2821c4bb84,,,559,93,-34,1,0,0,response3disk,,5,15,2,1,0,0,rectangle,15,2,1,0,0,,0,"[58,191,278,100,65,29,322,125,86,271,136,1,92,20,169,101,278,233,68,29]",15,2,1,0,0,,1,62,223,82,1,
,,,,,,,,,,,,,FF,,,,,,,,1.419695,,,,,,,,,,,,,,,,,,,,,,,5d1a69d8f97a18001977e0d7,60a7d7faac3d9818752b15e1,2021-05-21_16h56.09.996,Simcolourproject_2stim_asymm_v5,2020.2.10,Win32,60,60a5f9bf14d0aa2821c4bb84,,,1267,57,-32,1,0,0,response3disk,,5,5,7,1,0,0,rectangle,5,7,1,0,0,,5,"[58,191,278,100,65,29,322,125,86,271,136,1,92,20,169,101,278,233,68,29]",5,7,1,0,0,,1,63,224,137,1,
,,,,,,,,,,,,,FF,,,,,,,,1.305645,,,,,,,,,,,,,,,,,,,,,,,5d1a69d8f97a18001977e0d7,60a7d7faac3d9818752b15e1,2021-05-21_16h56.09.996,Simcolourproject_2stim_asymm_v5,2020.2.10,Win32,60,60a5f9bf14d0aa2821c4bb84,,,412,85,34,1,0,0,response1disk,,6,12,4,1,0,0,rectangle,12,4,1,0,0,,2,"[58,191,278,100,65,29,322,125,86,271,136,1,92,20,169,101,278,233,68,29]",12,4,1,0,0,,1,64,225,72,1,
,,,,,,,,,,,,,FF,,,,,,,,1.036505,,,,,,,,,,,,,,,,,,,,,,,5d1a69d8f97a18001977e0d7,60a7d7faac3d9818752b15e1,2021-05-21_16h56.09.996,Simcolourproject_2stim_asymm_v5,2020.2.10,Win32,60,60a5f9bf14d0aa2821c4bb84,,,1017,85,37,1,0,0,response1disk,,6,14,6,1,0,0,rectangle,14,6,1,0,0,,4,"[58,191,278,100,65,29,322,125,86,271,136,1,92,20,169,101,278,233,68,29]",14,6,1,0,0,,1,65,226,135,1,
,,,,,,,,,,,,,FF,,,,,,,,2.021295,,,,,,,,,,,,,,,,,,,,,,,5d1a69d8f97a18001977e0d7,60a7d7faac3d9818752b15e1,2021-05-21_16h56.09.996,Simcolourproject_2stim_asymm_v5,2020.2.10,Win32,60,60a5f9bf14d0aa2821c4bb84,,,637,-88,-57,1,0,0,response5disk,,6,3,-10,1,0,0,rectangle,3,-10,1,0,0,,5,"[58,191,278,100,65,29,322,125,86,271,136,1,92,20,169,101,278,233,68,29]",3,-10,1,0,0,,1,66,227,58,1,
,,,,,,,,,,,,,FF,,,,,,,,1.214905,,,,,,,,,,,,,,,,,,,,,,,5d1a69d8f97a18001977e0d7,60a7d7faac3d9818752b15e1,2021-05-21_16h56.09.996,Simcolourproject_2stim_asymm_v5,2020.2.10,Win32,60,60a5f9bf14d0aa2821c4bb84,,,294,81,-36,1,0,0,response3disk,,5,9,-7,1,0,0,rectangle,9,-7,1,0,0,,2,"[58,191,278,100,65,29,322,125,86,271,136,1,92,20,169,101,278,233,68,29]",9,-7,1,0,0,,1,67,228,35,1,
,,,,,,,,,,,,,FF,,,,,,,,0.77279,,,,,,,,,,,,,,,,,,,,,,,5d1a69d8f97a18001977e0d7,60a7d7faac3d9818752b15e1,2021-05-21_16h56.09.996,Simcolourproject_2stim_asymm_v5,2020.2.10,Win32,60,60a5f9bf14d0aa2821c4bb84,,,3348,61,52,1,0,0,response1disk,,6,-1,1,1,0,0,rectangle,-1,1,1,0,0,,1,"[58,191,278,100,65,29,322,125,86,271,136,1,92,20,169,101,278,233,68,29]",-1,1,1,0,0,,1,68,229,124,1,
,,,,,,,,,,,,,FF,,,,,,,,1.637405,,,,,,,,,,,,,,,,,,,,,,,5d1a69d8f97a18001977e0d7,60a7d7faac3d9818752b15e1,2021-05-21_16h56.09.996,Simcolourproject_2stim_asymm_v5,2020.2.10,Win32,60,60a5f9bf14d0aa2821c4bb84,,,1467,75,-61,1,0,0,response3disk,,5,-14,-12,1,0,0,rectangle,-14,-12,1,0,0,,2,"[58,191,278,100,65,29,322,125,86,271,136,1,92,20,169,101,278,233,68,29]",-14,-12,1,0,0,,1,69,230,20,1,
,,,,,,,,,,,,,FF,,,,,,,,1.683305,,,,,,,,,,,,,,,,,,,,,,,5d1a69d8f97a18001977e0d7,60a7d7faac3d9818752b15e1,2021-05-21_16h56.09.996,Simcolourproject_2stim_asymm_v5,2020.2.10,Win32,60,60a5f9bf14d0aa2821c4bb84,,,2150,94,26,1,0,0,response1disk,,6,-5,-7,1,0,0,rectangle,-5,-7,1,0,0,,5,"[58,191,278,100,65,29,322,125,86,271,136,1,92,20,169,101,278,233,68,29]",-5,-7,1,0,0,,1,70,231,22,1,
,,,,,,,,,,,,,FF,,,,,,,,1.185605,,,,,,,,,,,,,,,,,,,,,,,5d1a69d8f97a18001977e0d7,60a7d7faac3d9818752b15e1,2021-05-21_16h56.09.996,Simcolourproject_2stim_asymm_v5,2020.2.10,Win32,60,60a5f9bf14d0aa2821c4bb84,,,3796,67,-39,1,0,0,response3disk,,5,0,0,1,0,0,rectangle,39,119,1,0,0,response1disk_3,7,"[58,191,278,100,65,29,322,125,86,271,136,1,92,20,169,101,278,233,68,29]",-4,3,1,0,0,rectangle,1,71,232,120,1,
,,,,,,,,,,,,,FF,,,,,,,,1.37246,,,,,,,,,,,,,,,,,,,,,,,5d1a69d8f97a18001977e0d7,60a7d7faac3d9818752b15e1,2021-05-21_16h56.09.996,Simcolourproject_2stim_asymm_v5,2020.2.10,Win32,60,60a5f9bf14d0aa2821c4bb84,,,439,33,-75,1,0,0,response3disk,,4,-9,2,1,0,0,rectangle,-9,2,1,0,0,,3,"[58,191,278,100,65,29,322,125,86,271,136,1,92,20,169,101,278,233,68,29]",-9,2,1,0,0,,1,72,233,97,1,
,,,,,,,,,,,,,FF,,,,,,,,1.215355,,,,,,,,,,,,,,,,,,,,,,,5d1a69d8f97a18001977e0d7,60a7d7faac3d9818752b15e1,2021-05-21_16h56.09.996,Simcolourproject_2stim_asymm_v5,2020.2.10,Win32,60,60a5f9bf14d0aa2821c4bb84,,,1627,63,36,1,0,0,response1disk,,6,1,4,1,0,0,rectangle,1,4,1,0,0,,1,"[58,191,278,100,65,29,322,125,86,271,136,1,92,20,169,101,278,233,68,29]",1,4,1,0,0,,1,73,234,74,1,
,,,,,,,,,,,,,FF,,,,,,,,1.757835,,,,,,,,,,,,,,,,,,,,,,,5d1a69d8f97a18001977e0d7,60a7d7faac3d9818752b15e1,2021-05-21_16h56.09.996,Simcolourproject_2stim_asymm_v5,2020.2.10,Win32,60,60a5f9bf14d0aa2821c4bb84,,,758,34,81,1,0,0,response1disk,,7,1,7,1,0,0,rectangle,1,7,1,0,0,,6,"[58,191,278,100,65,29,322,125,86,271,136,1,92,20,169,101,278,233,68,29]",1,7,1,0,0,,1,74,235,121,1,
,,,,,,,,,,,,,FF,,,,,,,,1.11659,,,,,,,,,,,,,,,,,,,,,,,5d1a69d8f97a18001977e0d7,60a7d7faac3d9818752b15e1,2021-05-21_16h56.09.996,Simcolourproject_2stim_asymm_v5,2020.2.10,Win32,60,60a5f9bf14d0aa2821c4bb84,,,3793,67,40,1,0,0,response1disk,,6,7,8,1,0,0,rectangle,7,8,1,0,0,,1,"[58,191,278,100,65,29,322,125,86,271,136,1,92,20,169,101,278,233,68,29]",7,8,1,0,0,,1,75,236,126,1,
,,,,,,,,,,,,,FF,,,,,,,,2.52647,,,,,,,,,,,,,,,,,,,,,,,5d1a69d8f97a18001977e0d7,60a7d7faac3d9818752b15e1,2021-05-21_16h56.09.996,Simcolourproject_2stim_asymm_v5,2020.2.10,Win32,60,60a5f9bf14d0aa2821c4bb84,,,1771,74,-48,1,0,0,response3disk,,5,6,-9,1,0,0,rectangle,6,-9,1,0,0,,0,"[58,191,278,100,65,29,322,125,86,271,136,1,92,20,169,101,278,233,68,29]",6,-9,1,0,0,,1,76,237,146,1,
,,,,,,,,,,,,,FF,,,,,,,,1.683655,,,,,,,,,,,,,,,,,,,,,,,5d1a69d8f97a18001977e0d7,60a7d7faac3d9818752b15e1,2021-05-21_16h56.09.996,Simcolourproject_2stim_asymm_v5,2020.2.10,Win32,60,60a5f9bf14d0aa2821c4bb84,,,3696,65,48,1,0,0,response1disk,,6,15,1,1,0,0,rectangle,15,1,1,0,0,,7,"[58,191,278,100,65,29,322,125,86,271,136,1,92,20,169,101,278,233,68,29]",15,1,1,0,0,,1,77,238,69,1,
,,,,,,,,,,,,,FF,,,,,,,,2.016705,,,,,,,,,,,,,,,,,,,,,,,5d1a69d8f97a18001977e0d7,60a7d7faac3d9818752b15e1,2021-05-21_16h56.09.996,Simcolourproject_2stim_asymm_v5,2020.2.10,Win32,60,60a5f9bf14d0aa2821c4bb84,,,3919,45,-67,1,0,0,response3disk,,4,9,-4,1,0,0,rectangle,9,-4,1,0,0,,2,"[58,191,278,100,65,29,322,125,86,271,136,1,92,20,169,101,278,233,68,29]",9,-4,1,0,0,,1,78,239,75,1,
,,,,,,,,,,,,,FF,,,,,,,,2.10787,,,,,,,,,,,,,,,,,,,,,,,5d1a69d8f97a18001977e0d7,60a7d7faac3d9818752b15e1,2021-05-21_16h56.09.996,Simcolourproject_2stim_asymm_v5,2020.2.10,Win32,60,60a5f9bf14d0aa2821c4bb84,,,129,33,-51,1,0,0,response3disk,,4,3,-3,1,0,0,rectangle,3,-3,1,0,0,,2,"[58,191,278,100,65,29,322,125,86,271,136,1,92,20,169,101,278,233,68,29]",3,-3,1,0,0,,1,79,240,81,1,
,,,,,,,,,,,,,FF,,,,,,,,1.33643,,,,,,,,,,,,,,,,,,,,,,,5d1a69d8f97a18001977e0d7,60a7d7faac3d9818752b15e1,2021-05-21_16h56.09.996,Simcolourproject_2stim_asymm_v5,2020.2.10,Win32,60,60a5f9bf14d0aa2821c4bb84,,,884,44,65,1,0,0,response1disk,,7,7,-2,1,0,0,rectangle,7,-2,1,0,0,,7,"[58,191,278,100,65,29,322,125,86,271,136,1,92,20,169,101,278,233,68,29]",7,-2,1,0,0,,1,80,241,138,1,
,,,,,,,,,,,,,FF,,,,,,,,1.18676,,,,,,,,,,,,,,,,,,,,,,,5d1a69d8f97a18001977e0d7,60a7d7faac3d9818752b15e1,2021-05-21_16h56.09.996,Simcolourproject_2stim_asymm_v5,2020.2.10,Win32,60,60a5f9bf14d0aa2821c4bb84,,,2081,55,-37,1,0,0,response3disk,,5,2,-6,1,0,0,rectangle,2,-6,1,0,0,,1,"[58,191,278,100,65,29,322,125,86,271,136,1,92,20,169,101,278,233,68,29]",2,-6,1,0,0,,1,81,242,44,1,
,,,,,,,,,,,,,FF,,,,,,,,1.156935,,,,,,,,,,,,,,,,,,,,,,,5d1a69d8f97a18001977e0d7,60a7d7faac3d9818752b15e1,2021-05-21_16h56.09.996,Simcolourproject_2stim_asymm_v5,2020.2.10,Win32,60,60a5f9bf14d0aa2821c4bb84,,,3865,65,-48,1,0,0,response3disk,,5,6,-10,1,0,0,rectangle,6,-10,1,0,0,,5,"[58,191,278,100,65,29,322,125,86,271,136,1,92,20,169,101,278,233,68,29]",6,-10,1,0,0,,1,82,243,12,1,
,,,,,,,,,,,,,FF,,,,,,,,2.190725,,,,,,,,,,,,,,,,,,,,,,,5d1a69d8f97a18001977e0d7,60a7d7faac3d9818752b15e1,2021-05-21_16h56.09.996,Simcolourproject_2stim_asymm_v5,2020.2.10,Win32,60,60a5f9bf14d0aa2821c4bb84,,,4203,-33,-100,1,0,0,response5disk,,3,-10,-9,1,0,0,rectangle,-10,-9,1,0,0,,2,"[58,191,278,100,65,29,322,125,86,271,136,1,92,20,169,101,278,233,68,29]",-10,-9,1,0,0,,1,83,244,2,1,
,,,,,,,,,,,,,FF,,,,,,,,1.486195,,,,,,,,,,,,,,,,,,,,,,,5d1a69d8f97a18001977e0d7,60a7d7faac3d9818752b15e1,2021-05-21_16h56.09.996,Simcolourproject_2stim_asymm_v5,2020.2.10,Win32,60,60a5f9bf14d0aa2821c4bb84,,,3682,44,-80,1,0,0,response3disk,,4,0,-13,1,0,0,rectangle,0,-13,1,0,0,,2,"[58,191,278,100,65,29,322,125,86,271,136,1,92,20,169,101,278,233,68,29]",0,-13,1,0,0,,1,84,245,108,1,
,,,,,,,,,,,,,FF,,,,,,,,2.12144,,,,,,,,,,,,,,,,,,,,,,,5d1a69d8f97a18001977e0d7,60a7d7faac3d9818752b15e1,2021-05-21_16h56.09.996,Simcolourproject_2stim_asymm_v5,2020.2.10,Win32,60,60a5f9bf14d0aa2821c4bb84,,,2334,85,-32,1,0,0,response3disk,,5,17,3,1,0,0,rectangle,17,3,1,0,0,,5,"[58,191,278,100,65,29,322,125,86,271,136,1,92,20,169,101,278,233,68,29]",17,3,1,0,0,,1,85,246,114,1,
,,,,,,,,,,,,,FF,,,,,,,,1.404545,,,,,,,,,,,,,,,,,,,,,,,5d1a69d8f97a18001977e0d7,60a7d7faac3d9818752b15e1,2021-05-21_16h56.09.996,Simcolourproject_2stim_asymm_v5,2020.2.10,Win32,60,60a5f9bf14d0aa2821c4bb84,,,1518,78,27,1,0,0,response1disk,,6,12,-7,1,0,0,rectangle,12,-7,1,0,0,,3,"[58,191,278,100,65,29,322,125,86,271,136,1,92,20,169,101,278,233,68,29]",12,-7,1,0,0,,1,86,247,122,1,
,,,,,,,,,,,,,FF,,,,,,,,1.453145,,,,,,,,,,,,,,,,,,,,,,,5d1a69d8f97a18001977e0d7,60a7d7faac3d9818752b15e1,2021-05-21_16h56.09.996,Simcolourproject_2stim_asymm_v5,2020.2.10,Win32,60,60a5f9bf14d0aa2821c4bb84,,,1226,52,-84,1,0,0,response3disk,,4,4,-5,1,0,0,rectangle,4,-5,1,0,0,,0,"[58,191,278,100,65,29,322,125,86,271,136,1,92,20,169,101,278,233,68,29]",4,-5,1,0,0,,1,87,248,155,1,
,,,,,,,,,,,,,FF,,,,,,,,1.16917,,,,,,,,,,,,,,,,,,,,,,,5d1a69d8f97a18001977e0d7,60a7d7faac3d9818752b15e1,2021-05-21_16h56.09.996,Simcolourproject_2stim_asymm_v5,2020.2.10,Win32,60,60a5f9bf14d0aa2821c4bb84,,,2743,82,-33,1,0,0,response3disk,,5,13,-7,1,0,0,rectangle,13,-7,1,0,0,,7,"[58,191,278,100,65,29,322,125,86,271,136,1,92,20,169,101,278,233,68,29]",13,-7,1,0,0,,1,88,249,79,1,
,,,,,,,,,,,,,FF,,,,,,,,1.452755,,,,,,,,,,,,,,,,,,,,,,,5d1a69d8f97a18001977e0d7,60a7d7faac3d9818752b15e1,2021-05-21_16h56.09.996,Simcolourproject_2stim_asymm_v5,2020.2.10,Win32,60,60a5f9bf14d0aa2821c4bb84,,,3856,52,-76,1,0,0,response3disk,,4,11,-11,1,0,0,rectangle,11,-11,1,0,0,,0,"[58,191,278,100,65,29,322,125,86,271,136,1,92,20,169,101,278,233,68,29]",11,-11,1,0,0,,1,89,250,36,1,
,,,,,,,,,,,,,FF,,,,,,,,3.00503,,,,,,,,,,,,,,,,,,,,,,,5d1a69d8f97a18001977e0d7,60a7d7faac3d9818752b15e1,2021-05-21_16h56.09.996,Simcolourproject_2stim_asymm_v5,2020.2.10,Win32,60,60a5f9bf14d0aa2821c4bb84,,,1370,-77,-56,1,0,0,response5disk,,4,2,-7,1,0,0,rectangle,2,-7,1,0,0,,6,"[58,191,278,100,65,29,322,125,86,271,136,1,92,20,169,101,278,233,68,29]",2,-7,1,0,0,,1,90,251,38,1,
,,,,,,,,,,,,,FF,,,,,,,,0.93526,,,,,,,,,,,,,,,,,,,,,,,5d1a69d8f97a18001977e0d7,60a7d7faac3d9818752b15e1,2021-05-21_16h56.09.996,Simcolourproject_2stim_asymm_v5,2020.2.10,Win32,60,60a5f9bf14d0aa2821c4bb84,,,2183,72,32,1,0,0,response1disk,,6,-6,-5,1,0,0,rectangle,-6,-5,1,0,0,,5,"[58,191,278,100,65,29,322,125,86,271,136,1,92,20,169,101,278,233,68,29]",-6,-5,1,0,0,,1,91,252,45,1,
,,,,,,,,,,,,,FF,,,,,,,,0.98648,,,,,,,,,,,,,,,,,,,,,,,5d1a69d8f97a18001977e0d7,60a7d7faac3d9818752b15e1,2021-05-21_16h56.09.996,Simcolourproject_2stim_asymm_v5,2020.2.10,Win32,60,60a5f9bf14d0aa2821c4bb84,,,1823,-63,-41,1,0,0,response5disk,,6,2,-10,1,0,0,rectangle,2,-10,1,0,0,,0,"[58,191,278,100,65,29,322,125,86,271,136,1,92,20,169,101,278,233,68,29]",2,-10,1,0,0,,1,92,253,85,1,
