key_resp.keys,key_resp.rt,key_resp_14.keys,key_resp_14.rt,key_resp_15.keys,key_resp_15.rt,key_resp_17.keys,key_resp_17.rt,key_resp_9.keys,key_resp_9.rt,key_resp_10.keys,key_resp_10.rt,practice_comparison,Ecc,mouse_5.x,mouse_5.y,mouse_5.leftButton,mouse_5.midButton,mouse_5.rightButton,mouse_5.clicked_name,pracsimilarity,response_time,mouse_10.x,mouse_10.y,mouse_10.leftButton,mouse_10.midButton,mouse_10.rightButton,mouse_10.clicked_name,mouse_7.x,mouse_7.y,mouse_7.leftButton,mouse_7.midButton,mouse_7.rightButton,catchnumberprac,mouse_6.x,mouse_6.y,mouse_6.leftButton,mouse_6.midButton,mouse_6.rightButton,duringprac.thisRepN,duringprac.thisTrialN,duringprac.thisN,duringprac.thisIndex,duringprac.ran,participant,session,date,expName,psychopyVersion,OS,frameRate,study_id,fbclid,mouse_7.clicked_name,mouse_6.clicked_name,key_resp_22.keys,key_resp_22.rt,realcomparison,mouse.x,mouse.y,mouse.leftButton,mouse.midButton,mouse.rightButton,mouse.clicked_name,Colour2,similarity,mouse_2.x,mouse_2.y,mouse_2.leftButton,mouse_2.midButton,mouse_2.rightButton,mouse_2.clicked_name,mouse_3.x,mouse_3.y,mouse_3.leftButton,mouse_3.midButton,mouse_3.rightButton,catchnumber,catchtrialorder,mouse_11.x,mouse_11.y,mouse_11.leftButton,mouse_11.midButton,mouse_11.rightButton,trials_2.thisRepN,trials_2.thisTrialN,trials_2.thisN,trials_2.thisIndex,trials_2.ran,Colour1,mouse_3.clicked_name,mouse_11.clicked_name
space,26.391805,space,1.94427,space,63.111175,space,11.124775,space,1.78608,space,5.629005,155,PF,36.00001198,-45.60000712,1,0,0,response3disk_5,4,11.856935,7.200011551,14.39999378,1,0,0,rectangle_8,7.200011551,14.39999378,1,0,0,7,7.200011551,14.39999378,1,0,0,0,0,0,4,1,5ded025913911c3c46a677d7,60a66af1e47a63d368c27e1e,2021-05-21_11h49.26.183,Simcolourproject_2stim_asymm_v5,2020.2.10,Win32,60,60a5f9bf14d0aa2821c4bb84,IwAR3k7-6vj3irAEF0nSIH_BuJmJRQbL6BOnOOwIr76KIS1zz-MvQixBW2OPI,,,,,,,,,,,,,,,,,,,,,,,,,,,,,,,,,,,,,,,
,,,,,,,,,,,,88,FF,37.60006083,-37.600007,1,0,0,response3disk_5,5,2.863985,15.20001167,-4.000006497,1,0,0,rectangle_8,15.20001167,-4.000006497,1,0,0,7,15.20001167,-4.000006497,1,0,0,0,1,1,3,1,5ded025913911c3c46a677d7,60a66af1e47a63d368c27e1e,2021-05-21_11h49.26.183,Simcolourproject_2stim_asymm_v5,2020.2.10,Win32,60,60a5f9bf14d0aa2821c4bb84,IwAR3k7-6vj3irAEF0nSIH_BuJmJRQbL6BOnOOwIr76KIS1zz-MvQixBW2OPI,,,,,,,,,,,,,,,,,,,,,,,,,,,,,,,,,,,,,,,
,,,,,,,,,,,,121,PF,68.00001246,-63.20000738,1,0,0,response3disk_5,5,3.58044,8.000011563,-4.000006497,1,0,0,rectangle_8,8.000011563,-4.000006497,1,0,0,7,8.000011563,-4.000006497,1,0,0,0,2,2,2,1,5ded025913911c3c46a677d7,60a66af1e47a63d368c27e1e,2021-05-21_11h49.26.183,Simcolourproject_2stim_asymm_v5,2020.2.10,Win32,60,60a5f9bf14d0aa2821c4bb84,IwAR3k7-6vj3irAEF0nSIH_BuJmJRQbL6BOnOOwIr76KIS1zz-MvQixBW2OPI,,,,,,,,,,,,,,,,,,,,,,,,,,,,,,,,,,,,,,,
,,,,,,,,,,,,21,PF,40.00001204,-86.40000772,1,0,0,response3disk_5,4,3.414275,4.800011516,-2.400006473,1,0,0,rectangle_8,4.800011516,-2.400006473,1,0,0,7,4.800011516,-2.400006473,1,0,0,0,3,3,1,1,5ded025913911c3c46a677d7,60a66af1e47a63d368c27e1e,2021-05-21_11h49.26.183,Simcolourproject_2stim_asymm_v5,2020.2.10,Win32,60,60a5f9bf14d0aa2821c4bb84,IwAR3k7-6vj3irAEF0nSIH_BuJmJRQbL6BOnOOwIr76KIS1zz-MvQixBW2OPI,,,,,,,,,,,,,,,,,,,,,,,,,,,,,,,,,,,,,,,
,,,,,,,,,,,,35,FF,20.80001175,-66.40000743,1,0,0,response3disk_5,4,17.068725,15.20001167,-9.60000658,1,0,0,rectangle_8,45.60006095,-49.60000718,1,0,0,7,7.200011551,5.599993646,1,0,0,0,4,4,0,1,5ded025913911c3c46a677d7,60a66af1e47a63d368c27e1e,2021-05-21_11h49.26.183,Simcolourproject_2stim_asymm_v5,2020.2.10,Win32,60,60a5f9bf14d0aa2821c4bb84,IwAR3k7-6vj3irAEF0nSIH_BuJmJRQbL6BOnOOwIr76KIS1zz-MvQixBW2OPI,response3disk_7,rectangle_4,,,,,,,,,,,,,,,,,,,,,,,,,,,,,,,,,,,,,
,,,,,,,,,,,,76,FF,36.00001198,-59.20000732,1,0,0,response3disk_5,4,4.01102,6.400011539,7.19999367,1,0,0,rectangle_8,6.400011539,7.19999367,1,0,0,7,6.400011539,7.19999367,1,0,0,0,5,5,5,1,5ded025913911c3c46a677d7,60a66af1e47a63d368c27e1e,2021-05-21_11h49.26.183,Simcolourproject_2stim_asymm_v5,2020.2.10,Win32,60,60a5f9bf14d0aa2821c4bb84,IwAR3k7-6vj3irAEF0nSIH_BuJmJRQbL6BOnOOwIr76KIS1zz-MvQixBW2OPI,,,,,,,,,,,,,,,,,,,,,,,,,,,,,,,,,,,,,,,
,,,,,,,,,,,,39,PF,63.20001239,-66.40000743,1,0,0,response3disk_5,4,4.91238,3.200011492,8.799993694,1,0,0,rectangle_8,3.200011492,8.799993694,1,0,0,7,3.200011492,8.799993694,1,0,0,0,6,6,6,1,5ded025913911c3c46a677d7,60a66af1e47a63d368c27e1e,2021-05-21_11h49.26.183,Simcolourproject_2stim_asymm_v5,2020.2.10,Win32,60,60a5f9bf14d0aa2821c4bb84,IwAR3k7-6vj3irAEF0nSIH_BuJmJRQbL6BOnOOwIr76KIS1zz-MvQixBW2OPI,,,,,,,,,,,,,,,,,,,,,,,,,,,,,,,,,,,,,,,
,,,,,,,,,,,,,FF,,,,,,,,2.966845,,,,,,,,,,,,,,,,,,,,,,,5ded025913911c3c46a677d7,60a66af1e47a63d368c27e1e,2021-05-21_11h49.26.183,Simcolourproject_2stim_asymm_v5,2020.2.10,Win32,60,60a5f9bf14d0aa2821c4bb84,IwAR3k7-6vj3irAEF0nSIH_BuJmJRQbL6BOnOOwIr76KIS1zz-MvQixBW2OPI,,,space,5.0451,20,42.40001208,-60.80000734,1,0,0,response3disk,,4,4.800011516,4.799993634,1,0,0,rectangle,4.800011516,4.799993634,1,0,0,0,"[179,92,138,19,74,288,322,224,73,230,262,24,221,126,175,316,96,209,177,188]",4.800011516,4.799993634,1,0,0,0,0,0,42,1,,,
,,,,,,,,,,,,,FF,,,,,,,,4.62958,,,,,,,,,,,,,,,,,,,,,,,5ded025913911c3c46a677d7,60a66af1e47a63d368c27e1e,2021-05-21_11h49.26.183,Simcolourproject_2stim_asymm_v5,2020.2.10,Win32,60,60a5f9bf14d0aa2821c4bb84,IwAR3k7-6vj3irAEF0nSIH_BuJmJRQbL6BOnOOwIr76KIS1zz-MvQixBW2OPI,,,,,1941,38.40001202,-46.40000713,1,0,0,response3disk,,4,12.00001162,-6.4373E-06,1,0,0,rectangle,12.00001162,-6.4373E-06,1,0,0,1,"[179,92,138,19,74,288,322,224,73,230,262,24,221,126,175,316,96,209,177,188]",12.00001162,-6.4373E-06,1,0,0,0,1,1,47,1,,,
,,,,,,,,,,,,,FF,,,,,,,,2.03369,,,,,,,,,,,,,,,,,,,,,,,5ded025913911c3c46a677d7,60a66af1e47a63d368c27e1e,2021-05-21_11h49.26.183,Simcolourproject_2stim_asymm_v5,2020.2.10,Win32,60,60a5f9bf14d0aa2821c4bb84,IwAR3k7-6vj3irAEF0nSIH_BuJmJRQbL6BOnOOwIr76KIS1zz-MvQixBW2OPI,,,,,558,32.00001192,-33.60000694,1,0,0,response3disk,,4,4.800011516,3.999993622,1,0,0,rectangle,4.800011516,3.999993622,1,0,0,5,"[179,92,138,19,74,288,322,224,73,230,262,24,221,126,175,316,96,209,177,188]",4.800011516,3.999993622,1,0,0,0,2,2,147,1,,,
,,,,,,,,,,,,,FF,,,,,,,,1.99765,,,,,,,,,,,,,,,,,,,,,,,5ded025913911c3c46a677d7,60a66af1e47a63d368c27e1e,2021-05-21_11h49.26.183,Simcolourproject_2stim_asymm_v5,2020.2.10,Win32,60,60a5f9bf14d0aa2821c4bb84,IwAR3k7-6vj3irAEF0nSIH_BuJmJRQbL6BOnOOwIr76KIS1zz-MvQixBW2OPI,,,,,1741,24.80001181,-51.2000072,1,0,0,response3disk,,4,11.20001161,3.19999361,1,0,0,rectangle,11.20001161,3.19999361,1,0,0,1,"[179,92,138,19,74,288,322,224,73,230,262,24,221,126,175,316,96,209,177,188]",11.20001161,3.19999361,1,0,0,0,3,3,124,1,,,
,,,,,,,,,,,,,FF,,,,,,,,2.098965,,,,,,,,,,,,,,,,,,,,,,,5ded025913911c3c46a677d7,60a66af1e47a63d368c27e1e,2021-05-21_11h49.26.183,Simcolourproject_2stim_asymm_v5,2020.2.10,Win32,60,60a5f9bf14d0aa2821c4bb84,IwAR3k7-6vj3irAEF0nSIH_BuJmJRQbL6BOnOOwIr76KIS1zz-MvQixBW2OPI,,,,,1120,28.80001187,-48.80000716,1,0,0,response3disk,,4,13.60006047,-2.400006473,1,0,0,rectangle,13.60006047,-2.400006473,1,0,0,6,"[179,92,138,19,74,288,322,224,73,230,262,24,221,126,175,316,96,209,177,188]",13.60006047,-2.400006473,1,0,0,0,4,4,63,1,,,
,,,,,,,,,,,,,FF,,,,,,,,4.962725,,,,,,,,,,,,,,,,,,,,,,,5ded025913911c3c46a677d7,60a66af1e47a63d368c27e1e,2021-05-21_11h49.26.183,Simcolourproject_2stim_asymm_v5,2020.2.10,Win32,60,60a5f9bf14d0aa2821c4bb84,IwAR3k7-6vj3irAEF0nSIH_BuJmJRQbL6BOnOOwIr76KIS1zz-MvQixBW2OPI,,,,,1145,28.80001187,-36.80000699,1,0,0,response3disk,,4,12.00001162,8.799993694,1,0,0,rectangle,12.00001162,8.799993694,1,0,0,7,"[179,92,138,19,74,288,322,224,73,230,262,24,221,126,175,316,96,209,177,188]",12.00001162,8.799993694,1,0,0,0,5,5,85,1,,,
,,,,,,,,,,,,,FF,,,,,,,,2.364855,,,,,,,,,,,,,,,,,,,,,,,5ded025913911c3c46a677d7,60a66af1e47a63d368c27e1e,2021-05-21_11h49.26.183,Simcolourproject_2stim_asymm_v5,2020.2.10,Win32,60,60a5f9bf14d0aa2821c4bb84,IwAR3k7-6vj3irAEF0nSIH_BuJmJRQbL6BOnOOwIr76KIS1zz-MvQixBW2OPI,,,,,2549,33.60006077,-46.40000713,1,0,0,response3disk,,4,12.80001163,4.799993634,1,0,0,rectangle,12.80001163,4.799993634,1,0,0,7,"[179,92,138,19,74,288,322,224,73,230,262,24,221,126,175,316,96,209,177,188]",12.80001163,4.799993634,1,0,0,0,6,6,79,1,,,
,,,,,,,,,,,,,FF,,,,,,,,4.898585,,,,,,,,,,,,,,,,,,,,,,,5ded025913911c3c46a677d7,60a66af1e47a63d368c27e1e,2021-05-21_11h49.26.183,Simcolourproject_2stim_asymm_v5,2020.2.10,Win32,60,60a5f9bf14d0aa2821c4bb84,IwAR3k7-6vj3irAEF0nSIH_BuJmJRQbL6BOnOOwIr76KIS1zz-MvQixBW2OPI,,,,,3822,-32.79998904,-52.80000722,1,0,0,response5disk,,3,6.400011539,-1.600006461,1,0,0,rectangle,6.400011539,-1.600006461,1,0,0,4,"[179,92,138,19,74,288,322,224,73,230,262,24,221,126,175,316,96,209,177,188]",6.400011539,-1.600006461,1,0,0,0,7,7,88,1,,,
,,,,,,,,,,,,,FF,,,,,,,,4.847595,,,,,,,,,,,,,,,,,,,,,,,5ded025913911c3c46a677d7,60a66af1e47a63d368c27e1e,2021-05-21_11h49.26.183,Simcolourproject_2stim_asymm_v5,2020.2.10,Win32,60,60a5f9bf14d0aa2821c4bb84,IwAR3k7-6vj3irAEF0nSIH_BuJmJRQbL6BOnOOwIr76KIS1zz-MvQixBW2OPI,,,,,764,-39.99998915,-42.40000707,1,0,0,response5disk,,3,-2.399939764,2.399993598,1,0,0,rectangle,-2.399939764,2.399993598,1,0,0,5,"[179,92,138,19,74,288,322,224,73,230,262,24,221,126,175,316,96,209,177,188]",-2.399939764,2.399993598,1,0,0,0,8,8,75,1,,,
,,,,,,,,,,,,,FF,,,,,,,,1.55128,,,,,,,,,,,,,,,,,,,,,,,5ded025913911c3c46a677d7,60a66af1e47a63d368c27e1e,2021-05-21_11h49.26.183,Simcolourproject_2stim_asymm_v5,2020.2.10,Win32,60,60a5f9bf14d0aa2821c4bb84,IwAR3k7-6vj3irAEF0nSIH_BuJmJRQbL6BOnOOwIr76KIS1zz-MvQixBW2OPI,,,,,1577,47.20001215,43.19996979,1,0,0,response1disk,,6,-7.999988675,0.799993575,1,0,0,rectangle,-7.999988675,0.799993575,1,0,0,0,"[179,92,138,19,74,288,322,224,73,230,262,24,221,126,175,316,96,209,177,188]",-7.999988675,0.799993575,1,0,0,0,9,9,32,1,,,
,,,,,,,,,,,,,FF,,,,,,,,1.83464,,,,,,,,,,,,,,,,,,,,,,,5ded025913911c3c46a677d7,60a66af1e47a63d368c27e1e,2021-05-21_11h49.26.183,Simcolourproject_2stim_asymm_v5,2020.2.10,Win32,60,60a5f9bf14d0aa2821c4bb84,IwAR3k7-6vj3irAEF0nSIH_BuJmJRQbL6BOnOOwIr76KIS1zz-MvQixBW2OPI,,,,,712,-23.99998891,-28.80000687,1,0,0,response5disk,,3,0.800011456,2.399993598,1,0,0,rectangle,0.800011456,2.399993598,1,0,0,3,"[179,92,138,19,74,288,322,224,73,230,262,24,221,126,175,316,96,209,177,188]",0.800011456,2.399993598,1,0,0,0,10,10,58,1,,,
,,,,,,,,,,,,,FF,,,,,,,,1.26425,,,,,,,,,,,,,,,,,,,,,,,5ded025913911c3c46a677d7,60a66af1e47a63d368c27e1e,2021-05-21_11h49.26.183,Simcolourproject_2stim_asymm_v5,2020.2.10,Win32,60,60a5f9bf14d0aa2821c4bb84,IwAR3k7-6vj3irAEF0nSIH_BuJmJRQbL6BOnOOwIr76KIS1zz-MvQixBW2OPI,,,,,1616,-31.19998902,-53.60000724,1,0,0,response5disk,,3,11.20001161,10.39999372,1,0,0,rectangle,11.20001161,10.39999372,1,0,0,2,"[179,92,138,19,74,288,322,224,73,230,262,24,221,126,175,316,96,209,177,188]",11.20001161,10.39999372,1,0,0,0,11,11,121,1,,,
,,,,,,,,,,,,,FF,,,,,,,,1.58442,,,,,,,,,,,,,,,,,,,,,,,5ded025913911c3c46a677d7,60a66af1e47a63d368c27e1e,2021-05-21_11h49.26.183,Simcolourproject_2stim_asymm_v5,2020.2.10,Win32,60,60a5f9bf14d0aa2821c4bb84,IwAR3k7-6vj3irAEF0nSIH_BuJmJRQbL6BOnOOwIr76KIS1zz-MvQixBW2OPI,,,,,1085,-20.79998887,-30.40000689,1,0,0,response5disk,,3,-8.799988687,3.19999361,1,0,0,rectangle,-8.799988687,3.19999361,1,0,0,5,"[179,92,138,19,74,288,322,224,73,230,262,24,221,126,175,316,96,209,177,188]",-8.799988687,3.19999361,1,0,0,0,12,12,127,1,,,
,,,,,,,,,,,,,FF,,,,,,,,0.882985,,,,,,,,,,,,,,,,,,,,,,,5ded025913911c3c46a677d7,60a66af1e47a63d368c27e1e,2021-05-21_11h49.26.183,Simcolourproject_2stim_asymm_v5,2020.2.10,Win32,60,60a5f9bf14d0aa2821c4bb84,IwAR3k7-6vj3irAEF0nSIH_BuJmJRQbL6BOnOOwIr76KIS1zz-MvQixBW2OPI,,,,,1356,-32.79998904,-41.60000706,1,0,0,response5disk,,3,-5.599988639,-2.400006473,1,0,0,rectangle,-5.599988639,-2.400006473,1,0,0,4,"[179,92,138,19,74,288,322,224,73,230,262,24,221,126,175,316,96,209,177,188]",-5.599988639,-2.400006473,1,0,0,0,13,13,103,1,,,
,,,,,,,,,,,,,FF,,,,,,,,0.750475,,,,,,,,,,,,,,,,,,,,,,,5ded025913911c3c46a677d7,60a66af1e47a63d368c27e1e,2021-05-21_11h49.26.183,Simcolourproject_2stim_asymm_v5,2020.2.10,Win32,60,60a5f9bf14d0aa2821c4bb84,IwAR3k7-6vj3irAEF0nSIH_BuJmJRQbL6BOnOOwIr76KIS1zz-MvQixBW2OPI,,,,,1295,-36.7999891,-33.60000694,1,0,0,response5disk,,3,-7.999988675,-3.200006485,1,0,0,rectangle,-7.999988675,-3.200006485,1,0,0,4,"[179,92,138,19,74,288,322,224,73,230,262,24,221,126,175,316,96,209,177,188]",-7.999988675,-3.200006485,1,0,0,0,14,14,37,1,,,
,,,,,,,,,,,,,FF,,,,,,,,1.218275,,,,,,,,,,,,,,,,,,,,,,,5ded025913911c3c46a677d7,60a66af1e47a63d368c27e1e,2021-05-21_11h49.26.183,Simcolourproject_2stim_asymm_v5,2020.2.10,Win32,60,60a5f9bf14d0aa2821c4bb84,IwAR3k7-6vj3irAEF0nSIH_BuJmJRQbL6BOnOOwIr76KIS1zz-MvQixBW2OPI,,,,,1719,-44.79998922,50.39999431,1,0,0,response7disk,,0,7.200011551,1.599993587,1,0,0,rectangle,7.200011551,1.599993587,1,0,0,0,"[179,92,138,19,74,288,322,224,73,230,262,24,221,126,175,316,96,209,177,188]",7.200011551,1.599993587,1,0,0,0,15,15,125,1,,,
,,,,,,,,,,,,,FF,,,,,,,,1.981865,,,,,,,,,,,,,,,,,,,,,,,5ded025913911c3c46a677d7,60a66af1e47a63d368c27e1e,2021-05-21_11h49.26.183,Simcolourproject_2stim_asymm_v5,2020.2.10,Win32,60,60a5f9bf14d0aa2821c4bb84,IwAR3k7-6vj3irAEF0nSIH_BuJmJRQbL6BOnOOwIr76KIS1zz-MvQixBW2OPI,,,,,3967,56.00001228,38.39999413,1,0,0,response1disk,,6,-5.599988639,-4.800006509,1,0,0,rectangle,-5.599988639,-4.800006509,1,0,0,2,"[179,92,138,19,74,288,322,224,73,230,262,24,221,126,175,316,96,209,177,188]",-5.599988639,-4.800006509,1,0,0,0,16,16,11,1,,,
,,,,,,,,,,,,,FF,,,,,,,,2.00028,,,,,,,,,,,,,,,,,,,,,,,5ded025913911c3c46a677d7,60a66af1e47a63d368c27e1e,2021-05-21_11h49.26.183,Simcolourproject_2stim_asymm_v5,2020.2.10,Win32,60,60a5f9bf14d0aa2821c4bb84,IwAR3k7-6vj3irAEF0nSIH_BuJmJRQbL6BOnOOwIr76KIS1zz-MvQixBW2OPI,,,,,3339,33.60006077,-38.40000701,1,0,0,response3disk,,4,8.000011563,2.399993598,1,0,0,rectangle,8.000011563,2.399993598,1,0,0,5,"[179,92,138,19,74,288,322,224,73,230,262,24,221,126,175,316,96,209,177,188]",8.000011563,2.399993598,1,0,0,0,17,17,118,1,,,
,,,,,,,,,,,,,FF,,,,,,,,2.647395,,,,,,,,,,,,,,,,,,,,,,,5ded025913911c3c46a677d7,60a66af1e47a63d368c27e1e,2021-05-21_11h49.26.183,Simcolourproject_2stim_asymm_v5,2020.2.10,Win32,60,60a5f9bf14d0aa2821c4bb84,IwAR3k7-6vj3irAEF0nSIH_BuJmJRQbL6BOnOOwIr76KIS1zz-MvQixBW2OPI,,,,,1226,-37.59998912,-25.60000682,1,0,0,response5disk,,4,4.000011504,1.599993587,1,0,0,rectangle,-36.7999891,33.59999406,1,0,0,0,"[179,92,138,19,74,288,322,224,73,230,262,24,221,126,175,316,96,209,177,188]",-1.59998858,1.599993587,1,0,0,0,18,18,9,1,,response7disk_3,rectangle
,,,,,,,,,,,,,FF,,,,,,,,0.948485,,,,,,,,,,,,,,,,,,,,,,,5ded025913911c3c46a677d7,60a66af1e47a63d368c27e1e,2021-05-21_11h49.26.183,Simcolourproject_2stim_asymm_v5,2020.2.10,Win32,60,60a5f9bf14d0aa2821c4bb84,IwAR3k7-6vj3irAEF0nSIH_BuJmJRQbL6BOnOOwIr76KIS1zz-MvQixBW2OPI,,,,,37,-33.59998906,30.39999402,1,0,0,response7disk,,1,4.800011516,2.399993598,1,0,0,rectangle,4.800011516,2.399993598,1,0,0,3,"[179,92,138,19,74,288,322,224,73,230,262,24,221,126,175,316,96,209,177,188]",4.800011516,2.399993598,1,0,0,0,19,19,152,1,,,
,,,,,,,,,,,,,FF,,,,,,,,4.67939,,,,,,,,,,,,,,,,,,,,,,,5ded025913911c3c46a677d7,60a66af1e47a63d368c27e1e,2021-05-21_11h49.26.183,Simcolourproject_2stim_asymm_v5,2020.2.10,Win32,60,60a5f9bf14d0aa2821c4bb84,IwAR3k7-6vj3irAEF0nSIH_BuJmJRQbL6BOnOOwIr76KIS1zz-MvQixBW2OPI,,,,,845,-28.79998899,-33.60000694,1,0,0,response5disk,,3,-2.399939764,3.999993622,1,0,0,rectangle,-2.399939764,3.999993622,1,0,0,3,"[179,92,138,19,74,288,322,224,73,230,262,24,221,126,175,316,96,209,177,188]",-2.399939764,3.999993622,1,0,0,0,20,20,149,1,,,
,,,,,,,,,,,,,FF,,,,,,,,0.84997,,,,,,,,,,,,,,,,,,,,,,,5ded025913911c3c46a677d7,60a66af1e47a63d368c27e1e,2021-05-21_11h49.26.183,Simcolourproject_2stim_asymm_v5,2020.2.10,Win32,60,60a5f9bf14d0aa2821c4bb84,IwAR3k7-6vj3irAEF0nSIH_BuJmJRQbL6BOnOOwIr76KIS1zz-MvQixBW2OPI,,,,,2967,37.60006083,-46.40000713,1,0,0,response3disk,,4,3.200011492,-2.400006473,1,0,0,rectangle,3.200011492,-2.400006473,1,0,0,0,"[179,92,138,19,74,288,322,224,73,230,262,24,221,126,175,316,96,209,177,188]",3.200011492,-2.400006473,1,0,0,0,21,21,6,1,,,
,,,,,,,,,,,,,FF,,,,,,,,0.69583,,,,,,,,,,,,,,,,,,,,,,,5ded025913911c3c46a677d7,60a66af1e47a63d368c27e1e,2021-05-21_11h49.26.183,Simcolourproject_2stim_asymm_v5,2020.2.10,Win32,60,60a5f9bf14d0aa2821c4bb84,IwAR3k7-6vj3irAEF0nSIH_BuJmJRQbL6BOnOOwIr76KIS1zz-MvQixBW2OPI,,,,,2049,32.00001192,26.39999396,1,0,0,response1disk,,6,-6.399939823,-4.000006497,1,0,0,rectangle,-6.399939823,-4.000006497,1,0,0,7,"[179,92,138,19,74,288,322,224,73,230,262,24,221,126,175,316,96,209,177,188]",-6.399939823,-4.000006497,1,0,0,0,22,22,140,1,,,
,,,,,,,,,,,,,FF,,,,,,,,0.66566,,,,,,,,,,,,,,,,,,,,,,,5ded025913911c3c46a677d7,60a66af1e47a63d368c27e1e,2021-05-21_11h49.26.183,Simcolourproject_2stim_asymm_v5,2020.2.10,Win32,60,60a5f9bf14d0aa2821c4bb84,IwAR3k7-6vj3irAEF0nSIH_BuJmJRQbL6BOnOOwIr76KIS1zz-MvQixBW2OPI,,,,,1632,49.60006101,27.99999398,1,0,0,response1disk,,6,9.600060415,-5.600006521,1,0,0,rectangle,33.60006077,24.79999393,1,0,0,2,"[179,92,138,19,74,288,322,224,73,230,262,24,221,126,175,316,96,209,177,188]",6.400011539,-3.200006485,1,0,0,0,23,23,36,1,,response1disk_3,rectangle
,,,,,,,,,,,,,FF,,,,,,,,0.69967,,,,,,,,,,,,,,,,,,,,,,,5ded025913911c3c46a677d7,60a66af1e47a63d368c27e1e,2021-05-21_11h49.26.183,Simcolourproject_2stim_asymm_v5,2020.2.10,Win32,60,60a5f9bf14d0aa2821c4bb84,IwAR3k7-6vj3irAEF0nSIH_BuJmJRQbL6BOnOOwIr76KIS1zz-MvQixBW2OPI,,,,,3767,44.80001211,-37.600007,1,0,0,response3disk,,5,-2.399939764,-2.400006473,1,0,0,rectangle,-2.399939764,-2.400006473,1,0,0,6,"[179,92,138,19,74,288,322,224,73,230,262,24,221,126,175,316,96,209,177,188]",-2.399939764,-2.400006473,1,0,0,0,24,24,97,1,,,
,,,,,,,,,,,,,FF,,,,,,,,2.581595,,,,,,,,,,,,,,,,,,,,,,,5ded025913911c3c46a677d7,60a66af1e47a63d368c27e1e,2021-05-21_11h49.26.183,Simcolourproject_2stim_asymm_v5,2020.2.10,Win32,60,60a5f9bf14d0aa2821c4bb84,IwAR3k7-6vj3irAEF0nSIH_BuJmJRQbL6BOnOOwIr76KIS1zz-MvQixBW2OPI,,,,,1743,-41.59998918,17.59999382,1,0,0,response7disk,,1,-9.599988699,-9.60000658,1,0,0,rectangle,-9.599988699,-9.60000658,1,0,0,1,"[179,92,138,19,74,288,322,224,73,230,262,24,221,126,175,316,96,209,177,188]",-9.599988699,-9.60000658,1,0,0,0,25,25,3,1,,,
,,,,,,,,,,,,,FF,,,,,,,,3.01422,,,,,,,,,,,,,,,,,,,,,,,5ded025913911c3c46a677d7,60a66af1e47a63d368c27e1e,2021-05-21_11h49.26.183,Simcolourproject_2stim_asymm_v5,2020.2.10,Win32,60,60a5f9bf14d0aa2821c4bb84,IwAR3k7-6vj3irAEF0nSIH_BuJmJRQbL6BOnOOwIr76KIS1zz-MvQixBW2OPI,,,,,3404,-22.39994006,-40.80000705,1,0,0,response5disk,,3,4.800011516,-2.400006473,1,0,0,rectangle,4.800011516,-2.400006473,1,0,0,6,"[179,92,138,19,74,288,322,224,73,230,262,24,221,126,175,316,96,209,177,188]",4.800011516,-2.400006473,1,0,0,0,26,26,133,1,,,
,,,,,,,,,,,,,FF,,,,,,,,1.565475,,,,,,,,,,,,,,,,,,,,,,,5ded025913911c3c46a677d7,60a66af1e47a63d368c27e1e,2021-05-21_11h49.26.183,Simcolourproject_2stim_asymm_v5,2020.2.10,Win32,60,60a5f9bf14d0aa2821c4bb84,IwAR3k7-6vj3irAEF0nSIH_BuJmJRQbL6BOnOOwIr76KIS1zz-MvQixBW2OPI,,,,,2963,44.0000121,27.19996955,1,0,0,response1disk,,6,-7.199988663,-10.40000659,1,0,0,rectangle,-7.199988663,-10.40000659,1,0,0,6,"[179,92,138,19,74,288,322,224,73,230,262,24,221,126,175,316,96,209,177,188]",-7.199988663,-10.40000659,1,0,0,0,27,27,156,1,,,
,,,,,,,,,,,,,FF,,,,,,,,1.53209,,,,,,,,,,,,,,,,,,,,,,,5ded025913911c3c46a677d7,60a66af1e47a63d368c27e1e,2021-05-21_11h49.26.183,Simcolourproject_2stim_asymm_v5,2020.2.10,Win32,60,60a5f9bf14d0aa2821c4bb84,IwAR3k7-6vj3irAEF0nSIH_BuJmJRQbL6BOnOOwIr76KIS1zz-MvQixBW2OPI,,,,,310,29.60006071,-38.40000701,1,0,0,response3disk,,4,-2.399939764,-3.200006485,1,0,0,rectangle,-2.399939764,-3.200006485,1,0,0,0,"[179,92,138,19,74,288,322,224,73,230,262,24,221,126,175,316,96,209,177,188]",-2.399939764,-3.200006485,1,0,0,0,28,28,20,1,,,
,,,,,,,,,,,,,FF,,,,,,,,4.930485,,,,,,,,,,,,,,,,,,,,,,,5ded025913911c3c46a677d7,60a66af1e47a63d368c27e1e,2021-05-21_11h49.26.183,Simcolourproject_2stim_asymm_v5,2020.2.10,Win32,60,60a5f9bf14d0aa2821c4bb84,IwAR3k7-6vj3irAEF0nSIH_BuJmJRQbL6BOnOOwIr76KIS1zz-MvQixBW2OPI,,,,,253,-36.7999891,23.99999392,1,0,0,response7disk,,1,1.14441E-05,1.599993587,1,0,0,rectangle,1.14441E-05,1.599993587,1,0,0,1,"[179,92,138,19,74,288,322,224,73,230,262,24,221,126,175,316,96,209,177,188]",1.14441E-05,1.599993587,1,0,0,0,29,29,81,1,,,
,,,,,,,,,,,,,FF,,,,,,,,0.816445,,,,,,,,,,,,,,,,,,,,,,,5ded025913911c3c46a677d7,60a66af1e47a63d368c27e1e,2021-05-21_11h49.26.183,Simcolourproject_2stim_asymm_v5,2020.2.10,Win32,60,60a5f9bf14d0aa2821c4bb84,IwAR3k7-6vj3irAEF0nSIH_BuJmJRQbL6BOnOOwIr76KIS1zz-MvQixBW2OPI,,,,,2647,34.40001196,28.79999399,1,0,0,response1disk,,6,5.600060356,3.19999361,1,0,0,rectangle,5.600060356,3.19999361,1,0,0,3,"[179,92,138,19,74,288,322,224,73,230,262,24,221,126,175,316,96,209,177,188]",5.600060356,3.19999361,1,0,0,0,30,30,62,1,,,
,,,,,,,,,,,,,FF,,,,,,,,0.917055,,,,,,,,,,,,,,,,,,,,,,,5ded025913911c3c46a677d7,60a66af1e47a63d368c27e1e,2021-05-21_11h49.26.183,Simcolourproject_2stim_asymm_v5,2020.2.10,Win32,60,60a5f9bf14d0aa2821c4bb84,IwAR3k7-6vj3irAEF0nSIH_BuJmJRQbL6BOnOOwIr76KIS1zz-MvQixBW2OPI,,,,,2922,39.20001203,24.79999393,1,0,0,response1disk,,6,15.20001167,7.999993682,1,0,0,rectangle,15.20001167,7.999993682,1,0,0,2,"[179,92,138,19,74,288,322,224,73,230,262,24,221,126,175,316,96,209,177,188]",15.20001167,7.999993682,1,0,0,0,31,31,112,1,,,
,,,,,,,,,,,,,FF,,,,,,,,0.7166,,,,,,,,,,,,,,,,,,,,,,,5ded025913911c3c46a677d7,60a66af1e47a63d368c27e1e,2021-05-21_11h49.26.183,Simcolourproject_2stim_asymm_v5,2020.2.10,Win32,60,60a5f9bf14d0aa2821c4bb84,IwAR3k7-6vj3irAEF0nSIH_BuJmJRQbL6BOnOOwIr76KIS1zz-MvQixBW2OPI,,,,,4016,40.80001205,-37.600007,1,0,0,response3disk,,5,-0.799988568,-3.200006485,1,0,0,rectangle,-0.799988568,-3.200006485,1,0,0,0,"[179,92,138,19,74,288,322,224,73,230,262,24,221,126,175,316,96,209,177,188]",-0.799988568,-3.200006485,1,0,0,0,32,32,72,1,,,
,,,,,,,,,,,,,FF,,,,,,,,0.733445,,,,,,,,,,,,,,,,,,,,,,,5ded025913911c3c46a677d7,60a66af1e47a63d368c27e1e,2021-05-21_11h49.26.183,Simcolourproject_2stim_asymm_v5,2020.2.10,Win32,60,60a5f9bf14d0aa2821c4bb84,IwAR3k7-6vj3irAEF0nSIH_BuJmJRQbL6BOnOOwIr76KIS1zz-MvQixBW2OPI,,,,,689,-35.99998909,-22.40000677,1,0,0,response5disk,,5,-1.59998858,-0.800006449,1,0,0,rectangle,-1.59998858,-0.800006449,1,0,0,3,"[179,92,138,19,74,288,322,224,73,230,262,24,221,126,175,316,96,209,177,188]",-1.59998858,-0.800006449,1,0,0,0,33,33,117,1,,,
,,,,,,,,,,,,,FF,,,,,,,,0.898995,,,,,,,,,,,,,,,,,,,,,,,5ded025913911c3c46a677d7,60a66af1e47a63d368c27e1e,2021-05-21_11h49.26.183,Simcolourproject_2stim_asymm_v5,2020.2.10,Win32,60,60a5f9bf14d0aa2821c4bb84,IwAR3k7-6vj3irAEF0nSIH_BuJmJRQbL6BOnOOwIr76KIS1zz-MvQixBW2OPI,,,,,3987,-32.79998904,19.19999385,1,0,0,response7disk,,1,-5.599988639,2.399993598,1,0,0,rectangle,-5.599988639,2.399993598,1,0,0,5,"[179,92,138,19,74,288,322,224,73,230,262,24,221,126,175,316,96,209,177,188]",-5.599988639,2.399993598,1,0,0,0,34,34,116,1,,,
,,,,,,,,,,,,,FF,,,,,,,,0.599765,,,,,,,,,,,,,,,,,,,,,,,5ded025913911c3c46a677d7,60a66af1e47a63d368c27e1e,2021-05-21_11h49.26.183,Simcolourproject_2stim_asymm_v5,2020.2.10,Win32,60,60a5f9bf14d0aa2821c4bb84,IwAR3k7-6vj3irAEF0nSIH_BuJmJRQbL6BOnOOwIr76KIS1zz-MvQixBW2OPI,,,,,1516,34.40001196,29.599994,1,0,0,response1disk,,6,-2.399939764,-2.400006473,1,0,0,rectangle,-2.399939764,-2.400006473,1,0,0,0,"[179,92,138,19,74,288,322,224,73,230,262,24,221,126,175,316,96,209,177,188]",-2.399939764,-2.400006473,1,0,0,0,35,35,22,1,,,
,,,,,,,,,,,,,FF,,,,,,,,0.732975,,,,,,,,,,,,,,,,,,,,,,,5ded025913911c3c46a677d7,60a66af1e47a63d368c27e1e,2021-05-21_11h49.26.183,Simcolourproject_2stim_asymm_v5,2020.2.10,Win32,60,60a5f9bf14d0aa2821c4bb84,IwAR3k7-6vj3irAEF0nSIH_BuJmJRQbL6BOnOOwIr76KIS1zz-MvQixBW2OPI,,,,,440,34.40001196,26.39999396,1,0,0,response1disk,,6,5.600060356,-6.4373E-06,1,0,0,rectangle,5.600060356,-6.4373E-06,1,0,0,5,"[179,92,138,19,74,288,322,224,73,230,262,24,221,126,175,316,96,209,177,188]",5.600060356,-6.4373E-06,1,0,0,0,36,36,49,1,,,
,,,,,,,,,,,,,FF,,,,,,,,0.83272,,,,,,,,,,,,,,,,,,,,,,,5ded025913911c3c46a677d7,60a66af1e47a63d368c27e1e,2021-05-21_11h49.26.183,Simcolourproject_2stim_asymm_v5,2020.2.10,Win32,60,60a5f9bf14d0aa2821c4bb84,IwAR3k7-6vj3irAEF0nSIH_BuJmJRQbL6BOnOOwIr76KIS1zz-MvQixBW2OPI,,,,,922,33.60006077,25.59999394,1,0,0,response1disk,,6,-3.999988616,-7.200006545,1,0,0,rectangle,-3.999988616,-7.200006545,1,0,0,1,"[179,92,138,19,74,288,322,224,73,230,262,24,221,126,175,316,96,209,177,188]",-3.999988616,-7.200006545,1,0,0,0,37,37,137,1,,,
,,,,,,,,,,,,,FF,,,,,,,,1.4823,,,,,,,,,,,,,,,,,,,,,,,5ded025913911c3c46a677d7,60a66af1e47a63d368c27e1e,2021-05-21_11h49.26.183,Simcolourproject_2stim_asymm_v5,2020.2.10,Win32,60,60a5f9bf14d0aa2821c4bb84,IwAR3k7-6vj3irAEF0nSIH_BuJmJRQbL6BOnOOwIr76KIS1zz-MvQixBW2OPI,,,,,1096,26.40001184,20.79999387,1,0,0,response1disk,,6,7.200011551,1.599993587,1,0,0,rectangle,7.200011551,1.599993587,1,0,0,4,"[179,92,138,19,74,288,322,224,73,230,262,24,221,126,175,316,96,209,177,188]",7.200011551,1.599993587,1,0,0,0,38,38,138,1,,,
,,,,,,,,,,,,,FF,,,,,,,,0.51675,,,,,,,,,,,,,,,,,,,,,,,5ded025913911c3c46a677d7,60a66af1e47a63d368c27e1e,2021-05-21_11h49.26.183,Simcolourproject_2stim_asymm_v5,2020.2.10,Win32,60,60a5f9bf14d0aa2821c4bb84,IwAR3k7-6vj3irAEF0nSIH_BuJmJRQbL6BOnOOwIr76KIS1zz-MvQixBW2OPI,,,,,1988,34.40001196,-46.40000713,1,0,0,response3disk,,4,1.600060296,-4.000006497,1,0,0,rectangle,1.600060296,-4.000006497,1,0,0,3,"[179,92,138,19,74,288,322,224,73,230,262,24,221,126,175,316,96,209,177,188]",1.600060296,-4.000006497,1,0,0,0,39,39,143,1,,,
,,,,,,,,,,,,,FF,,,,,,,,0.65027,,,,,,,,,,,,,,,,,,,,,,,5ded025913911c3c46a677d7,60a66af1e47a63d368c27e1e,2021-05-21_11h49.26.183,Simcolourproject_2stim_asymm_v5,2020.2.10,Win32,60,60a5f9bf14d0aa2821c4bb84,IwAR3k7-6vj3irAEF0nSIH_BuJmJRQbL6BOnOOwIr76KIS1zz-MvQixBW2OPI,,,,,1330,31.20001191,-28.00000685,1,0,0,response3disk,,5,-8.799988687,-8.800006568,1,0,0,rectangle,-8.799988687,-8.800006568,1,0,0,2,"[179,92,138,19,74,288,322,224,73,230,262,24,221,126,175,316,96,209,177,188]",-8.799988687,-8.800006568,1,0,0,0,40,40,93,1,,,
,,,,,,,,,,,,,FF,,,,,,,,0.666915,,,,,,,,,,,,,,,,,,,,,,,5ded025913911c3c46a677d7,60a66af1e47a63d368c27e1e,2021-05-21_11h49.26.183,Simcolourproject_2stim_asymm_v5,2020.2.10,Win32,60,60a5f9bf14d0aa2821c4bb84,IwAR3k7-6vj3irAEF0nSIH_BuJmJRQbL6BOnOOwIr76KIS1zz-MvQixBW2OPI,,,,,1251,35.20001197,-32.00000691,1,0,0,response3disk,,5,-0.799988568,-5.600006521,1,0,0,rectangle,-0.799988568,-5.600006521,1,0,0,4,"[179,92,138,19,74,288,322,224,73,230,262,24,221,126,175,316,96,209,177,188]",-0.799988568,-5.600006521,1,0,0,0,41,41,26,1,,,
,,,,,,,,,,,,,FF,,,,,,,,0.650185,,,,,,,,,,,,,,,,,,,,,,,5ded025913911c3c46a677d7,60a66af1e47a63d368c27e1e,2021-05-21_11h49.26.183,Simcolourproject_2stim_asymm_v5,2020.2.10,Win32,60,60a5f9bf14d0aa2821c4bb84,IwAR3k7-6vj3irAEF0nSIH_BuJmJRQbL6BOnOOwIr76KIS1zz-MvQixBW2OPI,,,,,2773,35.20001197,-20.80000675,1,0,0,response3disk,,5,2.40001148,-0.800006449,1,0,0,rectangle,2.40001148,-0.800006449,1,0,0,4,"[179,92,138,19,74,288,322,224,73,230,262,24,221,126,175,316,96,209,177,188]",2.40001148,-0.800006449,1,0,0,0,42,42,66,1,,,
,,,,,,,,,,,,,FF,,,,,,,,0.8334,,,,,,,,,,,,,,,,,,,,,,,5ded025913911c3c46a677d7,60a66af1e47a63d368c27e1e,2021-05-21_11h49.26.183,Simcolourproject_2stim_asymm_v5,2020.2.10,Win32,60,60a5f9bf14d0aa2821c4bb84,IwAR3k7-6vj3irAEF0nSIH_BuJmJRQbL6BOnOOwIr76KIS1zz-MvQixBW2OPI,,,,,232,34.40001196,-34.40000695,1,0,0,response3disk,,5,-0.799988568,8.799993694,1,0,0,rectangle,-0.799988568,8.799993694,1,0,0,1,"[179,92,138,19,74,288,322,224,73,230,262,24,221,126,175,316,96,209,177,188]",-0.799988568,8.799993694,1,0,0,0,43,43,76,1,,,
,,,,,,,,,,,,,FF,,,,,,,,0.732575,,,,,,,,,,,,,,,,,,,,,,,5ded025913911c3c46a677d7,60a66af1e47a63d368c27e1e,2021-05-21_11h49.26.183,Simcolourproject_2stim_asymm_v5,2020.2.10,Win32,60,60a5f9bf14d0aa2821c4bb84,IwAR3k7-6vj3irAEF0nSIH_BuJmJRQbL6BOnOOwIr76KIS1zz-MvQixBW2OPI,,,,,1579,40.80001205,30.39999402,1,0,0,response1disk,,6,-6.399939823,7.999993682,1,0,0,rectangle,-6.399939823,7.999993682,1,0,0,1,"[179,92,138,19,74,288,322,224,73,230,262,24,221,126,175,316,96,209,177,188]",-6.399939823,7.999993682,1,0,0,0,44,44,126,1,,,
,,,,,,,,,,,,,FF,,,,,,,,0.46627,,,,,,,,,,,,,,,,,,,,,,,5ded025913911c3c46a677d7,60a66af1e47a63d368c27e1e,2021-05-21_11h49.26.183,Simcolourproject_2stim_asymm_v5,2020.2.10,Win32,60,60a5f9bf14d0aa2821c4bb84,IwAR3k7-6vj3irAEF0nSIH_BuJmJRQbL6BOnOOwIr76KIS1zz-MvQixBW2OPI,,,,,1219,50.4000122,38.39999413,1,0,0,response1disk,,6,1.14441E-05,-4.000006497,1,0,0,rectangle,1.14441E-05,-4.000006497,1,0,0,7,"[179,92,138,19,74,288,322,224,73,230,262,24,221,126,175,316,96,209,177,188]",1.14441E-05,-4.000006497,1,0,0,0,45,45,68,1,,,
,,,,,,,,,,,,,FF,,,,,,,,0.55026,,,,,,,,,,,,,,,,,,,,,,,5ded025913911c3c46a677d7,60a66af1e47a63d368c27e1e,2021-05-21_11h49.26.183,Simcolourproject_2stim_asymm_v5,2020.2.10,Win32,60,60a5f9bf14d0aa2821c4bb84,IwAR3k7-6vj3irAEF0nSIH_BuJmJRQbL6BOnOOwIr76KIS1zz-MvQixBW2OPI,,,,,133,58.40001231,24.79999393,1,0,0,response1disk,,6,12.80001163,-9.60000658,1,0,0,rectangle,12.80001163,-9.60000658,1,0,0,0,"[179,92,138,19,74,288,322,224,73,230,262,24,221,126,175,316,96,209,177,188]",12.80001163,-9.60000658,1,0,0,0,46,46,109,1,,,
,,,,,,,,,,,,,FF,,,,,,,,0.500165,,,,,,,,,,,,,,,,,,,,,,,5ded025913911c3c46a677d7,60a66af1e47a63d368c27e1e,2021-05-21_11h49.26.183,Simcolourproject_2stim_asymm_v5,2020.2.10,Win32,60,60a5f9bf14d0aa2821c4bb84,IwAR3k7-6vj3irAEF0nSIH_BuJmJRQbL6BOnOOwIr76KIS1zz-MvQixBW2OPI,,,,,302,57.6000123,24.79999393,1,0,0,response1disk,,6,4.000011504,-2.400006473,1,0,0,rectangle,4.000011504,-2.400006473,1,0,0,6,"[179,92,138,19,74,288,322,224,73,230,262,24,221,126,175,316,96,209,177,188]",4.000011504,-2.400006473,1,0,0,0,47,47,25,1,,,
,,,,,,,,,,,,,FF,,,,,,,,0.616835,,,,,,,,,,,,,,,,,,,,,,,5ded025913911c3c46a677d7,60a66af1e47a63d368c27e1e,2021-05-21_11h49.26.183,Simcolourproject_2stim_asymm_v5,2020.2.10,Win32,60,60a5f9bf14d0aa2821c4bb84,IwAR3k7-6vj3irAEF0nSIH_BuJmJRQbL6BOnOOwIr76KIS1zz-MvQixBW2OPI,,,,,3465,47.20001215,27.99999398,1,0,0,response1disk,,6,4.800011516,0.799993575,1,0,0,rectangle,4.800011516,0.799993575,1,0,0,5,"[179,92,138,19,74,288,322,224,73,230,262,24,221,126,175,316,96,209,177,188]",4.800011516,0.799993575,1,0,0,0,48,48,44,1,,,
,,,,,,,,,,,,,FF,,,,,,,,0.49948,,,,,,,,,,,,,,,,,,,,,,,5ded025913911c3c46a677d7,60a66af1e47a63d368c27e1e,2021-05-21_11h49.26.183,Simcolourproject_2stim_asymm_v5,2020.2.10,Win32,60,60a5f9bf14d0aa2821c4bb84,IwAR3k7-6vj3irAEF0nSIH_BuJmJRQbL6BOnOOwIr76KIS1zz-MvQixBW2OPI,,,,,4248,36.00001198,-27.20000684,1,0,0,response3disk,,5,-3.999988616,-0.800006449,1,0,0,rectangle,-3.999988616,-0.800006449,1,0,0,1,"[179,92,138,19,74,288,322,224,73,230,262,24,221,126,175,316,96,209,177,188]",-3.999988616,-0.800006449,1,0,0,0,49,49,158,1,,,
,,,,,,,,,,,,,FF,,,,,,,,0.483405,,,,,,,,,,,,,,,,,,,,,,,5ded025913911c3c46a677d7,60a66af1e47a63d368c27e1e,2021-05-21_11h49.26.183,Simcolourproject_2stim_asymm_v5,2020.2.10,Win32,60,60a5f9bf14d0aa2821c4bb84,IwAR3k7-6vj3irAEF0nSIH_BuJmJRQbL6BOnOOwIr76KIS1zz-MvQixBW2OPI,,,,,778,46.40001214,-33.60000694,1,0,0,response3disk,,5,9.600060415,-10.40000659,1,0,0,rectangle,9.600060415,-10.40000659,1,0,0,4,"[179,92,138,19,74,288,322,224,73,230,262,24,221,126,175,316,96,209,177,188]",9.600060415,-10.40000659,1,0,0,0,50,50,98,1,,,
,,,,,,,,,,,,,FF,,,,,,,,0.549705,,,,,,,,,,,,,,,,,,,,,,,5ded025913911c3c46a677d7,60a66af1e47a63d368c27e1e,2021-05-21_11h49.26.183,Simcolourproject_2stim_asymm_v5,2020.2.10,Win32,60,60a5f9bf14d0aa2821c4bb84,IwAR3k7-6vj3irAEF0nSIH_BuJmJRQbL6BOnOOwIr76KIS1zz-MvQixBW2OPI,,,,,972,45.60006095,-36.80000699,1,0,0,response3disk,,5,2.40001148,-7.200006545,1,0,0,rectangle,2.40001148,-7.200006545,1,0,0,5,"[179,92,138,19,74,288,322,224,73,230,262,24,221,126,175,316,96,209,177,188]",2.40001148,-7.200006545,1,0,0,0,51,51,107,1,,,
,,,,,,,,,,,,,FF,,,,,,,,0.582745,,,,,,,,,,,,,,,,,,,,,,,5ded025913911c3c46a677d7,60a66af1e47a63d368c27e1e,2021-05-21_11h49.26.183,Simcolourproject_2stim_asymm_v5,2020.2.10,Win32,60,60a5f9bf14d0aa2821c4bb84,IwAR3k7-6vj3irAEF0nSIH_BuJmJRQbL6BOnOOwIr76KIS1zz-MvQixBW2OPI,,,,,538,41.60006089,-39.20000702,1,0,0,response3disk,,5,-2.399939764,-4.800006509,1,0,0,rectangle,-2.399939764,-4.800006509,1,0,0,6,"[179,92,138,19,74,288,322,224,73,230,262,24,221,126,175,316,96,209,177,188]",-2.399939764,-4.800006509,1,0,0,0,52,52,113,1,,,
,,,,,,,,,,,,,FF,,,,,,,,0.58198,,,,,,,,,,,,,,,,,,,,,,,5ded025913911c3c46a677d7,60a66af1e47a63d368c27e1e,2021-05-21_11h49.26.183,Simcolourproject_2stim_asymm_v5,2020.2.10,Win32,60,60a5f9bf14d0aa2821c4bb84,IwAR3k7-6vj3irAEF0nSIH_BuJmJRQbL6BOnOOwIr76KIS1zz-MvQixBW2OPI,,,,,3642,44.80001211,35.19996967,1,0,0,response1disk,,6,-10.39993988,3.19999361,1,0,0,rectangle,-10.39993988,3.19999361,1,0,0,7,"[179,92,138,19,74,288,322,224,73,230,262,24,221,126,175,316,96,209,177,188]",-10.39993988,3.19999361,1,0,0,0,53,53,70,1,,,
,,,,,,,,,,,,,FF,,,,,,,,0.74967,,,,,,,,,,,,,,,,,,,,,,,5ded025913911c3c46a677d7,60a66af1e47a63d368c27e1e,2021-05-21_11h49.26.183,Simcolourproject_2stim_asymm_v5,2020.2.10,Win32,60,60a5f9bf14d0aa2821c4bb84,IwAR3k7-6vj3irAEF0nSIH_BuJmJRQbL6BOnOOwIr76KIS1zz-MvQixBW2OPI,,,,,769,33.60006077,-57.6000073,1,0,0,response3disk,,4,-19.19998884,-5.600006521,1,0,0,rectangle,-19.19998884,-5.600006521,1,0,0,1,"[179,92,138,19,74,288,322,224,73,230,262,24,221,126,175,316,96,209,177,188]",-19.19998884,-5.600006521,1,0,0,0,54,54,13,1,,,
,,,,,,,,,,,,,FF,,,,,,,,0.382905,,,,,,,,,,,,,,,,,,,,,,,5ded025913911c3c46a677d7,60a66af1e47a63d368c27e1e,2021-05-21_11h49.26.183,Simcolourproject_2stim_asymm_v5,2020.2.10,Win32,60,60a5f9bf14d0aa2821c4bb84,IwAR3k7-6vj3irAEF0nSIH_BuJmJRQbL6BOnOOwIr76KIS1zz-MvQixBW2OPI,,,,,1650,51.20001221,-48.00000715,1,0,0,response3disk,,5,1.600060296,-0.800006449,1,0,0,rectangle,1.600060296,-0.800006449,1,0,0,7,"[179,92,138,19,74,288,322,224,73,230,262,24,221,126,175,316,96,209,177,188]",1.600060296,-0.800006449,1,0,0,0,55,55,46,1,,,
,,,,,,,,,,,,,FF,,,,,,,,1.115875,,,,,,,,,,,,,,,,,,,,,,,5ded025913911c3c46a677d7,60a66af1e47a63d368c27e1e,2021-05-21_11h49.26.183,Simcolourproject_2stim_asymm_v5,2020.2.10,Win32,60,60a5f9bf14d0aa2821c4bb84,IwAR3k7-6vj3irAEF0nSIH_BuJmJRQbL6BOnOOwIr76KIS1zz-MvQixBW2OPI,,,,,741,50.4000122,-48.00000715,1,0,0,response3disk,,5,10.4000116,-5.600006521,1,0,0,rectangle,10.4000116,-5.600006521,1,0,0,5,"[179,92,138,19,74,288,322,224,73,230,262,24,221,126,175,316,96,209,177,188]",10.4000116,-5.600006521,1,0,0,0,56,56,86,1,,,
,,,,,,,,,,,,,FF,,,,,,,,0.48298,,,,,,,,,,,,,,,,,,,,,,,5ded025913911c3c46a677d7,60a66af1e47a63d368c27e1e,2021-05-21_11h49.26.183,Simcolourproject_2stim_asymm_v5,2020.2.10,Win32,60,60a5f9bf14d0aa2821c4bb84,IwAR3k7-6vj3irAEF0nSIH_BuJmJRQbL6BOnOOwIr76KIS1zz-MvQixBW2OPI,,,,,738,56.80001229,-49.60000718,1,0,0,response3disk,,5,13.60006047,-14.40000665,1,0,0,rectangle,13.60006047,-14.40000665,1,0,0,3,"[179,92,138,19,74,288,322,224,73,230,262,24,221,126,175,316,96,209,177,188]",13.60006047,-14.40000665,1,0,0,0,57,57,92,1,,,
,,,,,,,,,,,,,FF,,,,,,,,0.49879,,,,,,,,,,,,,,,,,,,,,,,5ded025913911c3c46a677d7,60a66af1e47a63d368c27e1e,2021-05-21_11h49.26.183,Simcolourproject_2stim_asymm_v5,2020.2.10,Win32,60,60a5f9bf14d0aa2821c4bb84,IwAR3k7-6vj3irAEF0nSIH_BuJmJRQbL6BOnOOwIr76KIS1zz-MvQixBW2OPI,,,,,1497,50.4000122,-51.2000072,1,0,0,response3disk,,4,4.800011516,-8.800006568,1,0,0,rectangle,4.800011516,-8.800006568,1,0,0,0,"[179,92,138,19,74,288,322,224,73,230,262,24,221,126,175,316,96,209,177,188]",4.800011516,-8.800006568,1,0,0,0,58,58,91,1,,,
,,,,,,,,,,,,,FF,,,,,,,,0.46601,,,,,,,,,,,,,,,,,,,,,,,5ded025913911c3c46a677d7,60a66af1e47a63d368c27e1e,2021-05-21_11h49.26.183,Simcolourproject_2stim_asymm_v5,2020.2.10,Win32,60,60a5f9bf14d0aa2821c4bb84,IwAR3k7-6vj3irAEF0nSIH_BuJmJRQbL6BOnOOwIr76KIS1zz-MvQixBW2OPI,,,,,3273,43.20001209,43.99999422,1,0,0,response1disk,,7,-4.799988627,4.799993634,1,0,0,rectangle,-4.799988627,4.799993634,1,0,0,0,"[179,92,138,19,74,288,322,224,73,230,262,24,221,126,175,316,96,209,177,188]",-4.799988627,4.799993634,1,0,0,0,59,59,157,1,,,
,,,,,,,,,,,,,FF,,,,,,,,0.54909,,,,,,,,,,,,,,,,,,,,,,,5ded025913911c3c46a677d7,60a66af1e47a63d368c27e1e,2021-05-21_11h49.26.183,Simcolourproject_2stim_asymm_v5,2020.2.10,Win32,60,60a5f9bf14d0aa2821c4bb84,IwAR3k7-6vj3irAEF0nSIH_BuJmJRQbL6BOnOOwIr76KIS1zz-MvQixBW2OPI,,,,,2834,40.00001204,-39.20000702,1,0,0,response3disk,,5,-0.799988568,6.399993658,1,0,0,rectangle,-0.799988568,6.399993658,1,0,0,4,"[179,92,138,19,74,288,322,224,73,230,262,24,221,126,175,316,96,209,177,188]",-0.799988568,6.399993658,1,0,0,0,60,60,45,1,,,
,,,,,,,,,,,,,FF,,,,,,,,0.632465,,,,,,,,,,,,,,,,,,,,,,,5ded025913911c3c46a677d7,60a66af1e47a63d368c27e1e,2021-05-21_11h49.26.183,Simcolourproject_2stim_asymm_v5,2020.2.10,Win32,60,60a5f9bf14d0aa2821c4bb84,IwAR3k7-6vj3irAEF0nSIH_BuJmJRQbL6BOnOOwIr76KIS1zz-MvQixBW2OPI,,,,,1662,36.00001198,26.39999396,1,0,0,response1disk,,6,-11.19998872,-3.200006485,1,0,0,rectangle,-11.19998872,-3.200006485,1,0,0,6,"[179,92,138,19,74,288,322,224,73,230,262,24,221,126,175,316,96,209,177,188]",-11.19998872,-3.200006485,1,0,0,0,61,61,0,1,,,
,,,,,,,,,,,,,FF,,,,,,,,0.615225,,,,,,,,,,,,,,,,,,,,,,,5ded025913911c3c46a677d7,60a66af1e47a63d368c27e1e,2021-05-21_11h49.26.183,Simcolourproject_2stim_asymm_v5,2020.2.10,Win32,60,60a5f9bf14d0aa2821c4bb84,IwAR3k7-6vj3irAEF0nSIH_BuJmJRQbL6BOnOOwIr76KIS1zz-MvQixBW2OPI,,,,,1934,28.00001186,34.39999408,1,0,0,response1disk,,7,7.200011551,11.99999374,1,0,0,rectangle,7.200011551,11.99999374,1,0,0,2,"[179,92,138,19,74,288,322,224,73,230,262,24,221,126,175,316,96,209,177,188]",7.200011551,11.99999374,1,0,0,0,62,62,31,1,,,
,,,,,,,,,,,,,FF,,,,,,,,0.66622,,,,,,,,,,,,,,,,,,,,,,,5ded025913911c3c46a677d7,60a66af1e47a63d368c27e1e,2021-05-21_11h49.26.183,Simcolourproject_2stim_asymm_v5,2020.2.10,Win32,60,60a5f9bf14d0aa2821c4bb84,IwAR3k7-6vj3irAEF0nSIH_BuJmJRQbL6BOnOOwIr76KIS1zz-MvQixBW2OPI,,,,,3462,33.60006077,29.599994,1,0,0,response1disk,,6,1.14441E-05,7.19999367,1,0,0,rectangle,1.14441E-05,7.19999367,1,0,0,1,"[179,92,138,19,74,288,322,224,73,230,262,24,221,126,175,316,96,209,177,188]",1.14441E-05,7.19999367,1,0,0,0,63,63,51,1,,,
,,,,,,,,,,,,,FF,,,,,,,,0.61721,,,,,,,,,,,,,,,,,,,,,,,5ded025913911c3c46a677d7,60a66af1e47a63d368c27e1e,2021-05-21_11h49.26.183,Simcolourproject_2stim_asymm_v5,2020.2.10,Win32,60,60a5f9bf14d0aa2821c4bb84,IwAR3k7-6vj3irAEF0nSIH_BuJmJRQbL6BOnOOwIr76KIS1zz-MvQixBW2OPI,,,,,3164,40.00001204,29.599994,1,0,0,response1disk,,6,8.800011575,6.399993658,1,0,0,rectangle,8.800011575,6.399993658,1,0,0,6,"[179,92,138,19,74,288,322,224,73,230,262,24,221,126,175,316,96,209,177,188]",8.800011575,6.399993658,1,0,0,0,64,64,135,1,,,
,,,,,,,,,,,,,FF,,,,,,,,0.699205,,,,,,,,,,,,,,,,,,,,,,,5ded025913911c3c46a677d7,60a66af1e47a63d368c27e1e,2021-05-21_11h49.26.183,Simcolourproject_2stim_asymm_v5,2020.2.10,Win32,60,60a5f9bf14d0aa2821c4bb84,IwAR3k7-6vj3irAEF0nSIH_BuJmJRQbL6BOnOOwIr76KIS1zz-MvQixBW2OPI,,,,,2363,33.60006077,19.99999386,1,0,0,response1disk,,6,-1.59998858,-2.400006473,1,0,0,rectangle,-1.59998858,-2.400006473,1,0,0,2,"[179,92,138,19,74,288,322,224,73,230,262,24,221,126,175,316,96,209,177,188]",-1.59998858,-2.400006473,1,0,0,0,65,65,129,1,,,
,,,,,,,,,,,,,FF,,,,,,,,0.782555,,,,,,,,,,,,,,,,,,,,,,,5ded025913911c3c46a677d7,60a66af1e47a63d368c27e1e,2021-05-21_11h49.26.183,Simcolourproject_2stim_asymm_v5,2020.2.10,Win32,60,60a5f9bf14d0aa2821c4bb84,IwAR3k7-6vj3irAEF0nSIH_BuJmJRQbL6BOnOOwIr76KIS1zz-MvQixBW2OPI,,,,,3719,42.40001208,-28.00000685,1,0,0,response3disk,,5,11.20001161,11.19999373,1,0,0,rectangle,11.20001161,11.19999373,1,0,0,2,"[179,92,138,19,74,288,322,224,73,230,262,24,221,126,175,316,96,209,177,188]",11.20001161,11.19999373,1,0,0,0,66,66,35,1,,,
,,,,,,,,,,,,,FF,,,,,,,,1.599315,,,,,,,,,,,,,,,,,,,,,,,5ded025913911c3c46a677d7,60a66af1e47a63d368c27e1e,2021-05-21_11h49.26.183,Simcolourproject_2stim_asymm_v5,2020.2.10,Win32,60,60a5f9bf14d0aa2821c4bb84,IwAR3k7-6vj3irAEF0nSIH_BuJmJRQbL6BOnOOwIr76KIS1zz-MvQixBW2OPI,,,,,2823,36.00001198,-35.20000696,1,0,0,response3disk,,5,-3.999988616,-6.4373E-06,1,0,0,rectangle,-3.999988616,-6.4373E-06,1,0,0,1,"[179,92,138,19,74,288,322,224,73,230,262,24,221,126,175,316,96,209,177,188]",-3.999988616,-6.4373E-06,1,0,0,0,67,67,1,1,,,
,,,,,,,,,,,,,FF,,,,,,,,0.933375,,,,,,,,,,,,,,,,,,,,,,,5ded025913911c3c46a677d7,60a66af1e47a63d368c27e1e,2021-05-21_11h49.26.183,Simcolourproject_2stim_asymm_v5,2020.2.10,Win32,60,60a5f9bf14d0aa2821c4bb84,IwAR3k7-6vj3irAEF0nSIH_BuJmJRQbL6BOnOOwIr76KIS1zz-MvQixBW2OPI,,,,,1410,28.80001187,-40.80000705,1,0,0,response3disk,,4,4.000011504,-10.40000659,1,0,0,rectangle,4.000011504,-10.40000659,1,0,0,5,"[179,92,138,19,74,288,322,224,73,230,262,24,221,126,175,316,96,209,177,188]",4.000011504,-10.40000659,1,0,0,0,68,68,40,1,,,
,,,,,,,,,,,,,FF,,,,,,,,0.666055,,,,,,,,,,,,,,,,,,,,,,,5ded025913911c3c46a677d7,60a66af1e47a63d368c27e1e,2021-05-21_11h49.26.183,Simcolourproject_2stim_asymm_v5,2020.2.10,Win32,60,60a5f9bf14d0aa2821c4bb84,IwAR3k7-6vj3irAEF0nSIH_BuJmJRQbL6BOnOOwIr76KIS1zz-MvQixBW2OPI,,,,,3258,44.0000121,-29.60000688,1,0,0,response3disk,,5,7.200011551,-11.2000066,1,0,0,rectangle,7.200011551,-11.2000066,1,0,0,5,"[179,92,138,19,74,288,322,224,73,230,262,24,221,126,175,316,96,209,177,188]",7.200011551,-11.2000066,1,0,0,0,69,69,87,1,,,
,,,,,,,,,,,,,FF,,,,,,,,0.633005,,,,,,,,,,,,,,,,,,,,,,,5ded025913911c3c46a677d7,60a66af1e47a63d368c27e1e,2021-05-21_11h49.26.183,Simcolourproject_2stim_asymm_v5,2020.2.10,Win32,60,60a5f9bf14d0aa2821c4bb84,IwAR3k7-6vj3irAEF0nSIH_BuJmJRQbL6BOnOOwIr76KIS1zz-MvQixBW2OPI,,,,,2030,34.40001196,-25.60000682,1,0,0,response3disk,,5,9.600060415,-6.400006533,1,0,0,rectangle,9.600060415,-6.400006533,1,0,0,1,"[179,92,138,19,74,288,322,224,73,230,262,24,221,126,175,316,96,209,177,188]",9.600060415,-6.400006533,1,0,0,0,70,70,146,1,,,
,,,,,,,,,,,,,FF,,,,,,,,2.86411,,,,,,,,,,,,,,,,,,,,,,,5ded025913911c3c46a677d7,60a66af1e47a63d368c27e1e,2021-05-21_11h49.26.183,Simcolourproject_2stim_asymm_v5,2020.2.10,Win32,60,60a5f9bf14d0aa2821c4bb84,IwAR3k7-6vj3irAEF0nSIH_BuJmJRQbL6BOnOOwIr76KIS1zz-MvQixBW2OPI,,,,,1933,39.20001203,-40.00000703,1,0,0,response3disk,,4,8.800011575,-6.400006533,1,0,0,rectangle,8.800011575,-6.400006533,1,0,0,7,"[179,92,138,19,74,288,322,224,73,230,262,24,221,126,175,316,96,209,177,188]",8.800011575,-6.400006533,1,0,0,0,71,71,65,1,,,
,,,,,,,,,,,,,FF,,,,,,,,0.783195,,,,,,,,,,,,,,,,,,,,,,,5ded025913911c3c46a677d7,60a66af1e47a63d368c27e1e,2021-05-21_11h49.26.183,Simcolourproject_2stim_asymm_v5,2020.2.10,Win32,60,60a5f9bf14d0aa2821c4bb84,IwAR3k7-6vj3irAEF0nSIH_BuJmJRQbL6BOnOOwIr76KIS1zz-MvQixBW2OPI,,,,,1786,-61.59998947,52.79999435,1,0,0,response7disk,,1,-4.799988627,9.599993706,1,0,0,rectangle,-35.99998909,-29.60000688,1,0,0,2,"[179,92,138,19,74,288,322,224,73,230,262,24,221,126,175,316,96,209,177,188]",-7.999988675,7.999993682,1,0,0,0,72,72,59,1,,response5disk_3,rectangle
,,,,,,,,,,,,,FF,,,,,,,,4.7786,,,,,,,,,,,,,,,,,,,,,,,5ded025913911c3c46a677d7,60a66af1e47a63d368c27e1e,2021-05-21_11h49.26.183,Simcolourproject_2stim_asymm_v5,2020.2.10,Win32,60,60a5f9bf14d0aa2821c4bb84,IwAR3k7-6vj3irAEF0nSIH_BuJmJRQbL6BOnOOwIr76KIS1zz-MvQixBW2OPI,,,,,472,37.60006083,-51.2000072,1,0,0,response3disk,,4,-0.799988568,2.399993598,1,0,0,rectangle,36.00001198,-39.20000702,1,0,0,0,"[179,92,138,19,74,288,322,224,73,230,262,24,221,126,175,316,96,209,177,188]",10.4000116,-6.400006533,1,0,0,0,73,73,23,1,,response3disk_3,rectangle
,,,,,,,,,,,,,FF,,,,,,,,6.711315,,,,,,,,,,,,,,,,,,,,,,,5ded025913911c3c46a677d7,60a66af1e47a63d368c27e1e,2021-05-21_11h49.26.183,Simcolourproject_2stim_asymm_v5,2020.2.10,Win32,60,60a5f9bf14d0aa2821c4bb84,IwAR3k7-6vj3irAEF0nSIH_BuJmJRQbL6BOnOOwIr76KIS1zz-MvQixBW2OPI,,,,,2517,-40.79998916,-64.8000074,1,0,0,response5disk,,3,-7.199988663,-5.600006521,1,0,0,rectangle,-7.199988663,-5.600006521,1,0,0,6,"[179,92,138,19,74,288,322,224,73,230,262,24,221,126,175,316,96,209,177,188]",-7.199988663,-5.600006521,1,0,0,0,74,74,60,1,,,
,,,,,,,,,,,,,FF,,,,,,,,5.14643,,,,,,,,,,,,,,,,,,,,,,,5ded025913911c3c46a677d7,60a66af1e47a63d368c27e1e,2021-05-21_11h49.26.183,Simcolourproject_2stim_asymm_v5,2020.2.10,Win32,60,60a5f9bf14d0aa2821c4bb84,IwAR3k7-6vj3irAEF0nSIH_BuJmJRQbL6BOnOOwIr76KIS1zz-MvQixBW2OPI,,,,,3502,-46.39994042,-43.20000708,1,0,0,response5disk,,3,9.600060415,1.599993587,1,0,0,rectangle,9.600060415,1.599993587,1,0,0,7,"[179,92,138,19,74,288,322,224,73,230,262,24,221,126,175,316,96,209,177,188]",9.600060415,1.599993587,1,0,0,0,75,75,96,1,,,
,,,,,,,,,,,,,FF,,,,,,,,1.332165,,,,,,,,,,,,,,,,,,,,,,,5ded025913911c3c46a677d7,60a66af1e47a63d368c27e1e,2021-05-21_11h49.26.183,Simcolourproject_2stim_asymm_v5,2020.2.10,Win32,60,60a5f9bf14d0aa2821c4bb84,IwAR3k7-6vj3irAEF0nSIH_BuJmJRQbL6BOnOOwIr76KIS1zz-MvQixBW2OPI,,,,,75,-41.59998918,-32.80000693,1,0,0,response5disk,,3,8.000011563,5.599993646,1,0,0,rectangle,8.000011563,5.599993646,1,0,0,4,"[179,92,138,19,74,288,322,224,73,230,262,24,221,126,175,316,96,209,177,188]",8.000011563,5.599993646,1,0,0,0,76,76,144,1,,,
,,,,,,,,,,,,,FF,,,,,,,,0.71648,,,,,,,,,,,,,,,,,,,,,,,5ded025913911c3c46a677d7,60a66af1e47a63d368c27e1e,2021-05-21_11h49.26.183,Simcolourproject_2stim_asymm_v5,2020.2.10,Win32,60,60a5f9bf14d0aa2821c4bb84,IwAR3k7-6vj3irAEF0nSIH_BuJmJRQbL6BOnOOwIr76KIS1zz-MvQixBW2OPI,,,,,856,-27.19998896,-25.60000682,1,0,0,response5disk,,3,16.00001168,10.39999372,1,0,0,rectangle,16.00001168,10.39999372,1,0,0,6,"[179,92,138,19,74,288,322,224,73,230,262,24,221,126,175,316,96,209,177,188]",16.00001168,10.39999372,1,0,0,0,77,77,53,1,,,
,,,,,,,,,,,,,FF,,,,,,,,0.86508,,,,,,,,,,,,,,,,,,,,,,,5ded025913911c3c46a677d7,60a66af1e47a63d368c27e1e,2021-05-21_11h49.26.183,Simcolourproject_2stim_asymm_v5,2020.2.10,Win32,60,60a5f9bf14d0aa2821c4bb84,IwAR3k7-6vj3irAEF0nSIH_BuJmJRQbL6BOnOOwIr76KIS1zz-MvQixBW2OPI,,,,,2873,-41.59998918,-17.6000067,1,0,0,response5disk,,3,32.80001193,7.999993682,1,0,0,rectangle,32.80001193,7.999993682,1,0,0,6,"[179,92,138,19,74,288,322,224,73,230,262,24,221,126,175,316,96,209,177,188]",32.80001193,7.999993682,1,0,0,0,78,78,89,1,,,
,,,,,,,,,,,,,FF,,,,,,,,0.715275,,,,,,,,,,,,,,,,,,,,,,,5ded025913911c3c46a677d7,60a66af1e47a63d368c27e1e,2021-05-21_11h49.26.183,Simcolourproject_2stim_asymm_v5,2020.2.10,Win32,60,60a5f9bf14d0aa2821c4bb84,IwAR3k7-6vj3irAEF0nSIH_BuJmJRQbL6BOnOOwIr76KIS1zz-MvQixBW2OPI,,,,,4274,-31.19998902,-38.40000701,1,0,0,response5disk,,3,8.800011575,-2.400006473,1,0,0,rectangle,8.800011575,-2.400006473,1,0,0,0,"[179,92,138,19,74,288,322,224,73,230,262,24,221,126,175,316,96,209,177,188]",8.800011575,-2.400006473,1,0,0,0,79,79,18,1,,,
,,,,,,,,,,,,,FF,,,,,,,,0.699695,,,,,,,,,,,,,,,,,,,,,,,5ded025913911c3c46a677d7,60a66af1e47a63d368c27e1e,2021-05-21_11h49.26.183,Simcolourproject_2stim_asymm_v5,2020.2.10,Win32,60,60a5f9bf14d0aa2821c4bb84,IwAR3k7-6vj3irAEF0nSIH_BuJmJRQbL6BOnOOwIr76KIS1zz-MvQixBW2OPI,,,,,816,-39.19998914,-26.40000683,1,0,0,response5disk,,3,2.40001148,3.999993622,1,0,0,rectangle,2.40001148,3.999993622,1,0,0,7,"[179,92,138,19,74,288,322,224,73,230,262,24,221,126,175,316,96,209,177,188]",2.40001148,3.999993622,1,0,0,0,80,80,148,1,,,
,,,,,,,,,,,,,FF,,,,,,,,1.06695,,,,,,,,,,,,,,,,,,,,,,,5ded025913911c3c46a677d7,60a66af1e47a63d368c27e1e,2021-05-21_11h49.26.183,Simcolourproject_2stim_asymm_v5,2020.2.10,Win32,60,60a5f9bf14d0aa2821c4bb84,IwAR3k7-6vj3irAEF0nSIH_BuJmJRQbL6BOnOOwIr76KIS1zz-MvQixBW2OPI,,,,,4216,-34.39994024,-32.00000691,1,0,0,response5disk,,3,-11.19998872,-3.200006485,1,0,0,rectangle,-11.19998872,-3.200006485,1,0,0,5,"[179,92,138,19,74,288,322,224,73,230,262,24,221,126,175,316,96,209,177,188]",-11.19998872,-3.200006485,1,0,0,0,81,81,101,1,,,
,,,,,,,,,,,,,FF,,,,,,,,0.58217,,,,,,,,,,,,,,,,,,,,,,,5ded025913911c3c46a677d7,60a66af1e47a63d368c27e1e,2021-05-21_11h49.26.183,Simcolourproject_2stim_asymm_v5,2020.2.10,Win32,60,60a5f9bf14d0aa2821c4bb84,IwAR3k7-6vj3irAEF0nSIH_BuJmJRQbL6BOnOOwIr76KIS1zz-MvQixBW2OPI,,,,,1660,-41.59998918,-38.40000701,1,0,0,response5disk,,3,10.4000116,7.19999367,1,0,0,rectangle,10.4000116,7.19999367,1,0,0,1,"[179,92,138,19,74,288,322,224,73,230,262,24,221,126,175,316,96,209,177,188]",10.4000116,7.19999367,1,0,0,0,82,82,84,1,,,
,,,,,,,,,,,,,FF,,,,,,,,1.16453,,,,,,,,,,,,,,,,,,,,,,,5ded025913911c3c46a677d7,60a66af1e47a63d368c27e1e,2021-05-21_11h49.26.183,Simcolourproject_2stim_asymm_v5,2020.2.10,Win32,60,60a5f9bf14d0aa2821c4bb84,IwAR3k7-6vj3irAEF0nSIH_BuJmJRQbL6BOnOOwIr76KIS1zz-MvQixBW2OPI,,,,,3800,-33.59998906,59.99999446,1,0,0,response7disk,,0,4.800011516,11.99999374,1,0,0,rectangle,4.800011516,11.99999374,1,0,0,0,"[179,92,138,19,74,288,322,224,73,230,262,24,221,126,175,316,96,209,177,188]",4.800011516,11.99999374,1,0,0,0,83,83,150,1,,,
,,,,,,,,,,,,,FF,,,,,,,,0.816215,,,,,,,,,,,,,,,,,,,,,,,5ded025913911c3c46a677d7,60a66af1e47a63d368c27e1e,2021-05-21_11h49.26.183,Simcolourproject_2stim_asymm_v5,2020.2.10,Win32,60,60a5f9bf14d0aa2821c4bb84,IwAR3k7-6vj3irAEF0nSIH_BuJmJRQbL6BOnOOwIr76KIS1zz-MvQixBW2OPI,,,,,1044,-43.99998921,39.19996973,1,0,0,response7disk,,1,7.200011551,0.799993575,1,0,0,rectangle,7.200011551,0.799993575,1,0,0,3,"[179,92,138,19,74,288,322,224,73,230,262,24,221,126,175,316,96,209,177,188]",7.200011551,0.799993575,1,0,0,0,84,84,77,1,,,
,,,,,,,,,,,,,FF,,,,,,,,0.599705,,,,,,,,,,,,,,,,,,,,,,,5ded025913911c3c46a677d7,60a66af1e47a63d368c27e1e,2021-05-21_11h49.26.183,Simcolourproject_2stim_asymm_v5,2020.2.10,Win32,60,60a5f9bf14d0aa2821c4bb84,IwAR3k7-6vj3irAEF0nSIH_BuJmJRQbL6BOnOOwIr76KIS1zz-MvQixBW2OPI,,,,,2760,-51.19998932,-24.00000679,1,0,0,response5disk,,1,6.400011539,10.39999372,1,0,0,rectangle,6.400011539,10.39999372,1,0,0,1,"[179,92,138,19,74,288,322,224,73,230,262,24,221,126,175,316,96,209,177,188]",6.400011539,10.39999372,1,0,0,0,85,85,2,1,,,
,,,,,,,,,,,,,FF,,,,,,,,0.582445,,,,,,,,,,,,,,,,,,,,,,,5ded025913911c3c46a677d7,60a66af1e47a63d368c27e1e,2021-05-21_11h49.26.183,Simcolourproject_2stim_asymm_v5,2020.2.10,Win32,60,60a5f9bf14d0aa2821c4bb84,IwAR3k7-6vj3irAEF0nSIH_BuJmJRQbL6BOnOOwIr76KIS1zz-MvQixBW2OPI,,,,,406,-67.19998956,78.39999473,1,0,0,response7disk,,0,-2.399939764,7.19999367,1,0,0,rectangle,-2.399939764,7.19999367,1,0,0,0,"[179,92,138,19,74,288,322,224,73,230,262,24,221,126,175,316,96,209,177,188]",-2.399939764,7.19999367,1,0,0,0,86,86,132,1,,,
,,,,,,,,,,,,,FF,,,,,,,,0.548725,,,,,,,,,,,,,,,,,,,,,,,5ded025913911c3c46a677d7,60a66af1e47a63d368c27e1e,2021-05-21_11h49.26.183,Simcolourproject_2stim_asymm_v5,2020.2.10,Win32,60,60a5f9bf14d0aa2821c4bb84,IwAR3k7-6vj3irAEF0nSIH_BuJmJRQbL6BOnOOwIr76KIS1zz-MvQixBW2OPI,,,,,918,-62.39994066,-30.40000689,1,0,0,response5disk,,0,4.000011504,9.599993706,1,0,0,rectangle,4.000011504,9.599993706,1,0,0,5,"[179,92,138,19,74,288,322,224,73,230,262,24,221,126,175,316,96,209,177,188]",4.000011504,9.599993706,1,0,0,0,87,87,64,1,,,
,,,,,,,,,,,,,FF,,,,,,,,0.633095,,,,,,,,,,,,,,,,,,,,,,,5ded025913911c3c46a677d7,60a66af1e47a63d368c27e1e,2021-05-21_11h49.26.183,Simcolourproject_2stim_asymm_v5,2020.2.10,Win32,60,60a5f9bf14d0aa2821c4bb84,IwAR3k7-6vj3irAEF0nSIH_BuJmJRQbL6BOnOOwIr76KIS1zz-MvQixBW2OPI,,,,,2625,-46.39994042,-35.20000696,1,0,0,response5disk,,0,4.800011516,3.19999361,1,0,0,rectangle,4.800011516,3.19999361,1,0,0,2,"[179,92,138,19,74,288,322,224,73,230,262,24,221,126,175,316,96,209,177,188]",4.800011516,3.19999361,1,0,0,0,88,88,131,1,,,
,,,,,,,,,,,,,FF,,,,,,,,0.69986,,,,,,,,,,,,,,,,,,,,,,,5ded025913911c3c46a677d7,60a66af1e47a63d368c27e1e,2021-05-21_11h49.26.183,Simcolourproject_2stim_asymm_v5,2020.2.10,Win32,60,60a5f9bf14d0aa2821c4bb84,IwAR3k7-6vj3irAEF0nSIH_BuJmJRQbL6BOnOOwIr76KIS1zz-MvQixBW2OPI,,,,,4043,-28.79998899,-36.00000697,1,0,0,response5disk,,3,4.000011504,-7.200006545,1,0,0,rectangle,4.000011504,-7.200006545,1,0,0,3,"[179,92,138,19,74,288,322,224,73,230,262,24,221,126,175,316,96,209,177,188]",4.000011504,-7.200006545,1,0,0,0,89,89,71,1,,,
,,,,,,,,,,,,,FF,,,,,,,,0.78295,,,,,,,,,,,,,,,,,,,,,,,5ded025913911c3c46a677d7,60a66af1e47a63d368c27e1e,2021-05-21_11h49.26.183,Simcolourproject_2stim_asymm_v5,2020.2.10,Win32,60,60a5f9bf14d0aa2821c4bb84,IwAR3k7-6vj3irAEF0nSIH_BuJmJRQbL6BOnOOwIr76KIS1zz-MvQixBW2OPI,,,,,2881,-54.39994054,-26.40000683,1,0,0,response5disk,,3,-3.199988604,0.799993575,1,0,0,rectangle,-3.199988604,0.799993575,1,0,0,5,"[179,92,138,19,74,288,322,224,73,230,262,24,221,126,175,316,96,209,177,188]",-3.199988604,0.799993575,1,0,0,0,90,90,83,1,,,
,,,,,,,,,,,,,FF,,,,,,,,0.549255,,,,,,,,,,,,,,,,,,,,,,,5ded025913911c3c46a677d7,60a66af1e47a63d368c27e1e,2021-05-21_11h49.26.183,Simcolourproject_2stim_asymm_v5,2020.2.10,Win32,60,60a5f9bf14d0aa2821c4bb84,IwAR3k7-6vj3irAEF0nSIH_BuJmJRQbL6BOnOOwIr76KIS1zz-MvQixBW2OPI,,,,,2271,-59.99998945,38.39999413,1,0,0,response7disk,,1,-1.59998858,-2.400006473,1,0,0,rectangle,-52.79998934,31.99999404,1,0,0,2,"[179,92,138,19,74,288,322,224,73,230,262,24,221,126,175,316,96,209,177,188]",-0.799988568,3.999993622,1,0,0,0,91,91,99,1,,response7disk_3,rectangle
,,,,,,,,,,,,,FF,,,,,,,,2.414565,,,,,,,,,,,,,,,,,,,,,,,5ded025913911c3c46a677d7,60a66af1e47a63d368c27e1e,2021-05-21_11h49.26.183,Simcolourproject_2stim_asymm_v5,2020.2.10,Win32,60,60a5f9bf14d0aa2821c4bb84,IwAR3k7-6vj3irAEF0nSIH_BuJmJRQbL6BOnOOwIr76KIS1zz-MvQixBW2OPI,,,,,2887,-43.99998921,31.99999404,1,0,0,response7disk,,1,4.000011504,7.19999367,1,0,0,rectangle,4.000011504,7.19999367,1,0,0,1,"[179,92,138,19,74,288,322,224,73,230,262,24,221,126,175,316,96,209,177,188]",4.000011504,7.19999367,1,0,0,0,92,92,56,1,,,
,,,,,,,,,,,,,FF,,,,,,,,0.533495,,,,,,,,,,,,,,,,,,,,,,,5ded025913911c3c46a677d7,60a66af1e47a63d368c27e1e,2021-05-21_11h49.26.183,Simcolourproject_2stim_asymm_v5,2020.2.10,Win32,60,60a5f9bf14d0aa2821c4bb84,IwAR3k7-6vj3irAEF0nSIH_BuJmJRQbL6BOnOOwIr76KIS1zz-MvQixBW2OPI,,,,,2850,-52.79998934,-24.00000679,1,0,0,response5disk,,1,-7.199988663,-1.600006461,1,0,0,rectangle,-7.199988663,-1.600006461,1,0,0,0,"[179,92,138,19,74,288,322,224,73,230,262,24,221,126,175,316,96,209,177,188]",-7.199988663,-1.600006461,1,0,0,0,93,93,61,1,,,
,,,,,,,,,,,,,FF,,,,,,,,0.666945,,,,,,,,,,,,,,,,,,,,,,,5ded025913911c3c46a677d7,60a66af1e47a63d368c27e1e,2021-05-21_11h49.26.183,Simcolourproject_2stim_asymm_v5,2020.2.10,Win32,60,60a5f9bf14d0aa2821c4bb84,IwAR3k7-6vj3irAEF0nSIH_BuJmJRQbL6BOnOOwIr76KIS1zz-MvQixBW2OPI,,,,,4308,-61.59998947,-36.00000697,1,0,0,response5disk,,1,18.40001172,6.399993658,1,0,0,rectangle,18.40001172,6.399993658,1,0,0,5,"[179,92,138,19,74,288,322,224,73,230,262,24,221,126,175,316,96,209,177,188]",18.40001172,6.399993658,1,0,0,0,94,94,115,1,,,
,,,,,,,,,,,,,FF,,,,,,,,0.53332,,,,,,,,,,,,,,,,,,,,,,,5ded025913911c3c46a677d7,60a66af1e47a63d368c27e1e,2021-05-21_11h49.26.183,Simcolourproject_2stim_asymm_v5,2020.2.10,Win32,60,60a5f9bf14d0aa2821c4bb84,IwAR3k7-6vj3irAEF0nSIH_BuJmJRQbL6BOnOOwIr76KIS1zz-MvQixBW2OPI,,,,,1643,-47.99998927,46.39999425,1,0,0,response7disk,,1,0.800011456,-2.400006473,1,0,0,rectangle,-47.19998926,23.19996949,1,0,0,6,"[179,92,138,19,74,288,322,224,73,230,262,24,221,126,175,316,96,209,177,188]",-4.799988627,-4.000006497,1,0,0,0,95,95,21,1,,response7disk_3,rectangle
,,,,,,,,,,,,,FF,,,,,,,,1.39819,,,,,,,,,,,,,,,,,,,,,,,5ded025913911c3c46a677d7,60a66af1e47a63d368c27e1e,2021-05-21_11h49.26.183,Simcolourproject_2stim_asymm_v5,2020.2.10,Win32,60,60a5f9bf14d0aa2821c4bb84,IwAR3k7-6vj3irAEF0nSIH_BuJmJRQbL6BOnOOwIr76KIS1zz-MvQixBW2OPI,,,,,3613,-46.39994042,-42.40000707,1,0,0,response5disk,,1,4.000011504,11.99999374,1,0,0,rectangle,4.000011504,11.99999374,1,0,0,3,"[179,92,138,19,74,288,322,224,73,230,262,24,221,126,175,316,96,209,177,188]",4.000011504,11.99999374,1,0,0,0,96,96,43,1,,,
,,,,,,,,,,,,,FF,,,,,,,,1.048865,,,,,,,,,,,,,,,,,,,,,,,5ded025913911c3c46a677d7,60a66af1e47a63d368c27e1e,2021-05-21_11h49.26.183,Simcolourproject_2stim_asymm_v5,2020.2.10,Win32,60,60a5f9bf14d0aa2821c4bb84,IwAR3k7-6vj3irAEF0nSIH_BuJmJRQbL6BOnOOwIr76KIS1zz-MvQixBW2OPI,,,,,2444,-38.3999403,39.19996973,1,0,0,response7disk,,0,-2.399939764,2.399993598,1,0,0,rectangle,-2.399939764,2.399993598,1,0,0,2,"[179,92,138,19,74,288,322,224,73,230,262,24,221,126,175,316,96,209,177,188]",-2.399939764,2.399993598,1,0,0,0,97,97,128,1,,,
,,,,,,,,,,,,,FF,,,,,,,,2.315815,,,,,,,,,,,,,,,,,,,,,,,5ded025913911c3c46a677d7,60a66af1e47a63d368c27e1e,2021-05-21_11h49.26.183,Simcolourproject_2stim_asymm_v5,2020.2.10,Win32,60,60a5f9bf14d0aa2821c4bb84,IwAR3k7-6vj3irAEF0nSIH_BuJmJRQbL6BOnOOwIr76KIS1zz-MvQixBW2OPI,,,,,4015,-76.7999897,52.79999435,1,0,0,response7disk,,1,-4.799988627,0.799993575,1,0,0,rectangle,-4.799988627,0.799993575,1,0,0,4,"[179,92,138,19,74,288,322,224,73,230,262,24,221,126,175,316,96,209,177,188]",-4.799988627,0.799993575,1,0,0,0,98,98,123,1,,,
,,,,,,,,,,,,,FF,,,,,,,,0.5667,,,,,,,,,,,,,,,,,,,,,,,5ded025913911c3c46a677d7,60a66af1e47a63d368c27e1e,2021-05-21_11h49.26.183,Simcolourproject_2stim_asymm_v5,2020.2.10,Win32,60,60a5f9bf14d0aa2821c4bb84,IwAR3k7-6vj3irAEF0nSIH_BuJmJRQbL6BOnOOwIr76KIS1zz-MvQixBW2OPI,,,,,451,-54.39994054,38.39999413,1,0,0,response7disk,,1,-13.59998876,-6.4373E-06,1,0,0,rectangle,-13.59998876,-6.4373E-06,1,0,0,4,"[179,92,138,19,74,288,322,224,73,230,262,24,221,126,175,316,96,209,177,188]",-13.59998876,-6.4373E-06,1,0,0,0,99,99,130,1,,,
,,,,,,,,,,,,,FF,,,,,,,,0.46646,,,,,,,,,,,,,,,,,,,,,,,5ded025913911c3c46a677d7,60a66af1e47a63d368c27e1e,2021-05-21_11h49.26.183,Simcolourproject_2stim_asymm_v5,2020.2.10,Win32,60,60a5f9bf14d0aa2821c4bb84,IwAR3k7-6vj3irAEF0nSIH_BuJmJRQbL6BOnOOwIr76KIS1zz-MvQixBW2OPI,,,,,446,-60.79998946,31.99999404,1,0,0,response7disk,,1,-11.99998873,-5.600006521,1,0,0,rectangle,-11.99998873,-5.600006521,1,0,0,4,"[179,92,138,19,74,288,322,224,73,230,262,24,221,126,175,316,96,209,177,188]",-11.99998873,-5.600006521,1,0,0,0,100,100,41,1,,,
,,,,,,,,,,,,,FF,,,,,,,,0.46635,,,,,,,,,,,,,,,,,,,,,,,5ded025913911c3c46a677d7,60a66af1e47a63d368c27e1e,2021-05-21_11h49.26.183,Simcolourproject_2stim_asymm_v5,2020.2.10,Win32,60,60a5f9bf14d0aa2821c4bb84,IwAR3k7-6vj3irAEF0nSIH_BuJmJRQbL6BOnOOwIr76KIS1zz-MvQixBW2OPI,,,,,2558,-71.99998963,-49.60000718,1,0,0,response5disk,,1,-25.59998894,-0.800006449,1,0,0,rectangle,-25.59998894,-0.800006449,1,0,0,5,"[179,92,138,19,74,288,322,224,73,230,262,24,221,126,175,316,96,209,177,188]",-25.59998894,-0.800006449,1,0,0,0,101,101,136,1,,,
,,,,,,,,,,,,,FF,,,,,,,,0.48266,,,,,,,,,,,,,,,,,,,,,,,5ded025913911c3c46a677d7,60a66af1e47a63d368c27e1e,2021-05-21_11h49.26.183,Simcolourproject_2stim_asymm_v5,2020.2.10,Win32,60,60a5f9bf14d0aa2821c4bb84,IwAR3k7-6vj3irAEF0nSIH_BuJmJRQbL6BOnOOwIr76KIS1zz-MvQixBW2OPI,,,,,3336,-56.7999894,30.39999402,1,0,0,response7disk,,1,4.800011516,5.599993646,1,0,0,rectangle,4.800011516,5.599993646,1,0,0,2,"[179,92,138,19,74,288,322,224,73,230,262,24,221,126,175,316,96,209,177,188]",4.800011516,5.599993646,1,0,0,0,102,102,142,1,,,
,,,,,,,,,,,,,FF,,,,,,,,1.3822,,,,,,,,,,,,,,,,,,,,,,,5ded025913911c3c46a677d7,60a66af1e47a63d368c27e1e,2021-05-21_11h49.26.183,Simcolourproject_2stim_asymm_v5,2020.2.10,Win32,60,60a5f9bf14d0aa2821c4bb84,IwAR3k7-6vj3irAEF0nSIH_BuJmJRQbL6BOnOOwIr76KIS1zz-MvQixBW2OPI,,,,,43,-28.79998899,-24.80000681,1,0,0,response5disk,,1,-3.999988616,-6.400006533,1,0,0,rectangle,-3.999988616,-6.400006533,1,0,0,7,"[179,92,138,19,74,288,322,224,73,230,262,24,221,126,175,316,96,209,177,188]",-3.999988616,-6.400006533,1,0,0,0,103,103,78,1,,,
,,,,,,,,,,,,,FF,,,,,,,,0.51548,,,,,,,,,,,,,,,,,,,,,,,5ded025913911c3c46a677d7,60a66af1e47a63d368c27e1e,2021-05-21_11h49.26.183,Simcolourproject_2stim_asymm_v5,2020.2.10,Win32,60,60a5f9bf14d0aa2821c4bb84,IwAR3k7-6vj3irAEF0nSIH_BuJmJRQbL6BOnOOwIr76KIS1zz-MvQixBW2OPI,,,,,1224,-45.59998924,-43.20000708,1,0,0,response5disk,,1,-0.799988568,-0.800006449,1,0,0,rectangle,-0.799988568,-0.800006449,1,0,0,3,"[179,92,138,19,74,288,322,224,73,230,262,24,221,126,175,316,96,209,177,188]",-0.799988568,-0.800006449,1,0,0,0,104,104,90,1,,,
,,,,,,,,,,,,,FF,,,,,,,,0.599265,,,,,,,,,,,,,,,,,,,,,,,5ded025913911c3c46a677d7,60a66af1e47a63d368c27e1e,2021-05-21_11h49.26.183,Simcolourproject_2stim_asymm_v5,2020.2.10,Win32,60,60a5f9bf14d0aa2821c4bb84,IwAR3k7-6vj3irAEF0nSIH_BuJmJRQbL6BOnOOwIr76KIS1zz-MvQixBW2OPI,,,,,3064,-32.79998904,-31.2000069,1,0,0,response5disk,,1,0.800011456,-6.4373E-06,1,0,0,rectangle,0.800011456,-6.4373E-06,1,0,0,0,"[179,92,138,19,74,288,322,224,73,230,262,24,221,126,175,316,96,209,177,188]",0.800011456,-6.4373E-06,1,0,0,0,105,105,30,1,,,
,,,,,,,,,,,,,FF,,,,,,,,0.915335,,,,,,,,,,,,,,,,,,,,,,,5ded025913911c3c46a677d7,60a66af1e47a63d368c27e1e,2021-05-21_11h49.26.183,Simcolourproject_2stim_asymm_v5,2020.2.10,Win32,60,60a5f9bf14d0aa2821c4bb84,IwAR3k7-6vj3irAEF0nSIH_BuJmJRQbL6BOnOOwIr76KIS1zz-MvQixBW2OPI,,,,,3543,-38.3999403,33.59999406,1,0,0,response7disk,,1,-12.79998875,-6.400006533,1,0,0,rectangle,-12.79998875,-6.400006533,1,0,0,4,"[179,92,138,19,74,288,322,224,73,230,262,24,221,126,175,316,96,209,177,188]",-12.79998875,-6.400006533,1,0,0,0,106,106,55,1,,,
,,,,,,,,,,,,,FF,,,,,,,,0.64935,,,,,,,,,,,,,,,,,,,,,,,5ded025913911c3c46a677d7,60a66af1e47a63d368c27e1e,2021-05-21_11h49.26.183,Simcolourproject_2stim_asymm_v5,2020.2.10,Win32,60,60a5f9bf14d0aa2821c4bb84,IwAR3k7-6vj3irAEF0nSIH_BuJmJRQbL6BOnOOwIr76KIS1zz-MvQixBW2OPI,,,,,776,-38.3999403,45.59999424,1,0,0,response7disk,,0,-4.799988627,-4.000006497,1,0,0,rectangle,-4.799988627,-4.000006497,1,0,0,0,"[179,92,138,19,74,288,322,224,73,230,262,24,221,126,175,316,96,209,177,188]",-4.799988627,-4.000006497,1,0,0,0,107,107,5,1,,,
,,,,,,,,,,,,,FF,,,,,,,,0.683315,,,,,,,,,,,,,,,,,,,,,,,5ded025913911c3c46a677d7,60a66af1e47a63d368c27e1e,2021-05-21_11h49.26.183,Simcolourproject_2stim_asymm_v5,2020.2.10,Win32,60,60a5f9bf14d0aa2821c4bb84,IwAR3k7-6vj3irAEF0nSIH_BuJmJRQbL6BOnOOwIr76KIS1zz-MvQixBW2OPI,,,,,2250,-43.99998921,23.99999392,1,0,0,response7disk,,1,-11.19998872,-10.40000659,1,0,0,rectangle,-11.19998872,-10.40000659,1,0,0,7,"[179,92,138,19,74,288,322,224,73,230,262,24,221,126,175,316,96,209,177,188]",-11.19998872,-10.40000659,1,0,0,0,108,108,12,1,,,
,,,,,,,,,,,,,FF,,,,,,,,4.46357,,,,,,,,,,,,,,,,,,,,,,,5ded025913911c3c46a677d7,60a66af1e47a63d368c27e1e,2021-05-21_11h49.26.183,Simcolourproject_2stim_asymm_v5,2020.2.10,Win32,60,60a5f9bf14d0aa2821c4bb84,IwAR3k7-6vj3irAEF0nSIH_BuJmJRQbL6BOnOOwIr76KIS1zz-MvQixBW2OPI,,,,,851,-40.79998916,-32.00000691,1,0,0,response5disk,,1,-7.199988663,0.799993575,1,0,0,rectangle,-7.199988663,0.799993575,1,0,0,5,"[179,92,138,19,74,288,322,224,73,230,262,24,221,126,175,316,96,209,177,188]",-7.199988663,0.799993575,1,0,0,0,109,109,28,1,,,
,,,,,,,,,,,,,FF,,,,,,,,0.715645,,,,,,,,,,,,,,,,,,,,,,,5ded025913911c3c46a677d7,60a66af1e47a63d368c27e1e,2021-05-21_11h49.26.183,Simcolourproject_2stim_asymm_v5,2020.2.10,Win32,60,60a5f9bf14d0aa2821c4bb84,IwAR3k7-6vj3irAEF0nSIH_BuJmJRQbL6BOnOOwIr76KIS1zz-MvQixBW2OPI,,,,,620,-46.39994042,-29.60000688,1,0,0,response5disk,,1,-11.19998872,1.599993587,1,0,0,rectangle,-11.19998872,1.599993587,1,0,0,3,"[179,92,138,19,74,288,322,224,73,230,262,24,221,126,175,316,96,209,177,188]",-11.19998872,1.599993587,1,0,0,0,110,110,54,1,,,
,,,,,,,,,,,,,FF,,,,,,,,1.56555,,,,,,,,,,,,,,,,,,,,,,,5ded025913911c3c46a677d7,60a66af1e47a63d368c27e1e,2021-05-21_11h49.26.183,Simcolourproject_2stim_asymm_v5,2020.2.10,Win32,60,60a5f9bf14d0aa2821c4bb84,IwAR3k7-6vj3irAEF0nSIH_BuJmJRQbL6BOnOOwIr76KIS1zz-MvQixBW2OPI,,,,,657,-46.39994042,-63.20000738,1,0,0,response5disk,,3,-8.799988687,-3.200006485,1,0,0,rectangle,-8.799988687,-3.200006485,1,0,0,6,"[179,92,138,19,74,288,322,224,73,230,262,24,221,126,175,316,96,209,177,188]",-8.799988687,-3.200006485,1,0,0,0,111,111,141,1,,,
,,,,,,,,,,,,,FF,,,,,,,,0.59965,,,,,,,,,,,,,,,,,,,,,,,5ded025913911c3c46a677d7,60a66af1e47a63d368c27e1e,2021-05-21_11h49.26.183,Simcolourproject_2stim_asymm_v5,2020.2.10,Win32,60,60a5f9bf14d0aa2821c4bb84,IwAR3k7-6vj3irAEF0nSIH_BuJmJRQbL6BOnOOwIr76KIS1zz-MvQixBW2OPI,,,,,2785,-47.99998927,-45.60000712,1,0,0,response5disk,,3,-13.59998876,-5.600006521,1,0,0,rectangle,-13.59998876,-5.600006521,1,0,0,5,"[179,92,138,19,74,288,322,224,73,230,262,24,221,126,175,316,96,209,177,188]",-13.59998876,-5.600006521,1,0,0,0,112,112,19,1,,,
,,,,,,,,,,,,,FF,,,,,,,,1.09871,,,,,,,,,,,,,,,,,,,,,,,5ded025913911c3c46a677d7,60a66af1e47a63d368c27e1e,2021-05-21_11h49.26.183,Simcolourproject_2stim_asymm_v5,2020.2.10,Win32,60,60a5f9bf14d0aa2821c4bb84,IwAR3k7-6vj3irAEF0nSIH_BuJmJRQbL6BOnOOwIr76KIS1zz-MvQixBW2OPI,,,,,2662,-59.19998944,-47.20000714,1,0,0,response5disk,,3,0.800011456,6.399993658,1,0,0,rectangle,0.800011456,6.399993658,1,0,0,2,"[179,92,138,19,74,288,322,224,73,230,262,24,221,126,175,316,96,209,177,188]",0.800011456,6.399993658,1,0,0,0,113,113,108,1,,,
,,,,,,,,,,,,,FF,,,,,,,,1.79839,,,,,,,,,,,,,,,,,,,,,,,5ded025913911c3c46a677d7,60a66af1e47a63d368c27e1e,2021-05-21_11h49.26.183,Simcolourproject_2stim_asymm_v5,2020.2.10,Win32,60,60a5f9bf14d0aa2821c4bb84,IwAR3k7-6vj3irAEF0nSIH_BuJmJRQbL6BOnOOwIr76KIS1zz-MvQixBW2OPI,,,,,1936,-63.1999895,43.99999422,1,0,0,response7disk,,1,-2.399939764,-4.800006509,1,0,0,rectangle,-2.399939764,-4.800006509,1,0,0,0,"[179,92,138,19,74,288,322,224,73,230,262,24,221,126,175,316,96,209,177,188]",-2.399939764,-4.800006509,1,0,0,0,114,114,95,1,,,
,,,,,,,,,,,,,FF,,,,,,,,5.29529,,,,,,,,,,,,,,,,,,,,,,,5ded025913911c3c46a677d7,60a66af1e47a63d368c27e1e,2021-05-21_11h49.26.183,Simcolourproject_2stim_asymm_v5,2020.2.10,Win32,60,60a5f9bf14d0aa2821c4bb84,IwAR3k7-6vj3irAEF0nSIH_BuJmJRQbL6BOnOOwIr76KIS1zz-MvQixBW2OPI,,,,,3829,-46.39994042,65.59999454,1,0,0,response7disk,,0,6.400011539,7.999993682,1,0,0,rectangle,6.400011539,7.999993682,1,0,0,5,"[179,92,138,19,74,288,322,224,73,230,262,24,221,126,175,316,96,209,177,188]",6.400011539,7.999993682,1,0,0,0,115,115,154,1,,,
,,,,,,,,,,,,,FF,,,,,,,,0.76606,,,,,,,,,,,,,,,,,,,,,,,5ded025913911c3c46a677d7,60a66af1e47a63d368c27e1e,2021-05-21_11h49.26.183,Simcolourproject_2stim_asymm_v5,2020.2.10,Win32,60,60a5f9bf14d0aa2821c4bb84,IwAR3k7-6vj3irAEF0nSIH_BuJmJRQbL6BOnOOwIr76KIS1zz-MvQixBW2OPI,,,,,2519,-47.99998927,16.79999381,1,0,0,response7disk,,1,-11.19998872,-0.800006449,1,0,0,rectangle,-11.19998872,-0.800006449,1,0,0,2,"[179,92,138,19,74,288,322,224,73,230,262,24,221,126,175,316,96,209,177,188]",-11.19998872,-0.800006449,1,0,0,0,116,116,134,1,,,
,,,,,,,,,,,,,FF,,,,,,,,0.91559,,,,,,,,,,,,,,,,,,,,,,,5ded025913911c3c46a677d7,60a66af1e47a63d368c27e1e,2021-05-21_11h49.26.183,Simcolourproject_2stim_asymm_v5,2020.2.10,Win32,60,60a5f9bf14d0aa2821c4bb84,IwAR3k7-6vj3irAEF0nSIH_BuJmJRQbL6BOnOOwIr76KIS1zz-MvQixBW2OPI,,,,,1274,-45.59998924,31.99999404,1,0,0,response7disk,,1,-14.39993994,-2.400006473,1,0,0,rectangle,-14.39993994,-2.400006473,1,0,0,5,"[179,92,138,19,74,288,322,224,73,230,262,24,221,126,175,316,96,209,177,188]",-14.39993994,-2.400006473,1,0,0,0,117,117,39,1,,,
,,,,,,,,,,,,,FF,,,,,,,,1.24913,,,,,,,,,,,,,,,,,,,,,,,5ded025913911c3c46a677d7,60a66af1e47a63d368c27e1e,2021-05-21_11h49.26.183,Simcolourproject_2stim_asymm_v5,2020.2.10,Win32,60,60a5f9bf14d0aa2821c4bb84,IwAR3k7-6vj3irAEF0nSIH_BuJmJRQbL6BOnOOwIr76KIS1zz-MvQixBW2OPI,,,,,314,-39.19998914,-37.600007,1,0,0,response5disk,,1,11.20001161,3.19999361,1,0,0,rectangle,11.20001161,3.19999361,1,0,0,1,"[179,92,138,19,74,288,322,224,73,230,262,24,221,126,175,316,96,209,177,188]",11.20001161,3.19999361,1,0,0,0,118,118,100,1,,,
,,,,,,,,,,,,,FF,,,,,,,,0.56509,,,,,,,,,,,,,,,,,,,,,,,5ded025913911c3c46a677d7,60a66af1e47a63d368c27e1e,2021-05-21_11h49.26.183,Simcolourproject_2stim_asymm_v5,2020.2.10,Win32,60,60a5f9bf14d0aa2821c4bb84,IwAR3k7-6vj3irAEF0nSIH_BuJmJRQbL6BOnOOwIr76KIS1zz-MvQixBW2OPI,,,,,1168,-32.79998904,-32.00000691,1,0,0,response5disk,,1,0.800011456,7.19999367,1,0,0,rectangle,0.800011456,7.19999367,1,0,0,6,"[179,92,138,19,74,288,322,224,73,230,262,24,221,126,175,316,96,209,177,188]",0.800011456,7.19999367,1,0,0,0,119,119,8,1,,,
,,,,,,,,,,,,,FF,,,,,,,,0.81582,,,,,,,,,,,,,,,,,,,,,,,5ded025913911c3c46a677d7,60a66af1e47a63d368c27e1e,2021-05-21_11h49.26.183,Simcolourproject_2stim_asymm_v5,2020.2.10,Win32,60,60a5f9bf14d0aa2821c4bb84,IwAR3k7-6vj3irAEF0nSIH_BuJmJRQbL6BOnOOwIr76KIS1zz-MvQixBW2OPI,,,,,2475,-26.39994012,18.39999384,1,0,0,response7disk,,1,5.600060356,-1.600006461,1,0,0,rectangle,5.600060356,-1.600006461,1,0,0,5,"[179,92,138,19,74,288,322,224,73,230,262,24,221,126,175,316,96,209,177,188]",5.600060356,-1.600006461,1,0,0,0,120,120,29,1,,,
,,,,,,,,,,,,,FF,,,,,,,,0.64985,,,,,,,,,,,,,,,,,,,,,,,5ded025913911c3c46a677d7,60a66af1e47a63d368c27e1e,2021-05-21_11h49.26.183,Simcolourproject_2stim_asymm_v5,2020.2.10,Win32,60,60a5f9bf14d0aa2821c4bb84,IwAR3k7-6vj3irAEF0nSIH_BuJmJRQbL6BOnOOwIr76KIS1zz-MvQixBW2OPI,,,,,521,-41.59998918,28.79999399,1,0,0,response7disk,,1,1.14441E-05,-1.600006461,1,0,0,rectangle,1.14441E-05,-1.600006461,1,0,0,0,"[179,92,138,19,74,288,322,224,73,230,262,24,221,126,175,316,96,209,177,188]",1.14441E-05,-1.600006461,1,0,0,0,121,121,50,1,,,
,,,,,,,,,,,,,FF,,,,,,,,0.650405,,,,,,,,,,,,,,,,,,,,,,,5ded025913911c3c46a677d7,60a66af1e47a63d368c27e1e,2021-05-21_11h49.26.183,Simcolourproject_2stim_asymm_v5,2020.2.10,Win32,60,60a5f9bf14d0aa2821c4bb84,IwAR3k7-6vj3irAEF0nSIH_BuJmJRQbL6BOnOOwIr76KIS1zz-MvQixBW2OPI,,,,,2960,-33.59998906,24.79999393,1,0,0,response7disk,,1,3.200011492,-3.200006485,1,0,0,rectangle,3.200011492,-3.200006485,1,0,0,3,"[179,92,138,19,74,288,322,224,73,230,262,24,221,126,175,316,96,209,177,188]",3.200011492,-3.200006485,1,0,0,0,122,122,38,1,,,
,,,,,,,,,,,,,FF,,,,,,,,1.764655,,,,,,,,,,,,,,,,,,,,,,,5ded025913911c3c46a677d7,60a66af1e47a63d368c27e1e,2021-05-21_11h49.26.183,Simcolourproject_2stim_asymm_v5,2020.2.10,Win32,60,60a5f9bf14d0aa2821c4bb84,IwAR3k7-6vj3irAEF0nSIH_BuJmJRQbL6BOnOOwIr76KIS1zz-MvQixBW2OPI,,,,,1136,-42.39994036,23.99999392,1,0,0,response7disk,,1,2.40001148,0.799993575,1,0,0,rectangle,2.40001148,0.799993575,1,0,0,4,"[179,92,138,19,74,288,322,224,73,230,262,24,221,126,175,316,96,209,177,188]",2.40001148,0.799993575,1,0,0,0,123,123,122,1,,,
,,,,,,,,,,,,,FF,,,,,,,,1.282875,,,,,,,,,,,,,,,,,,,,,,,5ded025913911c3c46a677d7,60a66af1e47a63d368c27e1e,2021-05-21_11h49.26.183,Simcolourproject_2stim_asymm_v5,2020.2.10,Win32,60,60a5f9bf14d0aa2821c4bb84,IwAR3k7-6vj3irAEF0nSIH_BuJmJRQbL6BOnOOwIr76KIS1zz-MvQixBW2OPI,,,,,906,-39.99998915,-30.40000689,1,0,0,response5disk,,1,10.4000116,3.19999361,1,0,0,rectangle,10.4000116,3.19999361,1,0,0,6,"[179,92,138,19,74,288,322,224,73,230,262,24,221,126,175,316,96,209,177,188]",10.4000116,3.19999361,1,0,0,0,124,124,15,1,,,
,,,,,,,,,,,,,FF,,,,,,,,0.749565,,,,,,,,,,,,,,,,,,,,,,,5ded025913911c3c46a677d7,60a66af1e47a63d368c27e1e,2021-05-21_11h49.26.183,Simcolourproject_2stim_asymm_v5,2020.2.10,Win32,60,60a5f9bf14d0aa2821c4bb84,IwAR3k7-6vj3irAEF0nSIH_BuJmJRQbL6BOnOOwIr76KIS1zz-MvQixBW2OPI,,,,,1007,-42.39994036,27.99999398,1,0,0,response7disk,,1,-4.799988627,-4.800006509,1,0,0,rectangle,-52.79998934,33.59999406,1,0,0,1,"[179,92,138,19,74,288,322,224,73,230,262,24,221,126,175,316,96,209,177,188]",-10.39993988,8.799993694,1,0,0,0,125,125,52,1,,response7disk_3,rectangle
,,,,,,,,,,,,,FF,,,,,,,,2.181475,,,,,,,,,,,,,,,,,,,,,,,5ded025913911c3c46a677d7,60a66af1e47a63d368c27e1e,2021-05-21_11h49.26.183,Simcolourproject_2stim_asymm_v5,2020.2.10,Win32,60,60a5f9bf14d0aa2821c4bb84,IwAR3k7-6vj3irAEF0nSIH_BuJmJRQbL6BOnOOwIr76KIS1zz-MvQixBW2OPI,,,,,3809,-62.39994066,23.99999392,1,0,0,response7disk,,1,-3.199988604,-1.600006461,1,0,0,rectangle,-3.199988604,-1.600006461,1,0,0,2,"[179,92,138,19,74,288,322,224,73,230,262,24,221,126,175,316,96,209,177,188]",-3.199988604,-1.600006461,1,0,0,0,126,126,73,1,,,
,,,,,,,,,,,,,FF,,,,,,,,0.61587,,,,,,,,,,,,,,,,,,,,,,,5ded025913911c3c46a677d7,60a66af1e47a63d368c27e1e,2021-05-21_11h49.26.183,Simcolourproject_2stim_asymm_v5,2020.2.10,Win32,60,60a5f9bf14d0aa2821c4bb84,IwAR3k7-6vj3irAEF0nSIH_BuJmJRQbL6BOnOOwIr76KIS1zz-MvQixBW2OPI,,,,,1342,-35.19998908,41.59999418,1,0,0,response7disk,,0,1.600060296,9.599993706,1,0,0,rectangle,1.600060296,9.599993706,1,0,0,5,"[179,92,138,19,74,288,322,224,73,230,262,24,221,126,175,316,96,209,177,188]",1.600060296,9.599993706,1,0,0,0,127,127,119,1,,,
,,,,,,,,,,,,,FF,,,,,,,,0.500015,,,,,,,,,,,,,,,,,,,,,,,5ded025913911c3c46a677d7,60a66af1e47a63d368c27e1e,2021-05-21_11h49.26.183,Simcolourproject_2stim_asymm_v5,2020.2.10,Win32,60,60a5f9bf14d0aa2821c4bb84,IwAR3k7-6vj3irAEF0nSIH_BuJmJRQbL6BOnOOwIr76KIS1zz-MvQixBW2OPI,,,,,1975,-32.79998904,25.59999394,1,0,0,response7disk,,1,-6.399939823,-6.400006533,1,0,0,rectangle,-6.399939823,-6.400006533,1,0,0,5,"[179,92,138,19,74,288,322,224,73,230,262,24,221,126,175,316,96,209,177,188]",-6.399939823,-6.400006533,1,0,0,0,128,128,82,1,,,
,,,,,,,,,,,,,FF,,,,,,,,0.69883,,,,,,,,,,,,,,,,,,,,,,,5ded025913911c3c46a677d7,60a66af1e47a63d368c27e1e,2021-05-21_11h49.26.183,Simcolourproject_2stim_asymm_v5,2020.2.10,Win32,60,60a5f9bf14d0aa2821c4bb84,IwAR3k7-6vj3irAEF0nSIH_BuJmJRQbL6BOnOOwIr76KIS1zz-MvQixBW2OPI,,,,,4271,-36.7999891,29.599994,1,0,0,response7disk,,1,6.400011539,-2.400006473,1,0,0,rectangle,6.400011539,-2.400006473,1,0,0,3,"[179,92,138,19,74,288,322,224,73,230,262,24,221,126,175,316,96,209,177,188]",6.400011539,-2.400006473,1,0,0,0,129,129,102,1,,,
,,,,,,,,,,,,,FF,,,,,,,,1.864565,,,,,,,,,,,,,,,,,,,,,,,5ded025913911c3c46a677d7,60a66af1e47a63d368c27e1e,2021-05-21_11h49.26.183,Simcolourproject_2stim_asymm_v5,2020.2.10,Win32,60,60a5f9bf14d0aa2821c4bb84,IwAR3k7-6vj3irAEF0nSIH_BuJmJRQbL6BOnOOwIr76KIS1zz-MvQixBW2OPI,,,,,72,-41.59998918,-26.40000683,1,0,0,response5disk,,1,7.200011551,6.399993658,1,0,0,rectangle,7.200011551,6.399993658,1,0,0,1,"[179,92,138,19,74,288,322,224,73,230,262,24,221,126,175,316,96,209,177,188]",7.200011551,6.399993658,1,0,0,0,130,130,120,1,,,
,,,,,,,,,,,,,FF,,,,,,,,0.499615,,,,,,,,,,,,,,,,,,,,,,,5ded025913911c3c46a677d7,60a66af1e47a63d368c27e1e,2021-05-21_11h49.26.183,Simcolourproject_2stim_asymm_v5,2020.2.10,Win32,60,60a5f9bf14d0aa2821c4bb84,IwAR3k7-6vj3irAEF0nSIH_BuJmJRQbL6BOnOOwIr76KIS1zz-MvQixBW2OPI,,,,,1107,-36.7999891,33.59999406,1,0,0,response7disk,,1,4.000011504,3.999993622,1,0,0,rectangle,4.000011504,3.999993622,1,0,0,3,"[179,92,138,19,74,288,322,224,73,230,262,24,221,126,175,316,96,209,177,188]",4.000011504,3.999993622,1,0,0,0,131,131,106,1,,,
,,,,,,,,,,,,,FF,,,,,,,,1.631245,,,,,,,,,,,,,,,,,,,,,,,5ded025913911c3c46a677d7,60a66af1e47a63d368c27e1e,2021-05-21_11h49.26.183,Simcolourproject_2stim_asymm_v5,2020.2.10,Win32,60,60a5f9bf14d0aa2821c4bb84,IwAR3k7-6vj3irAEF0nSIH_BuJmJRQbL6BOnOOwIr76KIS1zz-MvQixBW2OPI,,,,,3781,-36.7999891,25.59999394,1,0,0,response7disk,,1,-1.59998858,-3.200006485,1,0,0,rectangle,-1.59998858,-3.200006485,1,0,0,2,"[179,92,138,19,74,288,322,224,73,230,262,24,221,126,175,316,96,209,177,188]",-1.59998858,-3.200006485,1,0,0,0,132,132,57,1,,,
,,,,,,,,,,,,,FF,,,,,,,,1.631505,,,,,,,,,,,,,,,,,,,,,,,5ded025913911c3c46a677d7,60a66af1e47a63d368c27e1e,2021-05-21_11h49.26.183,Simcolourproject_2stim_asymm_v5,2020.2.10,Win32,60,60a5f9bf14d0aa2821c4bb84,IwAR3k7-6vj3irAEF0nSIH_BuJmJRQbL6BOnOOwIr76KIS1zz-MvQixBW2OPI,,,,,488,-57.59998941,24.79999393,1,0,0,response7disk,,1,-5.599988639,-4.800006509,1,0,0,rectangle,-5.599988639,-4.800006509,1,0,0,4,"[179,92,138,19,74,288,322,224,73,230,262,24,221,126,175,316,96,209,177,188]",-5.599988639,-4.800006509,1,0,0,0,133,133,159,1,,,
,,,,,,,,,,,,,FF,,,,,,,,1.566845,,,,,,,,,,,,,,,,,,,,,,,5ded025913911c3c46a677d7,60a66af1e47a63d368c27e1e,2021-05-21_11h49.26.183,Simcolourproject_2stim_asymm_v5,2020.2.10,Win32,60,60a5f9bf14d0aa2821c4bb84,IwAR3k7-6vj3irAEF0nSIH_BuJmJRQbL6BOnOOwIr76KIS1zz-MvQixBW2OPI,,,,,2507,-43.99998921,-35.20000696,1,0,0,response5disk,,1,4.000011504,3.19999361,1,0,0,rectangle,4.000011504,3.19999361,1,0,0,2,"[179,92,138,19,74,288,322,224,73,230,262,24,221,126,175,316,96,209,177,188]",4.000011504,3.19999361,1,0,0,0,134,134,7,1,,,
,,,,,,,,,,,,,FF,,,,,,,,1.18227,,,,,,,,,,,,,,,,,,,,,,,5ded025913911c3c46a677d7,60a66af1e47a63d368c27e1e,2021-05-21_11h49.26.183,Simcolourproject_2stim_asymm_v5,2020.2.10,Win32,60,60a5f9bf14d0aa2821c4bb84,IwAR3k7-6vj3irAEF0nSIH_BuJmJRQbL6BOnOOwIr76KIS1zz-MvQixBW2OPI,,,,,2067,-31.99998903,37.59999412,1,0,0,response7disk,,0,3.200011492,-0.800006449,1,0,0,rectangle,3.200011492,-0.800006449,1,0,0,2,"[179,92,138,19,74,288,322,224,73,230,262,24,221,126,175,316,96,209,177,188]",3.200011492,-0.800006449,1,0,0,0,135,135,4,1,,,
,,,,,,,,,,,,,FF,,,,,,,,0.65016,,,,,,,,,,,,,,,,,,,,,,,5ded025913911c3c46a677d7,60a66af1e47a63d368c27e1e,2021-05-21_11h49.26.183,Simcolourproject_2stim_asymm_v5,2020.2.10,Win32,60,60a5f9bf14d0aa2821c4bb84,IwAR3k7-6vj3irAEF0nSIH_BuJmJRQbL6BOnOOwIr76KIS1zz-MvQixBW2OPI,,,,,3094,-35.19998908,27.19996955,1,0,0,response7disk,,1,4.000011504,3.19999361,1,0,0,rectangle,4.000011504,3.19999361,1,0,0,7,"[179,92,138,19,74,288,322,224,73,230,262,24,221,126,175,316,96,209,177,188]",4.000011504,3.19999361,1,0,0,0,136,136,33,1,,,
,,,,,,,,,,,,,FF,,,,,,,,0.515855,,,,,,,,,,,,,,,,,,,,,,,5ded025913911c3c46a677d7,60a66af1e47a63d368c27e1e,2021-05-21_11h49.26.183,Simcolourproject_2stim_asymm_v5,2020.2.10,Win32,60,60a5f9bf14d0aa2821c4bb84,IwAR3k7-6vj3irAEF0nSIH_BuJmJRQbL6BOnOOwIr76KIS1zz-MvQixBW2OPI,,,,,2951,-55.19998938,25.59999394,1,0,0,response7disk,,1,-3.199988604,0.799993575,1,0,0,rectangle,-51.99998933,51.19996991,1,0,0,6,"[179,92,138,19,74,288,322,224,73,230,262,24,221,126,175,316,96,209,177,188]",2.40001148,7.19999367,1,0,0,0,137,137,94,1,,response7disk_3,rectangle
,,,,,,,,,,,,,FF,,,,,,,,1.53223,,,,,,,,,,,,,,,,,,,,,,,5ded025913911c3c46a677d7,60a66af1e47a63d368c27e1e,2021-05-21_11h49.26.183,Simcolourproject_2stim_asymm_v5,2020.2.10,Win32,60,60a5f9bf14d0aa2821c4bb84,IwAR3k7-6vj3irAEF0nSIH_BuJmJRQbL6BOnOOwIr76KIS1zz-MvQixBW2OPI,,,,,1235,-38.3999403,21.59999388,1,0,0,response7disk,,1,1.14441E-05,-8.800006568,1,0,0,rectangle,1.14441E-05,-8.800006568,1,0,0,7,"[179,92,138,19,74,288,322,224,73,230,262,24,221,126,175,316,96,209,177,188]",1.14441E-05,-8.800006568,1,0,0,0,138,138,34,1,,,
,,,,,,,,,,,,,FF,,,,,,,,2.014835,,,,,,,,,,,,,,,,,,,,,,,5ded025913911c3c46a677d7,60a66af1e47a63d368c27e1e,2021-05-21_11h49.26.183,Simcolourproject_2stim_asymm_v5,2020.2.10,Win32,60,60a5f9bf14d0aa2821c4bb84,IwAR3k7-6vj3irAEF0nSIH_BuJmJRQbL6BOnOOwIr76KIS1zz-MvQixBW2OPI,,,,,1454,-21.59998888,34.39999408,1,0,0,response7disk,,0,8.000011563,1.599993587,1,0,0,rectangle,8.000011563,1.599993587,1,0,0,2,"[179,92,138,19,74,288,322,224,73,230,262,24,221,126,175,316,96,209,177,188]",8.000011563,1.599993587,1,0,0,0,139,139,10,1,,,
,,,,,,,,,,,,,FF,,,,,,,,39.13248,,,,,,,,,,,,,,,,,,,,,,,5ded025913911c3c46a677d7,60a66af1e47a63d368c27e1e,2021-05-21_11h49.26.183,Simcolourproject_2stim_asymm_v5,2020.2.10,Win32,60,60a5f9bf14d0aa2821c4bb84,IwAR3k7-6vj3irAEF0nSIH_BuJmJRQbL6BOnOOwIr76KIS1zz-MvQixBW2OPI,,,,,1299,-20.79998887,52.79999435,1,0,0,response7disk,,0,0.800011456,9.599993706,1,0,0,rectangle,0.800011456,9.599993706,1,0,0,1,"[179,92,138,19,74,288,322,224,73,230,262,24,221,126,175,316,96,209,177,188]",0.800011456,9.599993706,1,0,0,0,140,140,105,1,,,
,,,,,,,,,,,,,FF,,,,,,,,0.515985,,,,,,,,,,,,,,,,,,,,,,,5ded025913911c3c46a677d7,60a66af1e47a63d368c27e1e,2021-05-21_11h49.26.183,Simcolourproject_2stim_asymm_v5,2020.2.10,Win32,60,60a5f9bf14d0aa2821c4bb84,IwAR3k7-6vj3irAEF0nSIH_BuJmJRQbL6BOnOOwIr76KIS1zz-MvQixBW2OPI,,,,,1501,-50.39994048,35.9999941,1,0,0,response7disk,,1,-3.999988616,-2.400006473,1,0,0,rectangle,-3.999988616,-2.400006473,1,0,0,3,"[179,92,138,19,74,288,322,224,73,230,262,24,221,126,175,316,96,209,177,188]",-3.999988616,-2.400006473,1,0,0,0,141,141,114,1,,,
,,,,,,,,,,,,,FF,,,,,,,,0.666075,,,,,,,,,,,,,,,,,,,,,,,5ded025913911c3c46a677d7,60a66af1e47a63d368c27e1e,2021-05-21_11h49.26.183,Simcolourproject_2stim_asymm_v5,2020.2.10,Win32,60,60a5f9bf14d0aa2821c4bb84,IwAR3k7-6vj3irAEF0nSIH_BuJmJRQbL6BOnOOwIr76KIS1zz-MvQixBW2OPI,,,,,184,-38.3999403,25.59999394,1,0,0,response7disk,,1,-4.799988627,-6.400006533,1,0,0,rectangle,-4.799988627,-6.400006533,1,0,0,3,"[179,92,138,19,74,288,322,224,73,230,262,24,221,126,175,316,96,209,177,188]",-4.799988627,-6.400006533,1,0,0,0,142,142,24,1,,,
,,,,,,,,,,,,,FF,,,,,,,,0.51579,,,,,,,,,,,,,,,,,,,,,,,5ded025913911c3c46a677d7,60a66af1e47a63d368c27e1e,2021-05-21_11h49.26.183,Simcolourproject_2stim_asymm_v5,2020.2.10,Win32,60,60a5f9bf14d0aa2821c4bb84,IwAR3k7-6vj3irAEF0nSIH_BuJmJRQbL6BOnOOwIr76KIS1zz-MvQixBW2OPI,,,,,3455,-39.99998915,29.599994,1,0,0,response7disk,,1,3.200011492,-7.200006545,1,0,0,rectangle,3.200011492,-7.200006545,1,0,0,0,"[179,92,138,19,74,288,322,224,73,230,262,24,221,126,175,316,96,209,177,188]",3.200011492,-7.200006545,1,0,0,0,143,143,16,1,,,
,,,,,,,,,,,,,FF,,,,,,,,0.998095,,,,,,,,,,,,,,,,,,,,,,,5ded025913911c3c46a677d7,60a66af1e47a63d368c27e1e,2021-05-21_11h49.26.183,Simcolourproject_2stim_asymm_v5,2020.2.10,Win32,60,60a5f9bf14d0aa2821c4bb84,IwAR3k7-6vj3irAEF0nSIH_BuJmJRQbL6BOnOOwIr76KIS1zz-MvQixBW2OPI,,,,,2570,-27.19998896,22.3999939,1,0,0,response7disk,,1,-5.599988639,-6.4373E-06,1,0,0,rectangle,-5.599988639,-6.4373E-06,1,0,0,3,"[179,92,138,19,74,288,322,224,73,230,262,24,221,126,175,316,96,209,177,188]",-5.599988639,-6.4373E-06,1,0,0,0,144,144,27,1,,,
,,,,,,,,,,,,,FF,,,,,,,,1.065815,,,,,,,,,,,,,,,,,,,,,,,5ded025913911c3c46a677d7,60a66af1e47a63d368c27e1e,2021-05-21_11h49.26.183,Simcolourproject_2stim_asymm_v5,2020.2.10,Win32,60,60a5f9bf14d0aa2821c4bb84,IwAR3k7-6vj3irAEF0nSIH_BuJmJRQbL6BOnOOwIr76KIS1zz-MvQixBW2OPI,,,,,56,-37.59998912,19.99999386,1,0,0,response7disk,,1,4.000011504,-9.60000658,1,0,0,rectangle,4.000011504,-9.60000658,1,0,0,7,"[179,92,138,19,74,288,322,224,73,230,262,24,221,126,175,316,96,209,177,188]",4.000011504,-9.60000658,1,0,0,0,145,145,110,1,,,
,,,,,,,,,,,,,FF,,,,,,,,1.398905,,,,,,,,,,,,,,,,,,,,,,,5ded025913911c3c46a677d7,60a66af1e47a63d368c27e1e,2021-05-21_11h49.26.183,Simcolourproject_2stim_asymm_v5,2020.2.10,Win32,60,60a5f9bf14d0aa2821c4bb84,IwAR3k7-6vj3irAEF0nSIH_BuJmJRQbL6BOnOOwIr76KIS1zz-MvQixBW2OPI,,,,,3259,-34.39994024,20.79999387,1,0,0,response7disk,,1,2.40001148,-6.4373E-06,1,0,0,rectangle,2.40001148,-6.4373E-06,1,0,0,3,"[179,92,138,19,74,288,322,224,73,230,262,24,221,126,175,316,96,209,177,188]",2.40001148,-6.4373E-06,1,0,0,0,146,146,17,1,,,
,,,,,,,,,,,,,FF,,,,,,,,1.449105,,,,,,,,,,,,,,,,,,,,,,,5ded025913911c3c46a677d7,60a66af1e47a63d368c27e1e,2021-05-21_11h49.26.183,Simcolourproject_2stim_asymm_v5,2020.2.10,Win32,60,60a5f9bf14d0aa2821c4bb84,IwAR3k7-6vj3irAEF0nSIH_BuJmJRQbL6BOnOOwIr76KIS1zz-MvQixBW2OPI,,,,,3096,-56.7999894,52.79999435,1,0,0,response7disk,,1,0.800011456,-1.600006461,1,0,0,rectangle,0.800011456,-1.600006461,1,0,0,6,"[179,92,138,19,74,288,322,224,73,230,262,24,221,126,175,316,96,209,177,188]",0.800011456,-1.600006461,1,0,0,0,147,147,67,1,,,
,,,,,,,,,,,,,FF,,,,,,,,1.5322,,,,,,,,,,,,,,,,,,,,,,,5ded025913911c3c46a677d7,60a66af1e47a63d368c27e1e,2021-05-21_11h49.26.183,Simcolourproject_2stim_asymm_v5,2020.2.10,Win32,60,60a5f9bf14d0aa2821c4bb84,IwAR3k7-6vj3irAEF0nSIH_BuJmJRQbL6BOnOOwIr76KIS1zz-MvQixBW2OPI,,,,,1713,-51.99998933,22.3999939,1,0,0,response7disk,,1,10.4000116,-7.200006545,1,0,0,rectangle,10.4000116,-7.200006545,1,0,0,0,"[179,92,138,19,74,288,322,224,73,230,262,24,221,126,175,316,96,209,177,188]",10.4000116,-7.200006545,1,0,0,0,148,148,104,1,,,
,,,,,,,,,,,,,FF,,,,,,,,0.517005,,,,,,,,,,,,,,,,,,,,,,,5ded025913911c3c46a677d7,60a66af1e47a63d368c27e1e,2021-05-21_11h49.26.183,Simcolourproject_2stim_asymm_v5,2020.2.10,Win32,60,60a5f9bf14d0aa2821c4bb84,IwAR3k7-6vj3irAEF0nSIH_BuJmJRQbL6BOnOOwIr76KIS1zz-MvQixBW2OPI,,,,,1069,-35.19998908,-29.60000688,1,0,0,response5disk,,1,9.600060415,4.799993634,1,0,0,rectangle,9.600060415,4.799993634,1,0,0,0,"[179,92,138,19,74,288,322,224,73,230,262,24,221,126,175,316,96,209,177,188]",9.600060415,4.799993634,1,0,0,0,149,149,111,1,,,
,,,,,,,,,,,,,FF,,,,,,,,3.613495,,,,,,,,,,,,,,,,,,,,,,,5ded025913911c3c46a677d7,60a66af1e47a63d368c27e1e,2021-05-21_11h49.26.183,Simcolourproject_2stim_asymm_v5,2020.2.10,Win32,60,60a5f9bf14d0aa2821c4bb84,IwAR3k7-6vj3irAEF0nSIH_BuJmJRQbL6BOnOOwIr76KIS1zz-MvQixBW2OPI,,,,,3954,-31.99998903,-55.20000726,1,0,0,response5disk,,3,0.800011456,7.999993682,1,0,0,rectangle,0.800011456,7.999993682,1,0,0,7,"[179,92,138,19,74,288,322,224,73,230,262,24,221,126,175,316,96,209,177,188]",0.800011456,7.999993682,1,0,0,0,150,150,145,1,,,
,,,,,,,,,,,,,FF,,,,,,,,2.298585,,,,,,,,,,,,,,,,,,,,,,,5ded025913911c3c46a677d7,60a66af1e47a63d368c27e1e,2021-05-21_11h49.26.183,Simcolourproject_2stim_asymm_v5,2020.2.10,Win32,60,60a5f9bf14d0aa2821c4bb84,IwAR3k7-6vj3irAEF0nSIH_BuJmJRQbL6BOnOOwIr76KIS1zz-MvQixBW2OPI,,,,,175,-39.99998915,-19.20000672,1,0,0,response5disk,,3,-3.999988616,7.19999367,1,0,0,rectangle,-3.999988616,7.19999367,1,0,0,3,"[179,92,138,19,74,288,322,224,73,230,262,24,221,126,175,316,96,209,177,188]",-3.999988616,7.19999367,1,0,0,0,151,151,80,1,,,
,,,,,,,,,,,,,FF,,,,,,,,0.61639,,,,,,,,,,,,,,,,,,,,,,,5ded025913911c3c46a677d7,60a66af1e47a63d368c27e1e,2021-05-21_11h49.26.183,Simcolourproject_2stim_asymm_v5,2020.2.10,Win32,60,60a5f9bf14d0aa2821c4bb84,IwAR3k7-6vj3irAEF0nSIH_BuJmJRQbL6BOnOOwIr76KIS1zz-MvQixBW2OPI,,,,,1985,-39.19998914,24.79999393,1,0,0,response7disk,,1,0.800011456,-2.400006473,1,0,0,rectangle,0.800011456,-2.400006473,1,0,0,7,"[179,92,138,19,74,288,322,224,73,230,262,24,221,126,175,316,96,209,177,188]",0.800011456,-2.400006473,1,0,0,0,152,152,160,1,,,
,,,,,,,,,,,,,FF,,,,,,,,0.53313,,,,,,,,,,,,,,,,,,,,,,,5ded025913911c3c46a677d7,60a66af1e47a63d368c27e1e,2021-05-21_11h49.26.183,Simcolourproject_2stim_asymm_v5,2020.2.10,Win32,60,60a5f9bf14d0aa2821c4bb84,IwAR3k7-6vj3irAEF0nSIH_BuJmJRQbL6BOnOOwIr76KIS1zz-MvQixBW2OPI,,,,,3356,-43.1999892,-20.80000675,1,0,0,response5disk,,1,5.600060356,3.19999361,1,0,0,rectangle,5.600060356,3.19999361,1,0,0,5,"[179,92,138,19,74,288,322,224,73,230,262,24,221,126,175,316,96,209,177,188]",5.600060356,3.19999361,1,0,0,0,153,153,151,1,,,
,,,,,,,,,,,,,FF,,,,,,,,0.49974,,,,,,,,,,,,,,,,,,,,,,,5ded025913911c3c46a677d7,60a66af1e47a63d368c27e1e,2021-05-21_11h49.26.183,Simcolourproject_2stim_asymm_v5,2020.2.10,Win32,60,60a5f9bf14d0aa2821c4bb84,IwAR3k7-6vj3irAEF0nSIH_BuJmJRQbL6BOnOOwIr76KIS1zz-MvQixBW2OPI,,,,,2012,-35.99998909,24.79999393,1,0,0,response7disk,,1,-3.199988604,-3.200006485,1,0,0,rectangle,-3.199988604,-3.200006485,1,0,0,0,"[179,92,138,19,74,288,322,224,73,230,262,24,221,126,175,316,96,209,177,188]",-3.199988604,-3.200006485,1,0,0,0,154,154,153,1,,,
,,,,,,,,,,,,,FF,,,,,,,,0.666345,,,,,,,,,,,,,,,,,,,,,,,5ded025913911c3c46a677d7,60a66af1e47a63d368c27e1e,2021-05-21_11h49.26.183,Simcolourproject_2stim_asymm_v5,2020.2.10,Win32,60,60a5f9bf14d0aa2821c4bb84,IwAR3k7-6vj3irAEF0nSIH_BuJmJRQbL6BOnOOwIr76KIS1zz-MvQixBW2OPI,,,,,1184,-32.79998904,27.19996955,1,0,0,response7disk,,1,7.200011551,-8.000006557,1,0,0,rectangle,7.200011551,-8.000006557,1,0,0,4,"[179,92,138,19,74,288,322,224,73,230,262,24,221,126,175,316,96,209,177,188]",7.200011551,-8.000006557,1,0,0,0,155,155,48,1,,,
,,,,,,,,,,,,,FF,,,,,,,,0.63361,,,,,,,,,,,,,,,,,,,,,,,5ded025913911c3c46a677d7,60a66af1e47a63d368c27e1e,2021-05-21_11h49.26.183,Simcolourproject_2stim_asymm_v5,2020.2.10,Win32,60,60a5f9bf14d0aa2821c4bb84,IwAR3k7-6vj3irAEF0nSIH_BuJmJRQbL6BOnOOwIr76KIS1zz-MvQixBW2OPI,,,,,963,26.40001184,32.79999405,1,0,0,response1disk,,7,-14.39993994,-6.400006533,1,0,0,rectangle,-14.39993994,-6.400006533,1,0,0,1,"[179,92,138,19,74,288,322,224,73,230,262,24,221,126,175,316,96,209,177,188]",-14.39993994,-6.400006533,1,0,0,0,156,156,74,1,,,
,,,,,,,,,,,,,FF,,,,,,,,0.75047,,,,,,,,,,,,,,,,,,,,,,,5ded025913911c3c46a677d7,60a66af1e47a63d368c27e1e,2021-05-21_11h49.26.183,Simcolourproject_2stim_asymm_v5,2020.2.10,Win32,60,60a5f9bf14d0aa2821c4bb84,IwAR3k7-6vj3irAEF0nSIH_BuJmJRQbL6BOnOOwIr76KIS1zz-MvQixBW2OPI,,,,,2425,-30.39994018,20.79999387,1,0,0,response7disk,,1,-3.999988616,2.399993598,1,0,0,rectangle,-3.999988616,2.399993598,1,0,0,1,"[179,92,138,19,74,288,322,224,73,230,262,24,221,126,175,316,96,209,177,188]",-3.999988616,2.399993598,1,0,0,0,157,157,14,1,,,
,,,,,,,,,,,,,FF,,,,,,,,1.14905,,,,,,,,,,,,,,,,,,,,,,,5ded025913911c3c46a677d7,60a66af1e47a63d368c27e1e,2021-05-21_11h49.26.183,Simcolourproject_2stim_asymm_v5,2020.2.10,Win32,60,60a5f9bf14d0aa2821c4bb84,IwAR3k7-6vj3irAEF0nSIH_BuJmJRQbL6BOnOOwIr76KIS1zz-MvQixBW2OPI,,,,,2302,30.4000119,24.79999393,1,0,0,response1disk,,6,-15.99998879,-5.600006521,1,0,0,rectangle,-15.99998879,-5.600006521,1,0,0,4,"[179,92,138,19,74,288,322,224,73,230,262,24,221,126,175,316,96,209,177,188]",-15.99998879,-5.600006521,1,0,0,0,158,158,139,1,,,
,,,,,,,,,,,,,FF,,,,,,,,0.682075,,,,,,,,,,,,,,,,,,,,,,,5ded025913911c3c46a677d7,60a66af1e47a63d368c27e1e,2021-05-21_11h49.26.183,Simcolourproject_2stim_asymm_v5,2020.2.10,Win32,60,60a5f9bf14d0aa2821c4bb84,IwAR3k7-6vj3irAEF0nSIH_BuJmJRQbL6BOnOOwIr76KIS1zz-MvQixBW2OPI,,,,,3513,16.80001169,26.39999396,1,0,0,response1disk,,7,-4.799988627,7.999993682,1,0,0,rectangle,-4.799988627,7.999993682,1,0,0,0,"[179,92,138,19,74,288,322,224,73,230,262,24,221,126,175,316,96,209,177,188]",-4.799988627,7.999993682,1,0,0,0,159,159,69,1,,,
,,,,,,,,,,,,,FF,,,,,,,,1.681335,,,,,,,,,,,,,,,,,,,,,,,5ded025913911c3c46a677d7,60a66af1e47a63d368c27e1e,2021-05-21_11h49.26.183,Simcolourproject_2stim_asymm_v5,2020.2.10,Win32,60,60a5f9bf14d0aa2821c4bb84,IwAR3k7-6vj3irAEF0nSIH_BuJmJRQbL6BOnOOwIr76KIS1zz-MvQixBW2OPI,,,,,303,29.60006071,49.5999943,1,0,0,response1disk,,7,3.200011492,6.399993658,1,0,0,rectangle,3.200011492,6.399993658,1,0,0,4,"[179,92,138,19,74,288,322,224,73,230,262,24,221,126,175,316,96,209,177,188]",3.200011492,6.399993658,1,0,0,0,160,160,155,1,,,
,,,,,,,,,,,,,FF,,,,,,,,1.54877,,,,,,,,,,,,,,,,,,,,,,,5ded025913911c3c46a677d7,60a66af1e47a63d368c27e1e,2021-05-21_11h49.26.183,Simcolourproject_2stim_asymm_v5,2020.2.10,Win32,60,60a5f9bf14d0aa2821c4bb84,IwAR3k7-6vj3irAEF0nSIH_BuJmJRQbL6BOnOOwIr76KIS1zz-MvQixBW2OPI,,,,,268,51.20001221,34.39999408,1,0,0,response1disk,,6,2.40001148,13.59999377,1,0,0,rectangle,2.40001148,13.59999377,1,0,0,2,"[179,92,138,19,74,288,322,224,73,230,262,24,221,126,175,316,96,209,177,188]",2.40001148,13.59999377,1,0,0,1,0,161,159,1,,,
,,,,,,,,,,,,,FF,,,,,,,,0.649205,,,,,,,,,,,,,,,,,,,,,,,5ded025913911c3c46a677d7,60a66af1e47a63d368c27e1e,2021-05-21_11h49.26.183,Simcolourproject_2stim_asymm_v5,2020.2.10,Win32,60,60a5f9bf14d0aa2821c4bb84,IwAR3k7-6vj3irAEF0nSIH_BuJmJRQbL6BOnOOwIr76KIS1zz-MvQixBW2OPI,,,,,922,27.20001185,39.19996973,1,0,0,response1disk,,7,-2.399939764,3.19999361,1,0,0,rectangle,-2.399939764,3.19999361,1,0,0,0,"[179,92,138,19,74,288,322,224,73,230,262,24,221,126,175,316,96,209,177,188]",-2.399939764,3.19999361,1,0,0,1,1,162,103,1,,,
,,,,,,,,,,,,,FF,,,,,,,,0.598215,,,,,,,,,,,,,,,,,,,,,,,5ded025913911c3c46a677d7,60a66af1e47a63d368c27e1e,2021-05-21_11h49.26.183,Simcolourproject_2stim_asymm_v5,2020.2.10,Win32,60,60a5f9bf14d0aa2821c4bb84,IwAR3k7-6vj3irAEF0nSIH_BuJmJRQbL6BOnOOwIr76KIS1zz-MvQixBW2OPI,,,,,1579,-56.7999894,39.19996973,1,0,0,response7disk,,1,4.000011504,0.799993575,1,0,0,rectangle,4.000011504,0.799993575,1,0,0,2,"[179,92,138,19,74,288,322,224,73,230,262,24,221,126,175,316,96,209,177,188]",4.000011504,0.799993575,1,0,0,1,2,163,160,1,,,
,,,,,,,,,,,,,FF,,,,,,,,0.39917,,,,,,,,,,,,,,,,,,,,,,,5ded025913911c3c46a677d7,60a66af1e47a63d368c27e1e,2021-05-21_11h49.26.183,Simcolourproject_2stim_asymm_v5,2020.2.10,Win32,60,60a5f9bf14d0aa2821c4bb84,IwAR3k7-6vj3irAEF0nSIH_BuJmJRQbL6BOnOOwIr76KIS1zz-MvQixBW2OPI,,,,,712,44.80001211,31.99999404,1,0,0,response1disk,,6,-4.799988627,-0.800006449,1,0,0,rectangle,-4.799988627,-0.800006449,1,0,0,3,"[179,92,138,19,74,288,322,224,73,230,262,24,221,126,175,316,96,209,177,188]",-4.799988627,-0.800006449,1,0,0,1,3,164,84,1,,,
,,,,,,,,,,,,,FF,,,,,,,,0.483335,,,,,,,,,,,,,,,,,,,,,,,5ded025913911c3c46a677d7,60a66af1e47a63d368c27e1e,2021-05-21_11h49.26.183,Simcolourproject_2stim_asymm_v5,2020.2.10,Win32,60,60a5f9bf14d0aa2821c4bb84,IwAR3k7-6vj3irAEF0nSIH_BuJmJRQbL6BOnOOwIr76KIS1zz-MvQixBW2OPI,,,,,2963,32.80001193,25.59999394,1,0,0,response1disk,,6,-15.99998879,-6.400006533,1,0,0,rectangle,-15.99998879,-6.400006533,1,0,0,0,"[179,92,138,19,74,288,322,224,73,230,262,24,221,126,175,316,96,209,177,188]",-15.99998879,-6.400006533,1,0,0,1,4,165,4,1,,,
,,,,,,,,,,,,,FF,,,,,,,,1.148665,,,,,,,,,,,,,,,,,,,,,,,5ded025913911c3c46a677d7,60a66af1e47a63d368c27e1e,2021-05-21_11h49.26.183,Simcolourproject_2stim_asymm_v5,2020.2.10,Win32,60,60a5f9bf14d0aa2821c4bb84,IwAR3k7-6vj3irAEF0nSIH_BuJmJRQbL6BOnOOwIr76KIS1zz-MvQixBW2OPI,,,,,3809,19.20001173,-33.60000694,1,0,0,response3disk,,4,-2.399939764,15.9999938,1,0,0,rectangle,-2.399939764,15.9999938,1,0,0,3,"[179,92,138,19,74,288,322,224,73,230,262,24,221,126,175,316,96,209,177,188]",-2.399939764,15.9999938,1,0,0,1,5,166,61,1,,,
,,,,,,,,,,,,,FF,,,,,,,,0.533405,,,,,,,,,,,,,,,,,,,,,,,5ded025913911c3c46a677d7,60a66af1e47a63d368c27e1e,2021-05-21_11h49.26.183,Simcolourproject_2stim_asymm_v5,2020.2.10,Win32,60,60a5f9bf14d0aa2821c4bb84,IwAR3k7-6vj3irAEF0nSIH_BuJmJRQbL6BOnOOwIr76KIS1zz-MvQixBW2OPI,,,,,1044,55.20001227,66.39999455,1,0,0,response1disk,,7,5.600060356,1.599993587,1,0,0,rectangle,5.600060356,1.599993587,1,0,0,6,"[179,92,138,19,74,288,322,224,73,230,262,24,221,126,175,316,96,209,177,188]",5.600060356,1.599993587,1,0,0,1,6,167,101,1,,,
,,,,,,,,,,,,,FF,,,,,,,,1.149,,,,,,,,,,,,,,,,,,,,,,,5ded025913911c3c46a677d7,60a66af1e47a63d368c27e1e,2021-05-21_11h49.26.183,Simcolourproject_2stim_asymm_v5,2020.2.10,Win32,60,60a5f9bf14d0aa2821c4bb84,IwAR3k7-6vj3irAEF0nSIH_BuJmJRQbL6BOnOOwIr76KIS1zz-MvQixBW2OPI,,,,,2850,42.40001208,39.99999416,1,0,0,response1disk,,6,-2.399939764,-1.600006461,1,0,0,rectangle,-2.399939764,-1.600006461,1,0,0,3,"[179,92,138,19,74,288,322,224,73,230,262,24,221,126,175,316,96,209,177,188]",-2.399939764,-1.600006461,1,0,0,1,7,168,41,1,,,
,,,,,,,,,,,,,FF,,,,,,,,0.41648,,,,,,,,,,,,,,,,,,,,,,,5ded025913911c3c46a677d7,60a66af1e47a63d368c27e1e,2021-05-21_11h49.26.183,Simcolourproject_2stim_asymm_v5,2020.2.10,Win32,60,60a5f9bf14d0aa2821c4bb84,IwAR3k7-6vj3irAEF0nSIH_BuJmJRQbL6BOnOOwIr76KIS1zz-MvQixBW2OPI,,,,,963,49.60006101,39.99999416,1,0,0,response1disk,,6,-3.199988604,-1.600006461,1,0,0,rectangle,-3.199988604,-1.600006461,1,0,0,6,"[179,92,138,19,74,288,322,224,73,230,262,24,221,126,175,316,96,209,177,188]",-3.199988604,-1.600006461,1,0,0,1,8,169,48,1,,,
,,,,,,,,,,,,,FF,,,,,,,,0.533225,,,,,,,,,,,,,,,,,,,,,,,5ded025913911c3c46a677d7,60a66af1e47a63d368c27e1e,2021-05-21_11h49.26.183,Simcolourproject_2stim_asymm_v5,2020.2.10,Win32,60,60a5f9bf14d0aa2821c4bb84,IwAR3k7-6vj3irAEF0nSIH_BuJmJRQbL6BOnOOwIr76KIS1zz-MvQixBW2OPI,,,,,2558,64.0000124,22.3999939,1,0,0,response1disk,,6,1.600060296,-1.600006461,1,0,0,rectangle,1.600060296,-1.600006461,1,0,0,6,"[179,92,138,19,74,288,322,224,73,230,262,24,221,126,175,316,96,209,177,188]",1.600060296,-1.600006461,1,0,0,1,9,170,100,1,,,
,,,,,,,,,,,,,FF,,,,,,,,2.13204,,,,,,,,,,,,,,,,,,,,,,,5ded025913911c3c46a677d7,60a66af1e47a63d368c27e1e,2021-05-21_11h49.26.183,Simcolourproject_2stim_asymm_v5,2020.2.10,Win32,60,60a5f9bf14d0aa2821c4bb84,IwAR3k7-6vj3irAEF0nSIH_BuJmJRQbL6BOnOOwIr76KIS1zz-MvQixBW2OPI,,,,,2662,20.80001175,30.39999402,1,0,0,response1disk,,7,1.14441E-05,-0.800006449,1,0,0,rectangle,1.14441E-05,-0.800006449,1,0,0,2,"[179,92,138,19,74,288,322,224,73,230,262,24,221,126,175,316,96,209,177,188]",1.14441E-05,-0.800006449,1,0,0,1,10,171,116,1,,,
,,,,,,,,,,,,,FF,,,,,,,,1.94941,,,,,,,,,,,,,,,,,,,,,,,5ded025913911c3c46a677d7,60a66af1e47a63d368c27e1e,2021-05-21_11h49.26.183,Simcolourproject_2stim_asymm_v5,2020.2.10,Win32,60,60a5f9bf14d0aa2821c4bb84,IwAR3k7-6vj3irAEF0nSIH_BuJmJRQbL6BOnOOwIr76KIS1zz-MvQixBW2OPI,,,,,2049,43.20001209,55.9999944,1,0,0,response1disk,,7,10.4000116,7.999993682,1,0,0,rectangle,10.4000116,7.999993682,1,0,0,6,"[179,92,138,19,74,288,322,224,73,230,262,24,221,126,175,316,96,209,177,188]",10.4000116,7.999993682,1,0,0,1,11,172,14,1,,,
,,,,,,,,,,,,,FF,,,,,,,,8.592555,,,,,,,,,,,,,,,,,,,,,,,5ded025913911c3c46a677d7,60a66af1e47a63d368c27e1e,2021-05-21_11h49.26.183,Simcolourproject_2stim_asymm_v5,2020.2.10,Win32,60,60a5f9bf14d0aa2821c4bb84,IwAR3k7-6vj3irAEF0nSIH_BuJmJRQbL6BOnOOwIr76KIS1zz-MvQixBW2OPI,,,,,451,36.00001198,30.39999402,1,0,0,response1disk,,6,-8.799988687,-1.600006461,1,0,0,rectangle,-8.799988687,-1.600006461,1,0,0,7,"[179,92,138,19,74,288,322,224,73,230,262,24,221,126,175,316,96,209,177,188]",-8.799988687,-1.600006461,1,0,0,1,12,173,7,1,,,
,,,,,,,,,,,,,FF,,,,,,,,0.45028,,,,,,,,,,,,,,,,,,,,,,,5ded025913911c3c46a677d7,60a66af1e47a63d368c27e1e,2021-05-21_11h49.26.183,Simcolourproject_2stim_asymm_v5,2020.2.10,Win32,60,60a5f9bf14d0aa2821c4bb84,IwAR3k7-6vj3irAEF0nSIH_BuJmJRQbL6BOnOOwIr76KIS1zz-MvQixBW2OPI,,,,,845,28.80001187,43.99999422,1,0,0,response1disk,,7,-5.599988639,2.399993598,1,0,0,rectangle,24.80001181,46.39999425,1,0,0,4,"[179,92,138,19,74,288,322,224,73,230,262,24,221,126,175,316,96,209,177,188]",-11.19998872,0.799993575,1,0,0,1,13,174,134,1,,response1disk_3,rectangle
,,,,,,,,,,,,,FF,,,,,,,,1.14892,,,,,,,,,,,,,,,,,,,,,,,5ded025913911c3c46a677d7,60a66af1e47a63d368c27e1e,2021-05-21_11h49.26.183,Simcolourproject_2stim_asymm_v5,2020.2.10,Win32,60,60a5f9bf14d0aa2821c4bb84,IwAR3k7-6vj3irAEF0nSIH_BuJmJRQbL6BOnOOwIr76KIS1zz-MvQixBW2OPI,,,,,851,39.20001203,26.39999396,1,0,0,response1disk,,6,6.400011539,3.999993622,1,0,0,rectangle,6.400011539,3.999993622,1,0,0,4,"[179,92,138,19,74,288,322,224,73,230,262,24,221,126,175,316,96,209,177,188]",6.400011539,3.999993622,1,0,0,1,14,175,52,1,,,
,,,,,,,,,,,,,FF,,,,,,,,1.000005,,,,,,,,,,,,,,,,,,,,,,,5ded025913911c3c46a677d7,60a66af1e47a63d368c27e1e,2021-05-21_11h49.26.183,Simcolourproject_2stim_asymm_v5,2020.2.10,Win32,60,60a5f9bf14d0aa2821c4bb84,IwAR3k7-6vj3irAEF0nSIH_BuJmJRQbL6BOnOOwIr76KIS1zz-MvQixBW2OPI,,,,,37,66.40001243,-68.00000745,1,0,0,response3disk,,4,-1.59998858,3.999993622,1,0,0,rectangle,40.00001204,-38.40000701,1,0,0,0,"[179,92,138,19,74,288,322,224,73,230,262,24,221,126,175,316,96,209,177,188]",11.20001161,2.399993598,1,0,0,1,15,176,63,1,,response3disk_3,rectangle
,,,,,,,,,,,,,FF,,,,,,,,2.930845,,,,,,,,,,,,,,,,,,,,,,,5ded025913911c3c46a677d7,60a66af1e47a63d368c27e1e,2021-05-21_11h49.26.183,Simcolourproject_2stim_asymm_v5,2020.2.10,Win32,60,60a5f9bf14d0aa2821c4bb84,IwAR3k7-6vj3irAEF0nSIH_BuJmJRQbL6BOnOOwIr76KIS1zz-MvQixBW2OPI,,,,,3462,53.60001224,49.5999943,1,0,0,response1disk,,6,10.4000116,7.999993682,1,0,0,rectangle,10.4000116,7.999993682,1,0,0,5,"[179,92,138,19,74,288,322,224,73,230,262,24,221,126,175,316,96,209,177,188]",10.4000116,7.999993682,1,0,0,1,16,177,88,1,,,
,,,,,,,,,,,,,FF,,,,,,,,0.48428,,,,,,,,,,,,,,,,,,,,,,,5ded025913911c3c46a677d7,60a66af1e47a63d368c27e1e,2021-05-21_11h49.26.183,Simcolourproject_2stim_asymm_v5,2020.2.10,Win32,60,60a5f9bf14d0aa2821c4bb84,IwAR3k7-6vj3irAEF0nSIH_BuJmJRQbL6BOnOOwIr76KIS1zz-MvQixBW2OPI,,,,,2570,42.40001208,-28.00000685,1,0,0,response3disk,,5,-1.59998858,-5.600006521,1,0,0,rectangle,38.40001202,-34.40000695,1,0,0,4,"[179,92,138,19,74,288,322,224,73,230,262,24,221,126,175,316,96,209,177,188]",10.4000116,-4.000006497,1,0,0,1,17,178,148,1,,response3disk_3,rectangle
,,,,,,,,,,,,,FF,,,,,,,,1.115725,,,,,,,,,,,,,,,,,,,,,,,5ded025913911c3c46a677d7,60a66af1e47a63d368c27e1e,2021-05-21_11h49.26.183,Simcolourproject_2stim_asymm_v5,2020.2.10,Win32,60,60a5f9bf14d0aa2821c4bb84,IwAR3k7-6vj3irAEF0nSIH_BuJmJRQbL6BOnOOwIr76KIS1zz-MvQixBW2OPI,,,,,472,55.20001227,53.59999436,1,0,0,response1disk,,6,-11.19998872,5.599993646,1,0,0,rectangle,-11.19998872,5.599993646,1,0,0,7,"[179,92,138,19,74,288,322,224,73,230,262,24,221,126,175,316,96,209,177,188]",-11.19998872,5.599993646,1,0,0,1,18,179,20,1,,,
,,,,,,,,,,,,,FF,,,,,,,,0.765905,,,,,,,,,,,,,,,,,,,,,,,5ded025913911c3c46a677d7,60a66af1e47a63d368c27e1e,2021-05-21_11h49.26.183,Simcolourproject_2stim_asymm_v5,2020.2.10,Win32,60,60a5f9bf14d0aa2821c4bb84,IwAR3k7-6vj3irAEF0nSIH_BuJmJRQbL6BOnOOwIr76KIS1zz-MvQixBW2OPI,,,,,20,40.80001205,25.59999394,1,0,0,response1disk,,6,2.40001148,3.999993622,1,0,0,rectangle,2.40001148,3.999993622,1,0,0,6,"[179,92,138,19,74,288,322,224,73,230,262,24,221,126,175,316,96,209,177,188]",2.40001148,3.999993622,1,0,0,1,19,180,68,1,,,
,,,,,,,,,,,,,FF,,,,,,,,0.58333,,,,,,,,,,,,,,,,,,,,,,,5ded025913911c3c46a677d7,60a66af1e47a63d368c27e1e,2021-05-21_11h49.26.183,Simcolourproject_2stim_asymm_v5,2020.2.10,Win32,60,60a5f9bf14d0aa2821c4bb84,IwAR3k7-6vj3irAEF0nSIH_BuJmJRQbL6BOnOOwIr76KIS1zz-MvQixBW2OPI,,,,,1330,56.00001228,37.59999412,1,0,0,response1disk,,6,6.400011539,1.599993587,1,0,0,rectangle,6.400011539,1.599993587,1,0,0,5,"[179,92,138,19,74,288,322,224,73,230,262,24,221,126,175,316,96,209,177,188]",6.400011539,1.599993587,1,0,0,1,20,181,133,1,,,
