key_resp.keys,key_resp.rt,key_resp_14.keys,key_resp_14.rt,key_resp_15.keys,key_resp_15.rt,key_resp_17.keys,key_resp_17.rt,key_resp_9.keys,key_resp_9.rt,key_resp_10.keys,key_resp_10.rt,practice_comparison,Ecc,mouse_5.x,mouse_5.y,mouse_5.leftButton,mouse_5.midButton,mouse_5.rightButton,mouse_5.clicked_name,pracsimilarity,response_time,mouse_10.x,mouse_10.y,mouse_10.leftButton,mouse_10.midButton,mouse_10.rightButton,mouse_10.clicked_name,mouse_7.x,mouse_7.y,mouse_7.leftButton,mouse_7.midButton,mouse_7.rightButton,catchnumberprac,mouse_6.x,mouse_6.y,mouse_6.leftButton,mouse_6.midButton,mouse_6.rightButton,duringprac.thisRepN,duringprac.thisTrialN,duringprac.thisN,duringprac.thisIndex,duringprac.ran,participant,session,date,expName,psychopyVersion,OS,frameRate,study_id,mouse_7.clicked_name,mouse_6.clicked_name,key_resp_22.keys,key_resp_22.rt,realcomparison,mouse.x,mouse.y,mouse.leftButton,mouse.midButton,mouse.rightButton,mouse.clicked_name,Colour2,similarity,mouse_2.x,mouse_2.y,mouse_2.leftButton,mouse_2.midButton,mouse_2.rightButton,mouse_2.clicked_name,mouse_3.x,mouse_3.y,mouse_3.leftButton,mouse_3.midButton,mouse_3.rightButton,catchnumber,catchtrialorder,mouse_11.x,mouse_11.y,mouse_11.leftButton,mouse_11.midButton,mouse_11.rightButton,trials_2.thisRepN,trials_2.thisTrialN,trials_2.thisN,trials_2.thisIndex,trials_2.ran,Colour1,mouse_3.clicked_name,mouse_11.clicked_name
space,1.127825,space,8.17421,space,15.828185,space,7.856495,space,0.980435,space,3.07731,95,PF,-41,-106,1,0,0,response5disk_5,3,6.43849,-4,2,1,0,0,rectangle_8,-4,2,1,0,0,5,-4,2,1,0,0,0,0,0,1,1,5df3a70877f865293e86c0a0,60a7d7fbfb4fde314ca4e046,2021-05-21_17h56.22.620,Simcolourproject_2stim_asymm_v5,2020.2.10,Win32,60,60a5f9bf14d0aa2821c4bb84,,,,,,,,,,,,,,,,,,,,,,,,,,,,,,,,,,,,,,,
,,,,,,,,,,,,50,FF,76,143,1,0,0,response1disk_5,7,1.65288,-2,-1,1,0,0,rectangle_8,115,-46,1,0,0,5,6,6,1,0,0,0,1,1,3,1,5df3a70877f865293e86c0a0,60a7d7fbfb4fde314ca4e046,2021-05-21_17h56.22.620,Simcolourproject_2stim_asymm_v5,2020.2.10,Win32,60,60a5f9bf14d0aa2821c4bb84,response3disk_7,rectangle_4,,,,,,,,,,,,,,,,,,,,,,,,,,,,,,,,,,,,,
,,,,,,,,,,,,122,PF,-68,116,1,0,0,response7disk_5,0,4.29186,24,-7,1,0,0,rectangle_8,24,-7,1,0,0,5,24,-7,1,0,0,0,2,2,6,1,5df3a70877f865293e86c0a0,60a7d7fbfb4fde314ca4e046,2021-05-21_17h56.22.620,Simcolourproject_2stim_asymm_v5,2020.2.10,Win32,60,60a5f9bf14d0aa2821c4bb84,,,,,,,,,,,,,,,,,,,,,,,,,,,,,,,,,,,,,,,
,,,,,,,,,,,,99,FF,50,128,1,0,0,response1disk_5,7,1.03481,12,-1,1,0,0,rectangle_8,12,-1,1,0,0,5,12,-1,1,0,0,0,3,3,5,1,5df3a70877f865293e86c0a0,60a7d7fbfb4fde314ca4e046,2021-05-21_17h56.22.620,Simcolourproject_2stim_asymm_v5,2020.2.10,Win32,60,60a5f9bf14d0aa2821c4bb84,,,,,,,,,,,,,,,,,,,,,,,,,,,,,,,,,,,,,,,
,,,,,,,,,,,,104,PF,106,-54,1,0,0,response3disk_5,5,1.99312,-8,12,1,0,0,rectangle_8,108,-52,1,0,0,5,9,8,1,0,0,0,4,4,2,1,5df3a70877f865293e86c0a0,60a7d7fbfb4fde314ca4e046,2021-05-21_17h56.22.620,Simcolourproject_2stim_asymm_v5,2020.2.10,Win32,60,60a5f9bf14d0aa2821c4bb84,response3disk_7,rectangle_4,,,,,,,,,,,,,,,,,,,,,,,,,,,,,,,,,,,,,
,,,,,,,,,,,,136,FF,-43,-140,1,0,0,response5disk_5,3,3.465425,-1,5,1,0,0,rectangle_8,-1,5,1,0,0,5,-1,5,1,0,0,0,5,5,0,1,5df3a70877f865293e86c0a0,60a7d7fbfb4fde314ca4e046,2021-05-21_17h56.22.620,Simcolourproject_2stim_asymm_v5,2020.2.10,Win32,60,60a5f9bf14d0aa2821c4bb84,,,,,,,,,,,,,,,,,,,,,,,,,,,,,,,,,,,,,,,
,,,,,,,,,,,,49,PF,-37,138,1,0,0,response7disk_5,0,1.187575,-17,-7,1,0,0,rectangle_8,-17,-7,1,0,0,5,-17,-7,1,0,0,0,6,6,4,1,5df3a70877f865293e86c0a0,60a7d7fbfb4fde314ca4e046,2021-05-21_17h56.22.620,Simcolourproject_2stim_asymm_v5,2020.2.10,Win32,60,60a5f9bf14d0aa2821c4bb84,,,,,,,,,,,,,,,,,,,,,,,,,,,,,,,,,,,,,,,
,,,,,,,,,,,,,FF,,,,,,,,3.06969,,,,,,,,,,,,,,,,,,,,,,,5df3a70877f865293e86c0a0,60a7d7fbfb4fde314ca4e046,2021-05-21_17h56.22.620,Simcolourproject_2stim_asymm_v5,2020.2.10,Win32,60,60a5f9bf14d0aa2821c4bb84,,,space,2.69548,3960,-41,134,1,0,0,response7disk,,0,-4,-5,1,0,0,rectangle,-4,-5,1,0,0,4,"[97,114,208,67,292,256,265,207,252,20,172,132,84,19,119,223,205,73,38,162]",-4,-5,1,0,0,0,0,0,49,1,,,
,,,,,,,,,,,,,FF,,,,,,,,4.041975,,,,,,,,,,,,,,,,,,,,,,,5df3a70877f865293e86c0a0,60a7d7fbfb4fde314ca4e046,2021-05-21_17h56.22.620,Simcolourproject_2stim_asymm_v5,2020.2.10,Win32,60,60a5f9bf14d0aa2821c4bb84,,,,,3050,-107,49,1,0,0,response7disk,,1,-10,-3,1,0,0,rectangle,-10,-3,1,0,0,2,"[97,114,208,67,292,256,265,207,252,20,172,132,84,19,119,223,205,73,38,162]",-10,-3,1,0,0,0,1,1,68,1,,,
,,,,,,,,,,,,,FF,,,,,,,,2.65299,,,,,,,,,,,,,,,,,,,,,,,5df3a70877f865293e86c0a0,60a7d7fbfb4fde314ca4e046,2021-05-21_17h56.22.620,Simcolourproject_2stim_asymm_v5,2020.2.10,Win32,60,60a5f9bf14d0aa2821c4bb84,,,,,2937,104,-142,1,0,0,response3disk,,4,-10,-6,1,0,0,rectangle,-10,-6,1,0,0,4,"[97,114,208,67,292,256,265,207,252,20,172,132,84,19,119,223,205,73,38,162]",-10,-6,1,0,0,0,2,2,34,1,,,
,,,,,,,,,,,,,FF,,,,,,,,5.59736,,,,,,,,,,,,,,,,,,,,,,,5df3a70877f865293e86c0a0,60a7d7fbfb4fde314ca4e046,2021-05-21_17h56.22.620,Simcolourproject_2stim_asymm_v5,2020.2.10,Win32,60,60a5f9bf14d0aa2821c4bb84,,,,,4004,70,112,1,0,0,response1disk,,7,-3,-1,1,0,0,rectangle,-3,-1,1,0,0,5,"[97,114,208,67,292,256,265,207,252,20,172,132,84,19,119,223,205,73,38,162]",-3,-1,1,0,0,0,3,3,18,1,,,
,,,,,,,,,,,,,FF,,,,,,,,2.04177,,,,,,,,,,,,,,,,,,,,,,,5df3a70877f865293e86c0a0,60a7d7fbfb4fde314ca4e046,2021-05-21_17h56.22.620,Simcolourproject_2stim_asymm_v5,2020.2.10,Win32,60,60a5f9bf14d0aa2821c4bb84,,,,,1465,58,-123,1,0,0,response3disk,,4,-3,6,1,0,0,rectangle,-3,6,1,0,0,3,"[97,114,208,67,292,256,265,207,252,20,172,132,84,19,119,223,205,73,38,162]",-3,6,1,0,0,0,4,4,154,1,,,
,,,,,,,,,,,,,FF,,,,,,,,2.50009,,,,,,,,,,,,,,,,,,,,,,,5df3a70877f865293e86c0a0,60a7d7fbfb4fde314ca4e046,2021-05-21_17h56.22.620,Simcolourproject_2stim_asymm_v5,2020.2.10,Win32,60,60a5f9bf14d0aa2821c4bb84,,,,,273,59,112,1,0,0,response1disk,,7,-18,17,1,0,0,rectangle,-18,17,1,0,0,4,"[97,114,208,67,292,256,265,207,252,20,172,132,84,19,119,223,205,73,38,162]",-18,17,1,0,0,0,5,5,48,1,,,
,,,,,,,,,,,,,FF,,,,,,,,0.736135,,,,,,,,,,,,,,,,,,,,,,,5df3a70877f865293e86c0a0,60a7d7fbfb4fde314ca4e046,2021-05-21_17h56.22.620,Simcolourproject_2stim_asymm_v5,2020.2.10,Win32,60,60a5f9bf14d0aa2821c4bb84,,,,,3318,50,127,1,0,0,response1disk,,7,-1,-1,1,0,0,rectangle,-1,-1,1,0,0,5,"[97,114,208,67,292,256,265,207,252,20,172,132,84,19,119,223,205,73,38,162]",-1,-1,1,0,0,0,6,6,135,1,,,
,,,,,,,,,,,,,FF,,,,,,,,2.84733,,,,,,,,,,,,,,,,,,,,,,,5df3a70877f865293e86c0a0,60a7d7fbfb4fde314ca4e046,2021-05-21_17h56.22.620,Simcolourproject_2stim_asymm_v5,2020.2.10,Win32,60,60a5f9bf14d0aa2821c4bb84,,,,,520,102,-47,1,0,0,response3disk,,5,18,8,1,0,0,rectangle,18,8,1,0,0,0,"[97,114,208,67,292,256,265,207,252,20,172,132,84,19,119,223,205,73,38,162]",18,8,1,0,0,0,7,7,131,1,,,
,,,,,,,,,,,,,FF,,,,,,,,1.166765,,,,,,,,,,,,,,,,,,,,,,,5df3a70877f865293e86c0a0,60a7d7fbfb4fde314ca4e046,2021-05-21_17h56.22.620,Simcolourproject_2stim_asymm_v5,2020.2.10,Win32,60,60a5f9bf14d0aa2821c4bb84,,,,,2849,52,125,1,0,0,response1disk,,7,5,7,1,0,0,rectangle,5,7,1,0,0,1,"[97,114,208,67,292,256,265,207,252,20,172,132,84,19,119,223,205,73,38,162]",5,7,1,0,0,0,8,8,91,1,,,
,,,,,,,,,,,,,FF,,,,,,,,1.437545,,,,,,,,,,,,,,,,,,,,,,,5df3a70877f865293e86c0a0,60a7d7fbfb4fde314ca4e046,2021-05-21_17h56.22.620,Simcolourproject_2stim_asymm_v5,2020.2.10,Win32,60,60a5f9bf14d0aa2821c4bb84,,,,,827,39,112,1,0,0,response1disk,,7,-10,1,1,0,0,rectangle,-10,1,1,0,0,2,"[97,114,208,67,292,256,265,207,252,20,172,132,84,19,119,223,205,73,38,162]",-10,1,1,0,0,0,9,9,160,1,,,
,,,,,,,,,,,,,FF,,,,,,,,0.5903,,,,,,,,,,,,,,,,,,,,,,,5df3a70877f865293e86c0a0,60a7d7fbfb4fde314ca4e046,2021-05-21_17h56.22.620,Simcolourproject_2stim_asymm_v5,2020.2.10,Win32,60,60a5f9bf14d0aa2821c4bb84,,,,,3256,42,106,1,0,0,response1disk,,7,2,-5,1,0,0,rectangle,2,-5,1,0,0,1,"[97,114,208,67,292,256,265,207,252,20,172,132,84,19,119,223,205,73,38,162]",2,-5,1,0,0,0,10,10,64,1,,,
,,,,,,,,,,,,,FF,,,,,,,,1.006955,,,,,,,,,,,,,,,,,,,,,,,5df3a70877f865293e86c0a0,60a7d7fbfb4fde314ca4e046,2021-05-21_17h56.22.620,Simcolourproject_2stim_asymm_v5,2020.2.10,Win32,60,60a5f9bf14d0aa2821c4bb84,,,,,2375,52,135,1,0,0,response1disk,,7,-17,17,1,0,0,rectangle,-17,17,1,0,0,2,"[97,114,208,67,292,256,265,207,252,20,172,132,84,19,119,223,205,73,38,162]",-17,17,1,0,0,0,11,11,126,1,,,
,,,,,,,,,,,,,FF,,,,,,,,1.74312,,,,,,,,,,,,,,,,,,,,,,,5df3a70877f865293e86c0a0,60a7d7fbfb4fde314ca4e046,2021-05-21_17h56.22.620,Simcolourproject_2stim_asymm_v5,2020.2.10,Win32,60,60a5f9bf14d0aa2821c4bb84,,,,,3356,49,115,1,0,0,response1disk,,7,4,4,1,0,0,rectangle,4,4,1,0,0,4,"[97,114,208,67,292,256,265,207,252,20,172,132,84,19,119,223,205,73,38,162]",4,4,1,0,0,0,12,12,79,1,,,
,,,,,,,,,,,,,FF,,,,,,,,0.548655,,,,,,,,,,,,,,,,,,,,,,,5df3a70877f865293e86c0a0,60a7d7fbfb4fde314ca4e046,2021-05-21_17h56.22.620,Simcolourproject_2stim_asymm_v5,2020.2.10,Win32,60,60a5f9bf14d0aa2821c4bb84,,,,,552,45,144,1,0,0,response1disk,,7,14,8,1,0,0,rectangle,14,8,1,0,0,4,"[97,114,208,67,292,256,265,207,252,20,172,132,84,19,119,223,205,73,38,162]",14,8,1,0,0,0,13,13,155,1,,,
,,,,,,,,,,,,,FF,,,,,,,,1.21532,,,,,,,,,,,,,,,,,,,,,,,5df3a70877f865293e86c0a0,60a7d7fbfb4fde314ca4e046,2021-05-21_17h56.22.620,Simcolourproject_2stim_asymm_v5,2020.2.10,Win32,60,60a5f9bf14d0aa2821c4bb84,,,,,1262,50,134,1,0,0,response1disk,,7,12,-5,1,0,0,rectangle,12,-5,1,0,0,0,"[97,114,208,67,292,256,265,207,252,20,172,132,84,19,119,223,205,73,38,162]",12,-5,1,0,0,0,14,14,118,1,,,
,,,,,,,,,,,,,FF,,,,,,,,2.890405,,,,,,,,,,,,,,,,,,,,,,,5df3a70877f865293e86c0a0,60a7d7fbfb4fde314ca4e046,2021-05-21_17h56.22.620,Simcolourproject_2stim_asymm_v5,2020.2.10,Win32,60,60a5f9bf14d0aa2821c4bb84,,,,,607,125,54,1,0,0,response1disk,,6,7,3,1,0,0,rectangle,7,3,1,0,0,5,"[97,114,208,67,292,256,265,207,252,20,172,132,84,19,119,223,205,73,38,162]",7,3,1,0,0,0,15,15,123,1,,,
,,,,,,,,,,,,,FF,,,,,,,,0.583385,,,,,,,,,,,,,,,,,,,,,,,5df3a70877f865293e86c0a0,60a7d7fbfb4fde314ca4e046,2021-05-21_17h56.22.620,Simcolourproject_2stim_asymm_v5,2020.2.10,Win32,60,60a5f9bf14d0aa2821c4bb84,,,,,1845,64,170,1,0,0,response1disk,,7,-5,-3,1,0,0,rectangle,-5,-3,1,0,0,3,"[97,114,208,67,292,256,265,207,252,20,172,132,84,19,119,223,205,73,38,162]",-5,-3,1,0,0,0,16,16,132,1,,,
,,,,,,,,,,,,,FF,,,,,,,,2.257035,,,,,,,,,,,,,,,,,,,,,,,5df3a70877f865293e86c0a0,60a7d7fbfb4fde314ca4e046,2021-05-21_17h56.22.620,Simcolourproject_2stim_asymm_v5,2020.2.10,Win32,60,60a5f9bf14d0aa2821c4bb84,,,,,3472,-106,-47,1,0,0,response5disk,,7,6,-2,1,0,0,rectangle,6,-2,1,0,0,2,"[97,114,208,67,292,256,265,207,252,20,172,132,84,19,119,223,205,73,38,162]",6,-2,1,0,0,0,17,17,13,1,,,
,,,,,,,,,,,,,FF,,,,,,,,0.79865,,,,,,,,,,,,,,,,,,,,,,,5df3a70877f865293e86c0a0,60a7d7fbfb4fde314ca4e046,2021-05-21_17h56.22.620,Simcolourproject_2stim_asymm_v5,2020.2.10,Win32,60,60a5f9bf14d0aa2821c4bb84,,,,,2282,58,130,1,0,0,response1disk,,7,-9,4,1,0,0,rectangle,67,125,1,0,0,7,"[97,114,208,67,292,256,265,207,252,20,172,132,84,19,119,223,205,73,38,162]",-5,6,1,0,0,0,18,18,116,1,,response1disk_3,rectangle
,,,,,,,,,,,,,FF,,,,,,,,2.84729,,,,,,,,,,,,,,,,,,,,,,,5df3a70877f865293e86c0a0,60a7d7fbfb4fde314ca4e046,2021-05-21_17h56.22.620,Simcolourproject_2stim_asymm_v5,2020.2.10,Win32,60,60a5f9bf14d0aa2821c4bb84,,,,,2448,27,-126,1,0,0,response3disk,,4,10,-13,1,0,0,rectangle,-129,67,1,0,0,1,"[97,114,208,67,292,256,265,207,252,20,172,132,84,19,119,223,205,73,38,162]",16,-4,1,0,0,0,19,19,136,1,,response7disk_3,rectangle
,,,,,,,,,,,,,FF,,,,,,,,2.85424,,,,,,,,,,,,,,,,,,,,,,,5df3a70877f865293e86c0a0,60a7d7fbfb4fde314ca4e046,2021-05-21_17h56.22.620,Simcolourproject_2stim_asymm_v5,2020.2.10,Win32,60,60a5f9bf14d0aa2821c4bb84,,,,,347,-54,-106,1,0,0,response5disk,,3,-4,0,1,0,0,rectangle,-4,0,1,0,0,5,"[97,114,208,67,292,256,265,207,252,20,172,132,84,19,119,223,205,73,38,162]",-4,0,1,0,0,0,20,20,137,1,,,
,,,,,,,,,,,,,FF,,,,,,,,1.89747,,,,,,,,,,,,,,,,,,,,,,,5df3a70877f865293e86c0a0,60a7d7fbfb4fde314ca4e046,2021-05-21_17h56.22.620,Simcolourproject_2stim_asymm_v5,2020.2.10,Win32,60,60a5f9bf14d0aa2821c4bb84,,,,,2922,154,42,1,0,0,response1disk,,6,22,-10,1,0,0,rectangle,22,-10,1,0,0,2,"[97,114,208,67,292,256,265,207,252,20,172,132,84,19,119,223,205,73,38,162]",22,-10,1,0,0,0,21,21,25,1,,,
,,,,,,,,,,,,,FF,,,,,,,,2.6598,,,,,,,,,,,,,,,,,,,,,,,5df3a70877f865293e86c0a0,60a7d7fbfb4fde314ca4e046,2021-05-21_17h56.22.620,Simcolourproject_2stim_asymm_v5,2020.2.10,Win32,60,60a5f9bf14d0aa2821c4bb84,,,,,3699,-60,-124,1,0,0,response5disk,,3,2,-2,1,0,0,rectangle,2,-2,1,0,0,0,"[97,114,208,67,292,256,265,207,252,20,172,132,84,19,119,223,205,73,38,162]",2,-2,1,0,0,0,22,22,113,1,,,
,,,,,,,,,,,,,FF,,,,,,,,1.40289,,,,,,,,,,,,,,,,,,,,,,,5df3a70877f865293e86c0a0,60a7d7fbfb4fde314ca4e046,2021-05-21_17h56.22.620,Simcolourproject_2stim_asymm_v5,2020.2.10,Win32,60,60a5f9bf14d0aa2821c4bb84,,,,,66,49,147,1,0,0,response1disk,,7,23,-4,1,0,0,rectangle,23,-4,1,0,0,2,"[97,114,208,67,292,256,265,207,252,20,172,132,84,19,119,223,205,73,38,162]",23,-4,1,0,0,0,23,23,20,1,,,
,,,,,,,,,,,,,FF,,,,,,,,0.97228,,,,,,,,,,,,,,,,,,,,,,,5df3a70877f865293e86c0a0,60a7d7fbfb4fde314ca4e046,2021-05-21_17h56.22.620,Simcolourproject_2stim_asymm_v5,2020.2.10,Win32,60,60a5f9bf14d0aa2821c4bb84,,,,,3448,60,131,1,0,0,response1disk,,7,7,18,1,0,0,rectangle,7,18,1,0,0,3,"[97,114,208,67,292,256,265,207,252,20,172,132,84,19,119,223,205,73,38,162]",7,18,1,0,0,0,24,24,12,1,,,
,,,,,,,,,,,,,FF,,,,,,,,0.64597,,,,,,,,,,,,,,,,,,,,,,,5df3a70877f865293e86c0a0,60a7d7fbfb4fde314ca4e046,2021-05-21_17h56.22.620,Simcolourproject_2stim_asymm_v5,2020.2.10,Win32,60,60a5f9bf14d0aa2821c4bb84,,,,,489,63,112,1,0,0,response1disk,,7,-1,10,1,0,0,rectangle,-1,10,1,0,0,5,"[97,114,208,67,292,256,265,207,252,20,172,132,84,19,119,223,205,73,38,162]",-1,10,1,0,0,0,25,25,110,1,,,
,,,,,,,,,,,,,FF,,,,,,,,1.88341,,,,,,,,,,,,,,,,,,,,,,,5df3a70877f865293e86c0a0,60a7d7fbfb4fde314ca4e046,2021-05-21_17h56.22.620,Simcolourproject_2stim_asymm_v5,2020.2.10,Win32,60,60a5f9bf14d0aa2821c4bb84,,,,,2835,33,119,1,0,0,response1disk,,7,-15,12,1,0,0,rectangle,-15,12,1,0,0,3,"[97,114,208,67,292,256,265,207,252,20,172,132,84,19,119,223,205,73,38,162]",-15,12,1,0,0,0,26,26,92,1,,,
,,,,,,,,,,,,,FF,,,,,,,,0.569525,,,,,,,,,,,,,,,,,,,,,,,5df3a70877f865293e86c0a0,60a7d7fbfb4fde314ca4e046,2021-05-21_17h56.22.620,Simcolourproject_2stim_asymm_v5,2020.2.10,Win32,60,60a5f9bf14d0aa2821c4bb84,,,,,2651,63,142,1,0,0,response1disk,,7,8,-1,1,0,0,rectangle,8,-1,1,0,0,4,"[97,114,208,67,292,256,265,207,252,20,172,132,84,19,119,223,205,73,38,162]",8,-1,1,0,0,0,27,27,119,1,,,
,,,,,,,,,,,,,FF,,,,,,,,1.40158,,,,,,,,,,,,,,,,,,,,,,,5df3a70877f865293e86c0a0,60a7d7fbfb4fde314ca4e046,2021-05-21_17h56.22.620,Simcolourproject_2stim_asymm_v5,2020.2.10,Win32,60,60a5f9bf14d0aa2821c4bb84,,,,,3626,41,133,1,0,0,response1disk,,7,-2,-5,1,0,0,rectangle,-2,-5,1,0,0,5,"[97,114,208,67,292,256,265,207,252,20,172,132,84,19,119,223,205,73,38,162]",-2,-5,1,0,0,0,28,28,76,1,,,
,,,,,,,,,,,,,FF,,,,,,,,1.479225,,,,,,,,,,,,,,,,,,,,,,,5df3a70877f865293e86c0a0,60a7d7fbfb4fde314ca4e046,2021-05-21_17h56.22.620,Simcolourproject_2stim_asymm_v5,2020.2.10,Win32,60,60a5f9bf14d0aa2821c4bb84,,,,,977,77,-113,1,0,0,response3disk,,4,7,-3,1,0,0,rectangle,7,-3,1,0,0,7,"[97,114,208,67,292,256,265,207,252,20,172,132,84,19,119,223,205,73,38,162]",7,-3,1,0,0,0,29,29,10,1,,,
,,,,,,,,,,,,,FF,,,,,,,,1.71533,,,,,,,,,,,,,,,,,,,,,,,5df3a70877f865293e86c0a0,60a7d7fbfb4fde314ca4e046,2021-05-21_17h56.22.620,Simcolourproject_2stim_asymm_v5,2020.2.10,Win32,60,60a5f9bf14d0aa2821c4bb84,,,,,3005,-47,113,1,0,0,response7disk,,0,-1,-3,1,0,0,rectangle,-1,-3,1,0,0,1,"[97,114,208,67,292,256,265,207,252,20,172,132,84,19,119,223,205,73,38,162]",-1,-3,1,0,0,0,30,30,84,1,,,
,,,,,,,,,,,,,FF,,,,,,,,0.50702,,,,,,,,,,,,,,,,,,,,,,,5df3a70877f865293e86c0a0,60a7d7fbfb4fde314ca4e046,2021-05-21_17h56.22.620,Simcolourproject_2stim_asymm_v5,2020.2.10,Win32,60,60a5f9bf14d0aa2821c4bb84,,,,,2509,59,122,1,0,0,response1disk,,7,-14,5,1,0,0,rectangle,-14,5,1,0,0,4,"[97,114,208,67,292,256,265,207,252,20,172,132,84,19,119,223,205,73,38,162]",-14,5,1,0,0,0,31,31,29,1,,,
,,,,,,,,,,,,,FF,,,,,,,,2.65429,,,,,,,,,,,,,,,,,,,,,,,5df3a70877f865293e86c0a0,60a7d7fbfb4fde314ca4e046,2021-05-21_17h56.22.620,Simcolourproject_2stim_asymm_v5,2020.2.10,Win32,60,60a5f9bf14d0aa2821c4bb84,,,,,4010,-45,-94,1,0,0,response5disk,,3,-5,-1,1,0,0,rectangle,-5,-1,1,0,0,6,"[97,114,208,67,292,256,265,207,252,20,172,132,84,19,119,223,205,73,38,162]",-5,-1,1,0,0,0,32,32,115,1,,,
,,,,,,,,,,,,,FF,,,,,,,,0.654235,,,,,,,,,,,,,,,,,,,,,,,5df3a70877f865293e86c0a0,60a7d7fbfb4fde314ca4e046,2021-05-21_17h56.22.620,Simcolourproject_2stim_asymm_v5,2020.2.10,Win32,60,60a5f9bf14d0aa2821c4bb84,,,,,4271,51,143,1,0,0,response1disk,,7,6,0,1,0,0,rectangle,6,0,1,0,0,4,"[97,114,208,67,292,256,265,207,252,20,172,132,84,19,119,223,205,73,38,162]",6,0,1,0,0,0,33,33,40,1,,,
,,,,,,,,,,,,,FF,,,,,,,,1.84736,,,,,,,,,,,,,,,,,,,,,,,5df3a70877f865293e86c0a0,60a7d7fbfb4fde314ca4e046,2021-05-21_17h56.22.620,Simcolourproject_2stim_asymm_v5,2020.2.10,Win32,60,60a5f9bf14d0aa2821c4bb84,,,,,1326,46,118,1,0,0,response1disk,,7,21,1,1,0,0,rectangle,21,1,1,0,0,0,"[97,114,208,67,292,256,265,207,252,20,172,132,84,19,119,223,205,73,38,162]",21,1,1,0,0,0,34,34,85,1,,,
,,,,,,,,,,,,,FF,,,,,,,,2.257045,,,,,,,,,,,,,,,,,,,,,,,5df3a70877f865293e86c0a0,60a7d7fbfb4fde314ca4e046,2021-05-21_17h56.22.620,Simcolourproject_2stim_asymm_v5,2020.2.10,Win32,60,60a5f9bf14d0aa2821c4bb84,,,,,866,114,-36,1,0,0,response3disk,,5,-13,-4,1,0,0,rectangle,-13,-4,1,0,0,7,"[97,114,208,67,292,256,265,207,252,20,172,132,84,19,119,223,205,73,38,162]",-13,-4,1,0,0,0,35,35,8,1,,,
,,,,,,,,,,,,,FF,,,,,,,,1.86116,,,,,,,,,,,,,,,,,,,,,,,5df3a70877f865293e86c0a0,60a7d7fbfb4fde314ca4e046,2021-05-21_17h56.22.620,Simcolourproject_2stim_asymm_v5,2020.2.10,Win32,60,60a5f9bf14d0aa2821c4bb84,,,,,3606,111,49,1,0,0,response1disk,,6,15,-2,1,0,0,rectangle,15,-2,1,0,0,6,"[97,114,208,67,292,256,265,207,252,20,172,132,84,19,119,223,205,73,38,162]",15,-2,1,0,0,0,36,36,16,1,,,
,,,,,,,,,,,,,FF,,,,,,,,1.152775,,,,,,,,,,,,,,,,,,,,,,,5df3a70877f865293e86c0a0,60a7d7fbfb4fde314ca4e046,2021-05-21_17h56.22.620,Simcolourproject_2stim_asymm_v5,2020.2.10,Win32,60,60a5f9bf14d0aa2821c4bb84,,,,,1910,52,122,1,0,0,response1disk,,7,-9,-11,1,0,0,rectangle,-117,44,1,0,0,1,"[97,114,208,67,292,256,265,207,252,20,172,132,84,19,119,223,205,73,38,162]",-5,14,1,0,0,0,37,37,89,1,,response7disk_3,rectangle
,,,,,,,,,,,,,FF,,,,,,,,2.84736,,,,,,,,,,,,,,,,,,,,,,,5df3a70877f865293e86c0a0,60a7d7fbfb4fde314ca4e046,2021-05-21_17h56.22.620,Simcolourproject_2stim_asymm_v5,2020.2.10,Win32,60,60a5f9bf14d0aa2821c4bb84,,,,,2878,-95,-50,1,0,0,response5disk,,1,11,-13,1,0,0,rectangle,11,-13,1,0,0,2,"[97,114,208,67,292,256,265,207,252,20,172,132,84,19,119,223,205,73,38,162]",11,-13,1,0,0,0,38,38,94,1,,,
,,,,,,,,,,,,,FF,,,,,,,,0.97924,,,,,,,,,,,,,,,,,,,,,,,5df3a70877f865293e86c0a0,60a7d7fbfb4fde314ca4e046,2021-05-21_17h56.22.620,Simcolourproject_2stim_asymm_v5,2020.2.10,Win32,60,60a5f9bf14d0aa2821c4bb84,,,,,4225,-58,117,1,0,0,response7disk,,0,-9,15,1,0,0,rectangle,-9,15,1,0,0,6,"[97,114,208,67,292,256,265,207,252,20,172,132,84,19,119,223,205,73,38,162]",-9,15,1,0,0,0,39,39,146,1,,,
,,,,,,,,,,,,,FF,,,,,,,,0.666845,,,,,,,,,,,,,,,,,,,,,,,5df3a70877f865293e86c0a0,60a7d7fbfb4fde314ca4e046,2021-05-21_17h56.22.620,Simcolourproject_2stim_asymm_v5,2020.2.10,Win32,60,60a5f9bf14d0aa2821c4bb84,,,,,1867,62,144,1,0,0,response1disk,,7,21,-6,1,0,0,rectangle,21,-6,1,0,0,3,"[97,114,208,67,292,256,265,207,252,20,172,132,84,19,119,223,205,73,38,162]",21,-6,1,0,0,0,40,40,70,1,,,
,,,,,,,,,,,,,FF,,,,,,,,2.055665,,,,,,,,,,,,,,,,,,,,,,,5df3a70877f865293e86c0a0,60a7d7fbfb4fde314ca4e046,2021-05-21_17h56.22.620,Simcolourproject_2stim_asymm_v5,2020.2.10,Win32,60,60a5f9bf14d0aa2821c4bb84,,,,,3460,41,-92,1,0,0,response3disk,,4,13,-16,1,0,0,rectangle,13,-16,1,0,0,1,"[97,114,208,67,292,256,265,207,252,20,172,132,84,19,119,223,205,73,38,162]",13,-16,1,0,0,0,41,41,73,1,,,
,,,,,,,,,,,,,FF,,,,,,,,1.250075,,,,,,,,,,,,,,,,,,,,,,,5df3a70877f865293e86c0a0,60a7d7fbfb4fde314ca4e046,2021-05-21_17h56.22.620,Simcolourproject_2stim_asymm_v5,2020.2.10,Win32,60,60a5f9bf14d0aa2821c4bb84,,,,,998,61,114,1,0,0,response1disk,,7,-9,11,1,0,0,rectangle,-9,11,1,0,0,1,"[97,114,208,67,292,256,265,207,252,20,172,132,84,19,119,223,205,73,38,162]",-9,11,1,0,0,0,42,42,2,1,,,
,,,,,,,,,,,,,FF,,,,,,,,2.034695,,,,,,,,,,,,,,,,,,,,,,,5df3a70877f865293e86c0a0,60a7d7fbfb4fde314ca4e046,2021-05-21_17h56.22.620,Simcolourproject_2stim_asymm_v5,2020.2.10,Win32,60,60a5f9bf14d0aa2821c4bb84,,,,,3053,121,-44,1,0,0,response3disk,,5,25,-1,1,0,0,rectangle,25,-1,1,0,0,1,"[97,114,208,67,292,256,265,207,252,20,172,132,84,19,119,223,205,73,38,162]",25,-1,1,0,0,0,43,43,31,1,,,
,,,,,,,,,,,,,FF,,,,,,,,0.645905,,,,,,,,,,,,,,,,,,,,,,,5df3a70877f865293e86c0a0,60a7d7fbfb4fde314ca4e046,2021-05-21_17h56.22.620,Simcolourproject_2stim_asymm_v5,2020.2.10,Win32,60,60a5f9bf14d0aa2821c4bb84,,,,,2012,61,124,1,0,0,response1disk,,7,6,-7,1,0,0,rectangle,6,-7,1,0,0,5,"[97,114,208,67,292,256,265,207,252,20,172,132,84,19,119,223,205,73,38,162]",6,-7,1,0,0,0,44,44,120,1,,,
,,,,,,,,,,,,,FF,,,,,,,,2.20148,,,,,,,,,,,,,,,,,,,,,,,5df3a70877f865293e86c0a0,60a7d7fbfb4fde314ca4e046,2021-05-21_17h56.22.620,Simcolourproject_2stim_asymm_v5,2020.2.10,Win32,60,60a5f9bf14d0aa2821c4bb84,,,,,2029,-120,81,1,0,0,response7disk,,1,2,3,1,0,0,rectangle,2,3,1,0,0,4,"[97,114,208,67,292,256,265,207,252,20,172,132,84,19,119,223,205,73,38,162]",2,3,1,0,0,0,45,45,62,1,,,
,,,,,,,,,,,,,FF,,,,,,,,0.916725,,,,,,,,,,,,,,,,,,,,,,,5df3a70877f865293e86c0a0,60a7d7fbfb4fde314ca4e046,2021-05-21_17h56.22.620,Simcolourproject_2stim_asymm_v5,2020.2.10,Win32,60,60a5f9bf14d0aa2821c4bb84,,,,,1597,-105,55,1,0,0,response7disk,,1,-2,2,1,0,0,rectangle,-2,2,1,0,0,0,"[97,114,208,67,292,256,265,207,252,20,172,132,84,19,119,223,205,73,38,162]",-2,2,1,0,0,0,46,46,103,1,,,
,,,,,,,,,,,,,FF,,,,,,,,2.909915,,,,,,,,,,,,,,,,,,,,,,,5df3a70877f865293e86c0a0,60a7d7fbfb4fde314ca4e046,2021-05-21_17h56.22.620,Simcolourproject_2stim_asymm_v5,2020.2.10,Win32,60,60a5f9bf14d0aa2821c4bb84,,,,,3440,136,65,1,0,0,response1disk,,6,13,4,1,0,0,rectangle,13,4,1,0,0,5,"[97,114,208,67,292,256,265,207,252,20,172,132,84,19,119,223,205,73,38,162]",13,4,1,0,0,0,47,47,114,1,,,
,,,,,,,,,,,,,FF,,,,,,,,0.833405,,,,,,,,,,,,,,,,,,,,,,,5df3a70877f865293e86c0a0,60a7d7fbfb4fde314ca4e046,2021-05-21_17h56.22.620,Simcolourproject_2stim_asymm_v5,2020.2.10,Win32,60,60a5f9bf14d0aa2821c4bb84,,,,,30,44,95,1,0,0,response1disk,,7,8,7,1,0,0,rectangle,8,7,1,0,0,5,"[97,114,208,67,292,256,265,207,252,20,172,132,84,19,119,223,205,73,38,162]",8,7,1,0,0,0,48,48,7,1,,,
,,,,,,,,,,,,,FF,,,,,,,,0.55563,,,,,,,,,,,,,,,,,,,,,,,5df3a70877f865293e86c0a0,60a7d7fbfb4fde314ca4e046,2021-05-21_17h56.22.620,Simcolourproject_2stim_asymm_v5,2020.2.10,Win32,60,60a5f9bf14d0aa2821c4bb84,,,,,1796,68,128,1,0,0,response1disk,,7,-5,11,1,0,0,rectangle,-5,11,1,0,0,4,"[97,114,208,67,292,256,265,207,252,20,172,132,84,19,119,223,205,73,38,162]",-5,11,1,0,0,0,49,49,86,1,,,
,,,,,,,,,,,,,FF,,,,,,,,1.11118,,,,,,,,,,,,,,,,,,,,,,,5df3a70877f865293e86c0a0,60a7d7fbfb4fde314ca4e046,2021-05-21_17h56.22.620,Simcolourproject_2stim_asymm_v5,2020.2.10,Win32,60,60a5f9bf14d0aa2821c4bb84,,,,,3511,-58,125,1,0,0,response7disk,,0,-3,5,1,0,0,rectangle,-3,5,1,0,0,7,"[97,114,208,67,292,256,265,207,252,20,172,132,84,19,119,223,205,73,38,162]",-3,5,1,0,0,0,50,50,141,1,,,
,,,,,,,,,,,,,FF,,,,,,,,2.15289,,,,,,,,,,,,,,,,,,,,,,,5df3a70877f865293e86c0a0,60a7d7fbfb4fde314ca4e046,2021-05-21_17h56.22.620,Simcolourproject_2stim_asymm_v5,2020.2.10,Win32,60,60a5f9bf14d0aa2821c4bb84,,,,,4110,53,114,1,0,0,response1disk,,7,16,-1,1,0,0,rectangle,16,-1,1,0,0,7,"[97,114,208,67,292,256,265,207,252,20,172,132,84,19,119,223,205,73,38,162]",16,-1,1,0,0,0,51,51,66,1,,,
,,,,,,,,,,,,,FF,,,,,,,,0.71538,,,,,,,,,,,,,,,,,,,,,,,5df3a70877f865293e86c0a0,60a7d7fbfb4fde314ca4e046,2021-05-21_17h56.22.620,Simcolourproject_2stim_asymm_v5,2020.2.10,Win32,60,60a5f9bf14d0aa2821c4bb84,,,,,1772,40,130,1,0,0,response1disk,,7,14,16,1,0,0,rectangle,14,16,1,0,0,0,"[97,114,208,67,292,256,265,207,252,20,172,132,84,19,119,223,205,73,38,162]",14,16,1,0,0,0,52,52,14,1,,,
,,,,,,,,,,,,,FF,,,,,,,,0.61803,,,,,,,,,,,,,,,,,,,,,,,5df3a70877f865293e86c0a0,60a7d7fbfb4fde314ca4e046,2021-05-21_17h56.22.620,Simcolourproject_2stim_asymm_v5,2020.2.10,Win32,60,60a5f9bf14d0aa2821c4bb84,,,,,943,66,116,1,0,0,response1disk,,7,10,0,1,0,0,rectangle,10,0,1,0,0,1,"[97,114,208,67,292,256,265,207,252,20,172,132,84,19,119,223,205,73,38,162]",10,0,1,0,0,0,53,53,4,1,,,
,,,,,,,,,,,,,FF,,,,,,,,0.72227,,,,,,,,,,,,,,,,,,,,,,,5df3a70877f865293e86c0a0,60a7d7fbfb4fde314ca4e046,2021-05-21_17h56.22.620,Simcolourproject_2stim_asymm_v5,2020.2.10,Win32,60,60a5f9bf14d0aa2821c4bb84,,,,,1654,55,151,1,0,0,response1disk,,7,5,10,1,0,0,rectangle,5,10,1,0,0,0,"[97,114,208,67,292,256,265,207,252,20,172,132,84,19,119,223,205,73,38,162]",5,10,1,0,0,0,54,54,0,1,,,
,,,,,,,,,,,,,FF,,,,,,,,2.44448,,,,,,,,,,,,,,,,,,,,,,,5df3a70877f865293e86c0a0,60a7d7fbfb4fde314ca4e046,2021-05-21_17h56.22.620,Simcolourproject_2stim_asymm_v5,2020.2.10,Win32,60,60a5f9bf14d0aa2821c4bb84,,,,,263,73,-106,1,0,0,response3disk,,4,8,2,1,0,0,rectangle,8,2,1,0,0,5,"[97,114,208,67,292,256,265,207,252,20,172,132,84,19,119,223,205,73,38,162]",8,2,1,0,0,0,55,55,65,1,,,
,,,,,,,,,,,,,FF,,,,,,,,0.84727,,,,,,,,,,,,,,,,,,,,,,,5df3a70877f865293e86c0a0,60a7d7fbfb4fde314ca4e046,2021-05-21_17h56.22.620,Simcolourproject_2stim_asymm_v5,2020.2.10,Win32,60,60a5f9bf14d0aa2821c4bb84,,,,,2515,63,115,1,0,0,response1disk,,7,11,21,1,0,0,rectangle,11,21,1,0,0,1,"[97,114,208,67,292,256,265,207,252,20,172,132,84,19,119,223,205,73,38,162]",11,21,1,0,0,0,56,56,87,1,,,
,,,,,,,,,,,,,FF,,,,,,,,2.27786,,,,,,,,,,,,,,,,,,,,,,,5df3a70877f865293e86c0a0,60a7d7fbfb4fde314ca4e046,2021-05-21_17h56.22.620,Simcolourproject_2stim_asymm_v5,2020.2.10,Win32,60,60a5f9bf14d0aa2821c4bb84,,,,,1383,-99,44,1,0,0,response7disk,,1,11,-3,1,0,0,rectangle,11,-3,1,0,0,5,"[97,114,208,67,292,256,265,207,252,20,172,132,84,19,119,223,205,73,38,162]",11,-3,1,0,0,0,57,57,97,1,,,
,,,,,,,,,,,,,FF,,,,,,,,1.47923,,,,,,,,,,,,,,,,,,,,,,,5df3a70877f865293e86c0a0,60a7d7fbfb4fde314ca4e046,2021-05-21_17h56.22.620,Simcolourproject_2stim_asymm_v5,2020.2.10,Win32,60,60a5f9bf14d0aa2821c4bb84,,,,,418,61,-80,1,0,0,response3disk,,4,-1,4,1,0,0,rectangle,-1,4,1,0,0,5,"[97,114,208,67,292,256,265,207,252,20,172,132,84,19,119,223,205,73,38,162]",-1,4,1,0,0,0,58,58,61,1,,,
,,,,,,,,,,,,,FF,,,,,,,,1.25018,,,,,,,,,,,,,,,,,,,,,,,5df3a70877f865293e86c0a0,60a7d7fbfb4fde314ca4e046,2021-05-21_17h56.22.620,Simcolourproject_2stim_asymm_v5,2020.2.10,Win32,60,60a5f9bf14d0aa2821c4bb84,,,,,1771,92,-35,1,0,0,response3disk,,5,20,17,1,0,0,rectangle,20,17,1,0,0,0,"[97,114,208,67,292,256,265,207,252,20,172,132,84,19,119,223,205,73,38,162]",20,17,1,0,0,0,59,59,60,1,,,
,,,,,,,,,,,,,FF,,,,,,,,1.09724,,,,,,,,,,,,,,,,,,,,,,,5df3a70877f865293e86c0a0,60a7d7fbfb4fde314ca4e046,2021-05-21_17h56.22.620,Simcolourproject_2stim_asymm_v5,2020.2.10,Win32,60,60a5f9bf14d0aa2821c4bb84,,,,,2780,65,105,1,0,0,response1disk,,7,14,0,1,0,0,rectangle,14,0,1,0,0,2,"[97,114,208,67,292,256,265,207,252,20,172,132,84,19,119,223,205,73,38,162]",14,0,1,0,0,0,60,60,106,1,,,
,,,,,,,,,,,,,FF,,,,,,,,1.361055,,,,,,,,,,,,,,,,,,,,,,,5df3a70877f865293e86c0a0,60a7d7fbfb4fde314ca4e046,2021-05-21_17h56.22.620,Simcolourproject_2stim_asymm_v5,2020.2.10,Win32,60,60a5f9bf14d0aa2821c4bb84,,,,,780,57,119,1,0,0,response1disk,,7,-8,11,1,0,0,rectangle,-8,11,1,0,0,7,"[97,114,208,67,292,256,265,207,252,20,172,132,84,19,119,223,205,73,38,162]",-8,11,1,0,0,0,61,61,43,1,,,
,,,,,,,,,,,,,FF,,,,,,,,0.541755,,,,,,,,,,,,,,,,,,,,,,,5df3a70877f865293e86c0a0,60a7d7fbfb4fde314ca4e046,2021-05-21_17h56.22.620,Simcolourproject_2stim_asymm_v5,2020.2.10,Win32,60,60a5f9bf14d0aa2821c4bb84,,,,,4248,52,99,1,0,0,response1disk,,7,16,9,1,0,0,rectangle,16,9,1,0,0,1,"[97,114,208,67,292,256,265,207,252,20,172,132,84,19,119,223,205,73,38,162]",16,9,1,0,0,0,62,62,80,1,,,
,,,,,,,,,,,,,FF,,,,,,,,0.81255,,,,,,,,,,,,,,,,,,,,,,,5df3a70877f865293e86c0a0,60a7d7fbfb4fde314ca4e046,2021-05-21_17h56.22.620,Simcolourproject_2stim_asymm_v5,2020.2.10,Win32,60,60a5f9bf14d0aa2821c4bb84,,,,,380,45,101,1,0,0,response1disk,,7,20,-6,1,0,0,rectangle,20,-6,1,0,0,6,"[97,114,208,67,292,256,265,207,252,20,172,132,84,19,119,223,205,73,38,162]",20,-6,1,0,0,0,63,63,57,1,,,
,,,,,,,,,,,,,FF,,,,,,,,1.777885,,,,,,,,,,,,,,,,,,,,,,,5df3a70877f865293e86c0a0,60a7d7fbfb4fde314ca4e046,2021-05-21_17h56.22.620,Simcolourproject_2stim_asymm_v5,2020.2.10,Win32,60,60a5f9bf14d0aa2821c4bb84,,,,,4143,-101,53,1,0,0,response7disk,,1,-4,-1,1,0,0,rectangle,-4,-1,1,0,0,1,"[97,114,208,67,292,256,265,207,252,20,172,132,84,19,119,223,205,73,38,162]",-4,-1,1,0,0,0,64,64,90,1,,,
,,,,,,,,,,,,,FF,,,,,,,,0.715325,,,,,,,,,,,,,,,,,,,,,,,5df3a70877f865293e86c0a0,60a7d7fbfb4fde314ca4e046,2021-05-21_17h56.22.620,Simcolourproject_2stim_asymm_v5,2020.2.10,Win32,60,60a5f9bf14d0aa2821c4bb84,,,,,2187,51,123,1,0,0,response1disk,,7,7,6,1,0,0,rectangle,7,6,1,0,0,4,"[97,114,208,67,292,256,265,207,252,20,172,132,84,19,119,223,205,73,38,162]",7,6,1,0,0,0,65,65,15,1,,,
,,,,,,,,,,,,,FF,,,,,,,,1.875095,,,,,,,,,,,,,,,,,,,,,,,5df3a70877f865293e86c0a0,60a7d7fbfb4fde314ca4e046,2021-05-21_17h56.22.620,Simcolourproject_2stim_asymm_v5,2020.2.10,Win32,60,60a5f9bf14d0aa2821c4bb84,,,,,4340,-39,-95,1,0,0,response5disk,,3,21,3,1,0,0,rectangle,-123,-40,1,0,0,2,"[97,114,208,67,292,256,265,207,252,20,172,132,84,19,119,223,205,73,38,162]",-27,-3,1,0,0,0,66,66,129,1,,response5disk_3,rectangle
,,,,,,,,,,,,,FF,,,,,,,,1.54175,,,,,,,,,,,,,,,,,,,,,,,5df3a70877f865293e86c0a0,60a7d7fbfb4fde314ca4e046,2021-05-21_17h56.22.620,Simcolourproject_2stim_asymm_v5,2020.2.10,Win32,60,60a5f9bf14d0aa2821c4bb84,,,,,1363,42,128,1,0,0,response1disk,,7,-23,4,1,0,0,rectangle,-23,4,1,0,0,2,"[97,114,208,67,292,256,265,207,252,20,172,132,84,19,119,223,205,73,38,162]",-23,4,1,0,0,0,67,67,151,1,,,
,,,,,,,,,,,,,FF,,,,,,,,2.94444,,,,,,,,,,,,,,,,,,,,,,,5df3a70877f865293e86c0a0,60a7d7fbfb4fde314ca4e046,2021-05-21_17h56.22.620,Simcolourproject_2stim_asymm_v5,2020.2.10,Win32,60,60a5f9bf14d0aa2821c4bb84,,,,,4328,-38,-98,1,0,0,response5disk,,3,-4,11,1,0,0,rectangle,-4,11,1,0,0,6,"[97,114,208,67,292,256,265,207,252,20,172,132,84,19,119,223,205,73,38,162]",-4,11,1,0,0,0,68,68,157,1,,,
,,,,,,,,,,,,,FF,,,,,,,,0.88895,,,,,,,,,,,,,,,,,,,,,,,5df3a70877f865293e86c0a0,60a7d7fbfb4fde314ca4e046,2021-05-21_17h56.22.620,Simcolourproject_2stim_asymm_v5,2020.2.10,Win32,60,60a5f9bf14d0aa2821c4bb84,,,,,2520,44,121,1,0,0,response1disk,,7,32,16,1,0,0,rectangle,32,16,1,0,0,6,"[97,114,208,67,292,256,265,207,252,20,172,132,84,19,119,223,205,73,38,162]",32,16,1,0,0,0,69,69,96,1,,,
,,,,,,,,,,,,,FF,,,,,,,,2.569575,,,,,,,,,,,,,,,,,,,,,,,5df3a70877f865293e86c0a0,60a7d7fbfb4fde314ca4e046,2021-05-21_17h56.22.620,Simcolourproject_2stim_asymm_v5,2020.2.10,Win32,60,60a5f9bf14d0aa2821c4bb84,,,,,731,56,98,1,0,0,response1disk,,7,20,-12,1,0,0,rectangle,20,-12,1,0,0,0,"[97,114,208,67,292,256,265,207,252,20,172,132,84,19,119,223,205,73,38,162]",20,-12,1,0,0,0,70,70,147,1,,,
,,,,,,,,,,,,,FF,,,,,,,,1.68067,,,,,,,,,,,,,,,,,,,,,,,5df3a70877f865293e86c0a0,60a7d7fbfb4fde314ca4e046,2021-05-21_17h56.22.620,Simcolourproject_2stim_asymm_v5,2020.2.10,Win32,60,60a5f9bf14d0aa2821c4bb84,,,,,2852,67,130,1,0,0,response1disk,,7,1,11,1,0,0,rectangle,1,11,1,0,0,1,"[97,114,208,67,292,256,265,207,252,20,172,132,84,19,119,223,205,73,38,162]",1,11,1,0,0,0,71,71,101,1,,,
,,,,,,,,,,,,,FF,,,,,,,,0.451485,,,,,,,,,,,,,,,,,,,,,,,5df3a70877f865293e86c0a0,60a7d7fbfb4fde314ca4e046,2021-05-21_17h56.22.620,Simcolourproject_2stim_asymm_v5,2020.2.10,Win32,60,60a5f9bf14d0aa2821c4bb84,,,,,1397,47,129,1,0,0,response1disk,,7,37,13,1,0,0,rectangle,-130,58,1,0,0,1,"[97,114,208,67,292,256,265,207,252,20,172,132,84,19,119,223,205,73,38,162]",-22,6,1,0,0,0,72,72,138,1,,response7disk_3,rectangle
,,,,,,,,,,,,,FF,,,,,,,,1.937555,,,,,,,,,,,,,,,,,,,,,,,5df3a70877f865293e86c0a0,60a7d7fbfb4fde314ca4e046,2021-05-21_17h56.22.620,Simcolourproject_2stim_asymm_v5,2020.2.10,Win32,60,60a5f9bf14d0aa2821c4bb84,,,,,747,42,103,1,0,0,response1disk,,7,10,-8,1,0,0,rectangle,10,-8,1,0,0,3,"[97,114,208,67,292,256,265,207,252,20,172,132,84,19,119,223,205,73,38,162]",10,-8,1,0,0,0,73,73,28,1,,,
,,,,,,,,,,,,,FF,,,,,,,,1.7779,,,,,,,,,,,,,,,,,,,,,,,5df3a70877f865293e86c0a0,60a7d7fbfb4fde314ca4e046,2021-05-21_17h56.22.620,Simcolourproject_2stim_asymm_v5,2020.2.10,Win32,60,60a5f9bf14d0aa2821c4bb84,,,,,2584,-52,-130,1,0,0,response5disk,,3,-4,4,1,0,0,rectangle,-4,4,1,0,0,5,"[97,114,208,67,292,256,265,207,252,20,172,132,84,19,119,223,205,73,38,162]",-4,4,1,0,0,0,74,74,46,1,,,
,,,,,,,,,,,,,FF,,,,,,,,1.222275,,,,,,,,,,,,,,,,,,,,,,,5df3a70877f865293e86c0a0,60a7d7fbfb4fde314ca4e046,2021-05-21_17h56.22.620,Simcolourproject_2stim_asymm_v5,2020.2.10,Win32,60,60a5f9bf14d0aa2821c4bb84,,,,,3871,47,112,1,0,0,response1disk,,7,3,6,1,0,0,rectangle,3,6,1,0,0,6,"[97,114,208,67,292,256,265,207,252,20,172,132,84,19,119,223,205,73,38,162]",3,6,1,0,0,0,75,75,9,1,,,
,,,,,,,,,,,,,FF,,,,,,,,0.645915,,,,,,,,,,,,,,,,,,,,,,,5df3a70877f865293e86c0a0,60a7d7fbfb4fde314ca4e046,2021-05-21_17h56.22.620,Simcolourproject_2stim_asymm_v5,2020.2.10,Win32,60,60a5f9bf14d0aa2821c4bb84,,,,,2399,44,110,1,0,0,response1disk,,7,11,1,1,0,0,rectangle,11,1,1,0,0,2,"[97,114,208,67,292,256,265,207,252,20,172,132,84,19,119,223,205,73,38,162]",11,1,1,0,0,0,76,76,75,1,,,
,,,,,,,,,,,,,FF,,,,,,,,1.50696,,,,,,,,,,,,,,,,,,,,,,,5df3a70877f865293e86c0a0,60a7d7fbfb4fde314ca4e046,2021-05-21_17h56.22.620,Simcolourproject_2stim_asymm_v5,2020.2.10,Win32,60,60a5f9bf14d0aa2821c4bb84,,,,,2987,88,-33,1,0,0,response3disk,,5,6,0,1,0,0,rectangle,6,0,1,0,0,0,"[97,114,208,67,292,256,265,207,252,20,172,132,84,19,119,223,205,73,38,162]",6,0,1,0,0,0,77,77,112,1,,,
,,,,,,,,,,,,,FF,,,,,,,,0.701445,,,,,,,,,,,,,,,,,,,,,,,5df3a70877f865293e86c0a0,60a7d7fbfb4fde314ca4e046,2021-05-21_17h56.22.620,Simcolourproject_2stim_asymm_v5,2020.2.10,Win32,60,60a5f9bf14d0aa2821c4bb84,,,,,4011,30,142,1,0,0,response1disk,,7,16,1,1,0,0,rectangle,16,1,1,0,0,4,"[97,114,208,67,292,256,265,207,252,20,172,132,84,19,119,223,205,73,38,162]",16,1,1,0,0,0,78,78,145,1,,,
,,,,,,,,,,,,,FF,,,,,,,,0.722275,,,,,,,,,,,,,,,,,,,,,,,5df3a70877f865293e86c0a0,60a7d7fbfb4fde314ca4e046,2021-05-21_17h56.22.620,Simcolourproject_2stim_asymm_v5,2020.2.10,Win32,60,60a5f9bf14d0aa2821c4bb84,,,,,967,50,128,1,0,0,response1disk,,7,14,2,1,0,0,rectangle,14,2,1,0,0,2,"[97,114,208,67,292,256,265,207,252,20,172,132,84,19,119,223,205,73,38,162]",14,2,1,0,0,0,79,79,150,1,,,
,,,,,,,,,,,,,FF,,,,,,,,1.437555,,,,,,,,,,,,,,,,,,,,,,,5df3a70877f865293e86c0a0,60a7d7fbfb4fde314ca4e046,2021-05-21_17h56.22.620,Simcolourproject_2stim_asymm_v5,2020.2.10,Win32,60,60a5f9bf14d0aa2821c4bb84,,,,,3855,50,128,1,0,0,response1disk,,7,7,-1,1,0,0,rectangle,7,-1,1,0,0,1,"[97,114,208,67,292,256,265,207,252,20,172,132,84,19,119,223,205,73,38,162]",7,-1,1,0,0,0,80,80,78,1,,,
,,,,,,,,,,,,,FF,,,,,,,,0.611165,,,,,,,,,,,,,,,,,,,,,,,5df3a70877f865293e86c0a0,60a7d7fbfb4fde314ca4e046,2021-05-21_17h56.22.620,Simcolourproject_2stim_asymm_v5,2020.2.10,Win32,60,60a5f9bf14d0aa2821c4bb84,,,,,3728,56,139,1,0,0,response1disk,,7,10,-13,1,0,0,rectangle,10,-13,1,0,0,2,"[97,114,208,67,292,256,265,207,252,20,172,132,84,19,119,223,205,73,38,162]",10,-13,1,0,0,0,81,81,77,1,,,
,,,,,,,,,,,,,FF,,,,,,,,1.243225,,,,,,,,,,,,,,,,,,,,,,,5df3a70877f865293e86c0a0,60a7d7fbfb4fde314ca4e046,2021-05-21_17h56.22.620,Simcolourproject_2stim_asymm_v5,2020.2.10,Win32,60,60a5f9bf14d0aa2821c4bb84,,,,,370,104,45,1,0,0,response1disk,,6,10,-8,1,0,0,rectangle,10,-8,1,0,0,5,"[97,114,208,67,292,256,265,207,252,20,172,132,84,19,119,223,205,73,38,162]",10,-8,1,0,0,0,82,82,71,1,,,
,,,,,,,,,,,,,FF,,,,,,,,0.79178,,,,,,,,,,,,,,,,,,,,,,,5df3a70877f865293e86c0a0,60a7d7fbfb4fde314ca4e046,2021-05-21_17h56.22.620,Simcolourproject_2stim_asymm_v5,2020.2.10,Win32,60,60a5f9bf14d0aa2821c4bb84,,,,,1539,59,126,1,0,0,response1disk,,7,2,11,1,0,0,rectangle,-62,140,1,0,0,0,"[97,114,208,67,292,256,265,207,252,20,172,132,84,19,119,223,205,73,38,162]",-5,2,1,0,0,0,83,83,72,1,,response7disk_3,rectangle
,,,,,,,,,,,,,FF,,,,,,,,1.173675,,,,,,,,,,,,,,,,,,,,,,,5df3a70877f865293e86c0a0,60a7d7fbfb4fde314ca4e046,2021-05-21_17h56.22.620,Simcolourproject_2stim_asymm_v5,2020.2.10,Win32,60,60a5f9bf14d0aa2821c4bb84,,,,,3671,53,116,1,0,0,response1disk,,7,17,12,1,0,0,rectangle,17,12,1,0,0,3,"[97,114,208,67,292,256,265,207,252,20,172,132,84,19,119,223,205,73,38,162]",17,12,1,0,0,0,84,84,102,1,,,
,,,,,,,,,,,,,FF,,,,,,,,2.916725,,,,,,,,,,,,,,,,,,,,,,,5df3a70877f865293e86c0a0,60a7d7fbfb4fde314ca4e046,2021-05-21_17h56.22.620,Simcolourproject_2stim_asymm_v5,2020.2.10,Win32,60,60a5f9bf14d0aa2821c4bb84,,,,,740,54,-111,1,0,0,response3disk,,4,20,-1,1,0,0,rectangle,20,-1,1,0,0,1,"[97,114,208,67,292,256,265,207,252,20,172,132,84,19,119,223,205,73,38,162]",20,-1,1,0,0,0,85,85,27,1,,,
,,,,,,,,,,,,,FF,,,,,,,,0.75701,,,,,,,,,,,,,,,,,,,,,,,5df3a70877f865293e86c0a0,60a7d7fbfb4fde314ca4e046,2021-05-21_17h56.22.620,Simcolourproject_2stim_asymm_v5,2020.2.10,Win32,60,60a5f9bf14d0aa2821c4bb84,,,,,475,104,-56,1,0,0,response3disk,,5,19,-2,1,0,0,rectangle,19,-2,1,0,0,1,"[97,114,208,67,292,256,265,207,252,20,172,132,84,19,119,223,205,73,38,162]",19,-2,1,0,0,0,86,86,17,1,,,
,,,,,,,,,,,,,FF,,,,,,,,1.87507,,,,,,,,,,,,,,,,,,,,,,,5df3a70877f865293e86c0a0,60a7d7fbfb4fde314ca4e046,2021-05-21_17h56.22.620,Simcolourproject_2stim_asymm_v5,2020.2.10,Win32,60,60a5f9bf14d0aa2821c4bb84,,,,,2787,35,112,1,0,0,response1disk,,7,25,19,1,0,0,rectangle,25,19,1,0,0,7,"[97,114,208,67,292,256,265,207,252,20,172,132,84,19,119,223,205,73,38,162]",25,19,1,0,0,0,87,87,105,1,,,
,,,,,,,,,,,,,FF,,,,,,,,0.625065,,,,,,,,,,,,,,,,,,,,,,,5df3a70877f865293e86c0a0,60a7d7fbfb4fde314ca4e046,2021-05-21_17h56.22.620,Simcolourproject_2stim_asymm_v5,2020.2.10,Win32,60,60a5f9bf14d0aa2821c4bb84,,,,,3866,41,132,1,0,0,response1disk,,7,27,1,1,0,0,rectangle,27,1,1,0,0,3,"[97,114,208,67,292,256,265,207,252,20,172,132,84,19,119,223,205,73,38,162]",27,1,1,0,0,0,88,88,11,1,,,
,,,,,,,,,,,,,FF,,,,,,,,0.847365,,,,,,,,,,,,,,,,,,,,,,,5df3a70877f865293e86c0a0,60a7d7fbfb4fde314ca4e046,2021-05-21_17h56.22.620,Simcolourproject_2stim_asymm_v5,2020.2.10,Win32,60,60a5f9bf14d0aa2821c4bb84,,,,,1368,-69,131,1,0,0,response7disk,,0,25,-3,1,0,0,rectangle,25,-3,1,0,0,6,"[97,114,208,67,292,256,265,207,252,20,172,132,84,19,119,223,205,73,38,162]",25,-3,1,0,0,0,89,89,149,1,,,
,,,,,,,,,,,,,FF,,,,,,,,2.965345,,,,,,,,,,,,,,,,,,,,,,,5df3a70877f865293e86c0a0,60a7d7fbfb4fde314ca4e046,2021-05-21_17h56.22.620,Simcolourproject_2stim_asymm_v5,2020.2.10,Win32,60,60a5f9bf14d0aa2821c4bb84,,,,,2296,-48,-92,1,0,0,response5disk,,3,-16,9,1,0,0,rectangle,-16,9,1,0,0,0,"[97,114,208,67,292,256,265,207,252,20,172,132,84,19,119,223,205,73,38,162]",-16,9,1,0,0,0,90,90,19,1,,,
,,,,,,,,,,,,,FF,,,,,,,,1.277845,,,,,,,,,,,,,,,,,,,,,,,5df3a70877f865293e86c0a0,60a7d7fbfb4fde314ca4e046,2021-05-21_17h56.22.620,Simcolourproject_2stim_asymm_v5,2020.2.10,Win32,60,60a5f9bf14d0aa2821c4bb84,,,,,1524,-116,-49,1,0,0,response5disk,,3,-35,1,1,0,0,rectangle,-35,1,1,0,0,1,"[97,114,208,67,292,256,265,207,252,20,172,132,84,19,119,223,205,73,38,162]",-35,1,1,0,0,0,91,91,111,1,,,
,,,,,,,,,,,,,FF,,,,,,,,0.75009,,,,,,,,,,,,,,,,,,,,,,,5df3a70877f865293e86c0a0,60a7d7fbfb4fde314ca4e046,2021-05-21_17h56.22.620,Simcolourproject_2stim_asymm_v5,2020.2.10,Win32,60,60a5f9bf14d0aa2821c4bb84,,,,,1688,-89,32,1,0,0,response7disk,,1,10,-21,1,0,0,rectangle,10,-21,1,0,0,3,"[97,114,208,67,292,256,265,207,252,20,172,132,84,19,119,223,205,73,38,162]",10,-21,1,0,0,0,92,92,88,1,,,
,,,,,,,,,,,,,FF,,,,,,,,1.31955,,,,,,,,,,,,,,,,,,,,,,,5df3a70877f865293e86c0a0,60a7d7fbfb4fde314ca4e046,2021-05-21_17h56.22.620,Simcolourproject_2stim_asymm_v5,2020.2.10,Win32,60,60a5f9bf14d0aa2821c4bb84,,,,,946,57,133,1,0,0,response1disk,,7,26,-3,1,0,0,rectangle,26,-3,1,0,0,4,"[97,114,208,67,292,256,265,207,252,20,172,132,84,19,119,223,205,73,38,162]",26,-3,1,0,0,0,93,93,30,1,,,
,,,,,,,,,,,,,FF,,,,,,,,2.090375,,,,,,,,,,,,,,,,,,,,,,,5df3a70877f865293e86c0a0,60a7d7fbfb4fde314ca4e046,2021-05-21_17h56.22.620,Simcolourproject_2stim_asymm_v5,2020.2.10,Win32,60,60a5f9bf14d0aa2821c4bb84,,,,,575,37,99,1,0,0,response1disk,,7,-6,9,1,0,0,rectangle,-6,9,1,0,0,4,"[97,114,208,67,292,256,265,207,252,20,172,132,84,19,119,223,205,73,38,162]",-6,9,1,0,0,0,94,94,82,1,,,
,,,,,,,,,,,,,FF,,,,,,,,2.319505,,,,,,,,,,,,,,,,,,,,,,,5df3a70877f865293e86c0a0,60a7d7fbfb4fde314ca4e046,2021-05-21_17h56.22.620,Simcolourproject_2stim_asymm_v5,2020.2.10,Win32,60,60a5f9bf14d0aa2821c4bb84,,,,,1372,79,-48,1,0,0,response3disk,,5,5,11,1,0,0,rectangle,5,11,1,0,0,6,"[97,114,208,67,292,256,265,207,252,20,172,132,84,19,119,223,205,73,38,162]",5,11,1,0,0,0,95,95,3,1,,,
,,,,,,,,,,,,,FF,,,,,,,,0.868115,,,,,,,,,,,,,,,,,,,,,,,5df3a70877f865293e86c0a0,60a7d7fbfb4fde314ca4e046,2021-05-21_17h56.22.620,Simcolourproject_2stim_asymm_v5,2020.2.10,Win32,60,60a5f9bf14d0aa2821c4bb84,,,,,1911,34,91,1,0,0,response1disk,,7,4,7,1,0,0,rectangle,-115,-49,1,0,0,2,"[97,114,208,67,292,256,265,207,252,20,172,132,84,19,119,223,205,73,38,162]",-29,-5,1,0,0,0,96,96,156,1,,response5disk_3,rectangle
,,,,,,,,,,,,,FF,,,,,,,,2.659775,,,,,,,,,,,,,,,,,,,,,,,5df3a70877f865293e86c0a0,60a7d7fbfb4fde314ca4e046,2021-05-21_17h56.22.620,Simcolourproject_2stim_asymm_v5,2020.2.10,Win32,60,60a5f9bf14d0aa2821c4bb84,,,,,1067,52,126,1,0,0,response1disk,,7,3,-2,1,0,0,rectangle,3,-2,1,0,0,4,"[97,114,208,67,292,256,265,207,252,20,172,132,84,19,119,223,205,73,38,162]",3,-2,1,0,0,0,97,97,140,1,,,
,,,,,,,,,,,,,FF,,,,,,,,0.41675,,,,,,,,,,,,,,,,,,,,,,,5df3a70877f865293e86c0a0,60a7d7fbfb4fde314ca4e046,2021-05-21_17h56.22.620,Simcolourproject_2stim_asymm_v5,2020.2.10,Win32,60,60a5f9bf14d0aa2821c4bb84,,,,,2275,58,135,1,0,0,response1disk,,7,17,-5,1,0,0,rectangle,17,-5,1,0,0,6,"[97,114,208,67,292,256,265,207,252,20,172,132,84,19,119,223,205,73,38,162]",17,-5,1,0,0,0,98,98,36,1,,,
,,,,,,,,,,,,,FF,,,,,,,,1.31248,,,,,,,,,,,,,,,,,,,,,,,5df3a70877f865293e86c0a0,60a7d7fbfb4fde314ca4e046,2021-05-21_17h56.22.620,Simcolourproject_2stim_asymm_v5,2020.2.10,Win32,60,60a5f9bf14d0aa2821c4bb84,,,,,251,56,115,1,0,0,response1disk,,7,-4,12,1,0,0,rectangle,-4,12,1,0,0,1,"[97,114,208,67,292,256,265,207,252,20,172,132,84,19,119,223,205,73,38,162]",-4,12,1,0,0,0,99,99,56,1,,,
,,,,,,,,,,,,,FF,,,,,,,,1.56409,,,,,,,,,,,,,,,,,,,,,,,5df3a70877f865293e86c0a0,60a7d7fbfb4fde314ca4e046,2021-05-21_17h56.22.620,Simcolourproject_2stim_asymm_v5,2020.2.10,Win32,60,60a5f9bf14d0aa2821c4bb84,,,,,1726,-48,-127,1,0,0,response5disk,,3,-3,-18,1,0,0,rectangle,-3,-18,1,0,0,1,"[97,114,208,67,292,256,265,207,252,20,172,132,84,19,119,223,205,73,38,162]",-3,-18,1,0,0,0,100,100,33,1,,,
,,,,,,,,,,,,,FF,,,,,,,,0.95147,,,,,,,,,,,,,,,,,,,,,,,5df3a70877f865293e86c0a0,60a7d7fbfb4fde314ca4e046,2021-05-21_17h56.22.620,Simcolourproject_2stim_asymm_v5,2020.2.10,Win32,60,60a5f9bf14d0aa2821c4bb84,,,,,960,63,97,1,0,0,response1disk,,7,-8,8,1,0,0,rectangle,-8,8,1,0,0,7,"[97,114,208,67,292,256,265,207,252,20,172,132,84,19,119,223,205,73,38,162]",-8,8,1,0,0,0,101,101,98,1,,,
,,,,,,,,,,,,,FF,,,,,,,,1.479235,,,,,,,,,,,,,,,,,,,,,,,5df3a70877f865293e86c0a0,60a7d7fbfb4fde314ca4e046,2021-05-21_17h56.22.620,Simcolourproject_2stim_asymm_v5,2020.2.10,Win32,60,60a5f9bf14d0aa2821c4bb84,,,,,1755,-100,38,1,0,0,response7disk,,1,-16,2,1,0,0,rectangle,-16,2,1,0,0,4,"[97,114,208,67,292,256,265,207,252,20,172,132,84,19,119,223,205,73,38,162]",-16,2,1,0,0,0,102,102,127,1,,,
,,,,,,,,,,,,,FF,,,,,,,,2.770895,,,,,,,,,,,,,,,,,,,,,,,5df3a70877f865293e86c0a0,60a7d7fbfb4fde314ca4e046,2021-05-21_17h56.22.620,Simcolourproject_2stim_asymm_v5,2020.2.10,Win32,60,60a5f9bf14d0aa2821c4bb84,,,,,3710,-39,-89,1,0,0,response5disk,,3,-16,3,1,0,0,rectangle,-16,3,1,0,0,5,"[97,114,208,67,292,256,265,207,252,20,172,132,84,19,119,223,205,73,38,162]",-16,3,1,0,0,0,103,103,74,1,,,
,,,,,,,,,,,,,FF,,,,,,,,0.97924,,,,,,,,,,,,,,,,,,,,,,,5df3a70877f865293e86c0a0,60a7d7fbfb4fde314ca4e046,2021-05-21_17h56.22.620,Simcolourproject_2stim_asymm_v5,2020.2.10,Win32,60,60a5f9bf14d0aa2821c4bb84,,,,,3743,-57,123,1,0,0,response7disk,,0,-6,13,1,0,0,rectangle,-6,13,1,0,0,0,"[97,114,208,67,292,256,265,207,252,20,172,132,84,19,119,223,205,73,38,162]",-6,13,1,0,0,0,104,104,47,1,,,
,,,,,,,,,,,,,FF,,,,,,,,0.875035,,,,,,,,,,,,,,,,,,,,,,,5df3a70877f865293e86c0a0,60a7d7fbfb4fde314ca4e046,2021-05-21_17h56.22.620,Simcolourproject_2stim_asymm_v5,2020.2.10,Win32,60,60a5f9bf14d0aa2821c4bb84,,,,,808,-112,72,1,0,0,response7disk,,1,-14,8,1,0,0,rectangle,-14,8,1,0,0,7,"[97,114,208,67,292,256,265,207,252,20,172,132,84,19,119,223,205,73,38,162]",-14,8,1,0,0,0,105,105,121,1,,,
,,,,,,,,,,,,,FF,,,,,,,,1.9514,,,,,,,,,,,,,,,,,,,,,,,5df3a70877f865293e86c0a0,60a7d7fbfb4fde314ca4e046,2021-05-21_17h56.22.620,Simcolourproject_2stim_asymm_v5,2020.2.10,Win32,60,60a5f9bf14d0aa2821c4bb84,,,,,1872,102,51,1,0,0,response1disk,,6,18,0,1,0,0,rectangle,18,0,1,0,0,1,"[97,114,208,67,292,256,265,207,252,20,172,132,84,19,119,223,205,73,38,162]",18,0,1,0,0,0,106,106,21,1,,,
,,,,,,,,,,,,,FF,,,,,,,,0.5695,,,,,,,,,,,,,,,,,,,,,,,5df3a70877f865293e86c0a0,60a7d7fbfb4fde314ca4e046,2021-05-21_17h56.22.620,Simcolourproject_2stim_asymm_v5,2020.2.10,Win32,60,60a5f9bf14d0aa2821c4bb84,,,,,2681,54,136,1,0,0,response1disk,,7,13,18,1,0,0,rectangle,13,18,1,0,0,7,"[97,114,208,67,292,256,265,207,252,20,172,132,84,19,119,223,205,73,38,162]",13,18,1,0,0,0,107,107,24,1,,,
,,,,,,,,,,,,,FF,,,,,,,,0.43065,,,,,,,,,,,,,,,,,,,,,,,5df3a70877f865293e86c0a0,60a7d7fbfb4fde314ca4e046,2021-05-21_17h56.22.620,Simcolourproject_2stim_asymm_v5,2020.2.10,Win32,60,60a5f9bf14d0aa2821c4bb84,,,,,2544,69,120,1,0,0,response1disk,,7,12,6,1,0,0,rectangle,12,6,1,0,0,6,"[97,114,208,67,292,256,265,207,252,20,172,132,84,19,119,223,205,73,38,162]",12,6,1,0,0,0,108,108,108,1,,,
,,,,,,,,,,,,,FF,,,,,,,,0.590335,,,,,,,,,,,,,,,,,,,,,,,5df3a70877f865293e86c0a0,60a7d7fbfb4fde314ca4e046,2021-05-21_17h56.22.620,Simcolourproject_2stim_asymm_v5,2020.2.10,Win32,60,60a5f9bf14d0aa2821c4bb84,,,,,1478,63,124,1,0,0,response1disk,,7,7,19,1,0,0,rectangle,7,19,1,0,0,5,"[97,114,208,67,292,256,265,207,252,20,172,132,84,19,119,223,205,73,38,162]",7,19,1,0,0,0,109,109,158,1,,,
,,,,,,,,,,,,,FF,,,,,,,,1.312515,,,,,,,,,,,,,,,,,,,,,,,5df3a70877f865293e86c0a0,60a7d7fbfb4fde314ca4e046,2021-05-21_17h56.22.620,Simcolourproject_2stim_asymm_v5,2020.2.10,Win32,60,60a5f9bf14d0aa2821c4bb84,,,,,283,-54,-90,1,0,0,response5disk,,3,7,19,1,0,0,rectangle,7,19,1,0,0,5,"[97,114,208,67,292,256,265,207,252,20,172,132,84,19,119,223,205,73,38,162]",7,19,1,0,0,0,110,110,58,1,,,
,,,,,,,,,,,,,FF,,,,,,,,0.701305,,,,,,,,,,,,,,,,,,,,,,,5df3a70877f865293e86c0a0,60a7d7fbfb4fde314ca4e046,2021-05-21_17h56.22.620,Simcolourproject_2stim_asymm_v5,2020.2.10,Win32,60,60a5f9bf14d0aa2821c4bb84,,,,,1086,53,144,1,0,0,response1disk,,7,21,14,1,0,0,rectangle,21,14,1,0,0,5,"[97,114,208,67,292,256,265,207,252,20,172,132,84,19,119,223,205,73,38,162]",21,14,1,0,0,0,111,111,45,1,,,
,,,,,,,,,,,,,FF,,,,,,,,0.7362,,,,,,,,,,,,,,,,,,,,,,,5df3a70877f865293e86c0a0,60a7d7fbfb4fde314ca4e046,2021-05-21_17h56.22.620,Simcolourproject_2stim_asymm_v5,2020.2.10,Win32,60,60a5f9bf14d0aa2821c4bb84,,,,,1955,51,143,1,0,0,response1disk,,7,6,7,1,0,0,rectangle,6,7,1,0,0,2,"[97,114,208,67,292,256,265,207,252,20,172,132,84,19,119,223,205,73,38,162]",6,7,1,0,0,0,112,112,69,1,,,
,,,,,,,,,,,,,FF,,,,,,,,1.722315,,,,,,,,,,,,,,,,,,,,,,,5df3a70877f865293e86c0a0,60a7d7fbfb4fde314ca4e046,2021-05-21_17h56.22.620,Simcolourproject_2stim_asymm_v5,2020.2.10,Win32,60,60a5f9bf14d0aa2821c4bb84,,,,,525,-119,-66,1,0,0,response5disk,,7,-4,0,1,0,0,rectangle,-58,142,1,0,0,0,"[97,114,208,67,292,256,265,207,252,20,172,132,84,19,119,223,205,73,38,162]",-4,3,1,0,0,0,113,113,159,1,,response7disk_3,rectangle
,,,,,,,,,,,,,FF,,,,,,,,2.548735,,,,,,,,,,,,,,,,,,,,,,,5df3a70877f865293e86c0a0,60a7d7fbfb4fde314ca4e046,2021-05-21_17h56.22.620,Simcolourproject_2stim_asymm_v5,2020.2.10,Win32,60,60a5f9bf14d0aa2821c4bb84,,,,,4038,105,48,1,0,0,response1disk,,6,24,0,1,0,0,rectangle,24,0,1,0,0,1,"[97,114,208,67,292,256,265,207,252,20,172,132,84,19,119,223,205,73,38,162]",24,0,1,0,0,0,114,114,125,1,,,
,,,,,,,,,,,,,FF,,,,,,,,1.09729,,,,,,,,,,,,,,,,,,,,,,,5df3a70877f865293e86c0a0,60a7d7fbfb4fde314ca4e046,2021-05-21_17h56.22.620,Simcolourproject_2stim_asymm_v5,2020.2.10,Win32,60,60a5f9bf14d0aa2821c4bb84,,,,,388,54,-102,1,0,0,response3disk,,4,-14,5,1,0,0,rectangle,-14,5,1,0,0,2,"[97,114,208,67,292,256,265,207,252,20,172,132,84,19,119,223,205,73,38,162]",-14,5,1,0,0,0,115,115,22,1,,,
,,,,,,,,,,,,,FF,,,,,,,,2.430545,,,,,,,,,,,,,,,,,,,,,,,5df3a70877f865293e86c0a0,60a7d7fbfb4fde314ca4e046,2021-05-21_17h56.22.620,Simcolourproject_2stim_asymm_v5,2020.2.10,Win32,60,60a5f9bf14d0aa2821c4bb84,,,,,2354,51,143,1,0,0,response1disk,,7,1,-8,1,0,0,rectangle,1,-8,1,0,0,1,"[97,114,208,67,292,256,265,207,252,20,172,132,84,19,119,223,205,73,38,162]",1,-8,1,0,0,0,116,116,153,1,,,
,,,,,,,,,,,,,FF,,,,,,,,0.50005,,,,,,,,,,,,,,,,,,,,,,,5df3a70877f865293e86c0a0,60a7d7fbfb4fde314ca4e046,2021-05-21_17h56.22.620,Simcolourproject_2stim_asymm_v5,2020.2.10,Win32,60,60a5f9bf14d0aa2821c4bb84,,,,,1979,45,121,1,0,0,response1disk,,7,8,-10,1,0,0,rectangle,8,-10,1,0,0,6,"[97,114,208,67,292,256,265,207,252,20,172,132,84,19,119,223,205,73,38,162]",8,-10,1,0,0,0,117,117,93,1,,,
,,,,,,,,,,,,,FF,,,,,,,,0.576465,,,,,,,,,,,,,,,,,,,,,,,5df3a70877f865293e86c0a0,60a7d7fbfb4fde314ca4e046,2021-05-21_17h56.22.620,Simcolourproject_2stim_asymm_v5,2020.2.10,Win32,60,60a5f9bf14d0aa2821c4bb84,,,,,1742,67,122,1,0,0,response1disk,,7,-1,10,1,0,0,rectangle,151,53,1,0,0,6,"[97,114,208,67,292,256,265,207,252,20,172,132,84,19,119,223,205,73,38,162]",19,8,1,0,0,0,118,118,99,1,,response1disk_3,rectangle
,,,,,,,,,,,,,FF,,,,,,,,1.56256,,,,,,,,,,,,,,,,,,,,,,,5df3a70877f865293e86c0a0,60a7d7fbfb4fde314ca4e046,2021-05-21_17h56.22.620,Simcolourproject_2stim_asymm_v5,2020.2.10,Win32,60,60a5f9bf14d0aa2821c4bb84,,,,,3490,68,-104,1,0,0,response3disk,,4,8,13,1,0,0,rectangle,8,13,1,0,0,6,"[97,114,208,67,292,256,265,207,252,20,172,132,84,19,119,223,205,73,38,162]",8,13,1,0,0,0,119,119,5,1,,,
,,,,,,,,,,,,,FF,,,,,,,,3.798725,,,,,,,,,,,,,,,,,,,,,,,5df3a70877f865293e86c0a0,60a7d7fbfb4fde314ca4e046,2021-05-21_17h56.22.620,Simcolourproject_2stim_asymm_v5,2020.2.10,Win32,60,60a5f9bf14d0aa2821c4bb84,,,,,3058,64,-91,1,0,0,response3disk,,4,0,-6,1,0,0,rectangle,0,-6,1,0,0,1,"[97,114,208,67,292,256,265,207,252,20,172,132,84,19,119,223,205,73,38,162]",0,-6,1,0,0,0,120,120,23,1,,,
,,,,,,,,,,,,,FF,,,,,,,,0.659775,,,,,,,,,,,,,,,,,,,,,,,5df3a70877f865293e86c0a0,60a7d7fbfb4fde314ca4e046,2021-05-21_17h56.22.620,Simcolourproject_2stim_asymm_v5,2020.2.10,Win32,60,60a5f9bf14d0aa2821c4bb84,,,,,2133,56,132,1,0,0,response1disk,,7,13,-11,1,0,0,rectangle,13,-11,1,0,0,2,"[97,114,208,67,292,256,265,207,252,20,172,132,84,19,119,223,205,73,38,162]",13,-11,1,0,0,0,121,121,32,1,,,
,,,,,,,,,,,,,FF,,,,,,,,0.7431,,,,,,,,,,,,,,,,,,,,,,,5df3a70877f865293e86c0a0,60a7d7fbfb4fde314ca4e046,2021-05-21_17h56.22.620,Simcolourproject_2stim_asymm_v5,2020.2.10,Win32,60,60a5f9bf14d0aa2821c4bb84,,,,,1355,32,136,1,0,0,response1disk,,7,19,5,1,0,0,rectangle,19,5,1,0,0,6,"[97,114,208,67,292,256,265,207,252,20,172,132,84,19,119,223,205,73,38,162]",19,5,1,0,0,0,122,122,41,1,,,
,,,,,,,,,,,,,FF,,,,,,,,1.84724,,,,,,,,,,,,,,,,,,,,,,,5df3a70877f865293e86c0a0,60a7d7fbfb4fde314ca4e046,2021-05-21_17h56.22.620,Simcolourproject_2stim_asymm_v5,2020.2.10,Win32,60,60a5f9bf14d0aa2821c4bb84,,,,,102,-46,-90,1,0,0,response5disk,,3,6,13,1,0,0,rectangle,6,13,1,0,0,1,"[97,114,208,67,292,256,265,207,252,20,172,132,84,19,119,223,205,73,38,162]",6,13,1,0,0,0,123,123,1,1,,,
,,,,,,,,,,,,,FF,,,,,,,,0.75699,,,,,,,,,,,,,,,,,,,,,,,5df3a70877f865293e86c0a0,60a7d7fbfb4fde314ca4e046,2021-05-21_17h56.22.620,Simcolourproject_2stim_asymm_v5,2020.2.10,Win32,60,60a5f9bf14d0aa2821c4bb84,,,,,2537,42,129,1,0,0,response1disk,,7,9,-3,1,0,0,rectangle,9,-3,1,0,0,3,"[97,114,208,67,292,256,265,207,252,20,172,132,84,19,119,223,205,73,38,162]",9,-3,1,0,0,0,124,124,117,1,,,
,,,,,,,,,,,,,FF,,,,,,,,0.5695,,,,,,,,,,,,,,,,,,,,,,,5df3a70877f865293e86c0a0,60a7d7fbfb4fde314ca4e046,2021-05-21_17h56.22.620,Simcolourproject_2stim_asymm_v5,2020.2.10,Win32,60,60a5f9bf14d0aa2821c4bb84,,,,,4015,53,151,1,0,0,response1disk,,7,7,2,1,0,0,rectangle,7,2,1,0,0,6,"[97,114,208,67,292,256,265,207,252,20,172,132,84,19,119,223,205,73,38,162]",7,2,1,0,0,0,125,125,63,1,,,
,,,,,,,,,,,,,FF,,,,,,,,0.50005,,,,,,,,,,,,,,,,,,,,,,,5df3a70877f865293e86c0a0,60a7d7fbfb4fde314ca4e046,2021-05-21_17h56.22.620,Simcolourproject_2stim_asymm_v5,2020.2.10,Win32,60,60a5f9bf14d0aa2821c4bb84,,,,,752,41,127,1,0,0,response1disk,,7,31,8,1,0,0,rectangle,31,8,1,0,0,1,"[97,114,208,67,292,256,265,207,252,20,172,132,84,19,119,223,205,73,38,162]",31,8,1,0,0,0,126,126,128,1,,,
,,,,,,,,,,,,,FF,,,,,,,,0.576475,,,,,,,,,,,,,,,,,,,,,,,5df3a70877f865293e86c0a0,60a7d7fbfb4fde314ca4e046,2021-05-21_17h56.22.620,Simcolourproject_2stim_asymm_v5,2020.2.10,Win32,60,60a5f9bf14d0aa2821c4bb84,,,,,1346,65,139,1,0,0,response1disk,,7,7,10,1,0,0,rectangle,7,10,1,0,0,7,"[97,114,208,67,292,256,265,207,252,20,172,132,84,19,119,223,205,73,38,162]",7,10,1,0,0,0,127,127,83,1,,,
,,,,,,,,,,,,,FF,,,,,,,,0.70843,,,,,,,,,,,,,,,,,,,,,,,5df3a70877f865293e86c0a0,60a7d7fbfb4fde314ca4e046,2021-05-21_17h56.22.620,Simcolourproject_2stim_asymm_v5,2020.2.10,Win32,60,60a5f9bf14d0aa2821c4bb84,,,,,3464,50,124,1,0,0,response1disk,,7,9,9,1,0,0,rectangle,9,9,1,0,0,5,"[97,114,208,67,292,256,265,207,252,20,172,132,84,19,119,223,205,73,38,162]",9,9,1,0,0,0,128,128,39,1,,,
,,,,,,,,,,,,,FF,,,,,,,,0.472425,,,,,,,,,,,,,,,,,,,,,,,5df3a70877f865293e86c0a0,60a7d7fbfb4fde314ca4e046,2021-05-21_17h56.22.620,Simcolourproject_2stim_asymm_v5,2020.2.10,Win32,60,60a5f9bf14d0aa2821c4bb84,,,,,3118,38,134,1,0,0,response1disk,,7,-18,-8,1,0,0,rectangle,-18,-8,1,0,0,6,"[97,114,208,67,292,256,265,207,252,20,172,132,84,19,119,223,205,73,38,162]",-18,-8,1,0,0,0,129,129,51,1,,,
,,,,,,,,,,,,,FF,,,,,,,,1.951495,,,,,,,,,,,,,,,,,,,,,,,5df3a70877f865293e86c0a0,60a7d7fbfb4fde314ca4e046,2021-05-21_17h56.22.620,Simcolourproject_2stim_asymm_v5,2020.2.10,Win32,60,60a5f9bf14d0aa2821c4bb84,,,,,3716,108,-46,1,0,0,response3disk,,5,5,8,1,0,0,rectangle,5,8,1,0,0,1,"[97,114,208,67,292,256,265,207,252,20,172,132,84,19,119,223,205,73,38,162]",5,8,1,0,0,0,130,130,53,1,,,
,,,,,,,,,,,,,FF,,,,,,,,2.062615,,,,,,,,,,,,,,,,,,,,,,,5df3a70877f865293e86c0a0,60a7d7fbfb4fde314ca4e046,2021-05-21_17h56.22.620,Simcolourproject_2stim_asymm_v5,2020.2.10,Win32,60,60a5f9bf14d0aa2821c4bb84,,,,,1602,-109,37,1,0,0,response7disk,,1,-18,-8,1,0,0,rectangle,62,155,1,0,0,7,"[97,114,208,67,292,256,265,207,252,20,172,132,84,19,119,223,205,73,38,162]",-2,0,1,0,0,0,131,131,124,1,,response1disk_3,rectangle
,,,,,,,,,,,,,FF,,,,,,,,5.527905,,,,,,,,,,,,,,,,,,,,,,,5df3a70877f865293e86c0a0,60a7d7fbfb4fde314ca4e046,2021-05-21_17h56.22.620,Simcolourproject_2stim_asymm_v5,2020.2.10,Win32,60,60a5f9bf14d0aa2821c4bb84,,,,,3183,-46,-118,1,0,0,response5disk,,3,14,18,1,0,0,rectangle,14,18,1,0,0,2,"[97,114,208,67,292,256,265,207,252,20,172,132,84,19,119,223,205,73,38,162]",14,18,1,0,0,0,132,132,59,1,,,
,,,,,,,,,,,,,FF,,,,,,,,0.71535,,,,,,,,,,,,,,,,,,,,,,,5df3a70877f865293e86c0a0,60a7d7fbfb4fde314ca4e046,2021-05-21_17h56.22.620,Simcolourproject_2stim_asymm_v5,2020.2.10,Win32,60,60a5f9bf14d0aa2821c4bb84,,,,,4180,34,140,1,0,0,response1disk,,7,1,2,1,0,0,rectangle,1,2,1,0,0,4,"[97,114,208,67,292,256,265,207,252,20,172,132,84,19,119,223,205,73,38,162]",1,2,1,0,0,0,133,133,143,1,,,
,,,,,,,,,,,,,FF,,,,,,,,1.958405,,,,,,,,,,,,,,,,,,,,,,,5df3a70877f865293e86c0a0,60a7d7fbfb4fde314ca4e046,2021-05-21_17h56.22.620,Simcolourproject_2stim_asymm_v5,2020.2.10,Win32,60,60a5f9bf14d0aa2821c4bb84,,,,,1769,108,-64,1,0,0,response3disk,,5,28,4,1,0,0,rectangle,28,4,1,0,0,1,"[97,114,208,67,292,256,265,207,252,20,172,132,84,19,119,223,205,73,38,162]",28,4,1,0,0,0,134,134,152,1,,,
,,,,,,,,,,,,,FF,,,,,,,,0.444515,,,,,,,,,,,,,,,,,,,,,,,5df3a70877f865293e86c0a0,60a7d7fbfb4fde314ca4e046,2021-05-21_17h56.22.620,Simcolourproject_2stim_asymm_v5,2020.2.10,Win32,60,60a5f9bf14d0aa2821c4bb84,,,,,259,78,117,1,0,0,response1disk,,7,41,1,1,0,0,rectangle,41,1,1,0,0,1,"[97,114,208,67,292,256,265,207,252,20,172,132,84,19,119,223,205,73,38,162]",41,1,1,0,0,0,135,135,139,1,,,
,,,,,,,,,,,,,FF,,,,,,,,1.47924,,,,,,,,,,,,,,,,,,,,,,,5df3a70877f865293e86c0a0,60a7d7fbfb4fde314ca4e046,2021-05-21_17h56.22.620,Simcolourproject_2stim_asymm_v5,2020.2.10,Win32,60,60a5f9bf14d0aa2821c4bb84,,,,,443,-55,125,1,0,0,response7disk,,0,-2,18,1,0,0,rectangle,-2,18,1,0,0,6,"[97,114,208,67,292,256,265,207,252,20,172,132,84,19,119,223,205,73,38,162]",-2,18,1,0,0,0,136,136,104,1,,,
,,,,,,,,,,,,,FF,,,,,,,,0.5695,,,,,,,,,,,,,,,,,,,,,,,5df3a70877f865293e86c0a0,60a7d7fbfb4fde314ca4e046,2021-05-21_17h56.22.620,Simcolourproject_2stim_asymm_v5,2020.2.10,Win32,60,60a5f9bf14d0aa2821c4bb84,,,,,2211,42,114,1,0,0,response1disk,,7,4,15,1,0,0,rectangle,4,15,1,0,0,0,"[97,114,208,67,292,256,265,207,252,20,172,132,84,19,119,223,205,73,38,162]",4,15,1,0,0,0,137,137,134,1,,,
,,,,,,,,,,,,,FF,,,,,,,,0.840285,,,,,,,,,,,,,,,,,,,,,,,5df3a70877f865293e86c0a0,60a7d7fbfb4fde314ca4e046,2021-05-21_17h56.22.620,Simcolourproject_2stim_asymm_v5,2020.2.10,Win32,60,60a5f9bf14d0aa2821c4bb84,,,,,485,38,125,1,0,0,response1disk,,7,13,-7,1,0,0,rectangle,13,-7,1,0,0,0,"[97,114,208,67,292,256,265,207,252,20,172,132,84,19,119,223,205,73,38,162]",13,-7,1,0,0,0,138,138,144,1,,,
,,,,,,,,,,,,,FF,,,,,,,,0.527815,,,,,,,,,,,,,,,,,,,,,,,5df3a70877f865293e86c0a0,60a7d7fbfb4fde314ca4e046,2021-05-21_17h56.22.620,Simcolourproject_2stim_asymm_v5,2020.2.10,Win32,60,60a5f9bf14d0aa2821c4bb84,,,,,4258,46,129,1,0,0,response1disk,,7,16,9,1,0,0,rectangle,16,9,1,0,0,0,"[97,114,208,67,292,256,265,207,252,20,172,132,84,19,119,223,205,73,38,162]",16,9,1,0,0,0,139,139,148,1,,,
,,,,,,,,,,,,,FF,,,,,,,,1.4098,,,,,,,,,,,,,,,,,,,,,,,5df3a70877f865293e86c0a0,60a7d7fbfb4fde314ca4e046,2021-05-21_17h56.22.620,Simcolourproject_2stim_asymm_v5,2020.2.10,Win32,60,60a5f9bf14d0aa2821c4bb84,,,,,2643,50,133,1,0,0,response1disk,,7,5,13,1,0,0,rectangle,5,13,1,0,0,7,"[97,114,208,67,292,256,265,207,252,20,172,132,84,19,119,223,205,73,38,162]",5,13,1,0,0,0,140,140,37,1,,,
,,,,,,,,,,,,,FF,,,,,,,,0.409805,,,,,,,,,,,,,,,,,,,,,,,5df3a70877f865293e86c0a0,60a7d7fbfb4fde314ca4e046,2021-05-21_17h56.22.620,Simcolourproject_2stim_asymm_v5,2020.2.10,Win32,60,60a5f9bf14d0aa2821c4bb84,,,,,3402,44,121,1,0,0,response1disk,,7,27,10,1,0,0,rectangle,27,10,1,0,0,7,"[97,114,208,67,292,256,265,207,252,20,172,132,84,19,119,223,205,73,38,162]",27,10,1,0,0,0,141,141,35,1,,,
,,,,,,,,,,,,,FF,,,,,,,,0.395905,,,,,,,,,,,,,,,,,,,,,,,5df3a70877f865293e86c0a0,60a7d7fbfb4fde314ca4e046,2021-05-21_17h56.22.620,Simcolourproject_2stim_asymm_v5,2020.2.10,Win32,60,60a5f9bf14d0aa2821c4bb84,,,,,371,62,133,1,0,0,response1disk,,7,0,16,1,0,0,rectangle,0,16,1,0,0,5,"[97,114,208,67,292,256,265,207,252,20,172,132,84,19,119,223,205,73,38,162]",0,16,1,0,0,0,142,142,133,1,,,
,,,,,,,,,,,,,FF,,,,,,,,0.458375,,,,,,,,,,,,,,,,,,,,,,,5df3a70877f865293e86c0a0,60a7d7fbfb4fde314ca4e046,2021-05-21_17h56.22.620,Simcolourproject_2stim_asymm_v5,2020.2.10,Win32,60,60a5f9bf14d0aa2821c4bb84,,,,,4136,46,125,1,0,0,response1disk,,7,0,6,1,0,0,rectangle,0,6,1,0,0,0,"[97,114,208,67,292,256,265,207,252,20,172,132,84,19,119,223,205,73,38,162]",0,6,1,0,0,0,143,143,107,1,,,
,,,,,,,,,,,,,FF,,,,,,,,0.4862,,,,,,,,,,,,,,,,,,,,,,,5df3a70877f865293e86c0a0,60a7d7fbfb4fde314ca4e046,2021-05-21_17h56.22.620,Simcolourproject_2stim_asymm_v5,2020.2.10,Win32,60,60a5f9bf14d0aa2821c4bb84,,,,,477,51,132,1,0,0,response1disk,,7,13,13,1,0,0,rectangle,13,13,1,0,0,6,"[97,114,208,67,292,256,265,207,252,20,172,132,84,19,119,223,205,73,38,162]",13,13,1,0,0,0,144,144,44,1,,,
,,,,,,,,,,,,,FF,,,,,,,,0.645905,,,,,,,,,,,,,,,,,,,,,,,5df3a70877f865293e86c0a0,60a7d7fbfb4fde314ca4e046,2021-05-21_17h56.22.620,Simcolourproject_2stim_asymm_v5,2020.2.10,Win32,60,60a5f9bf14d0aa2821c4bb84,,,,,3364,66,144,1,0,0,response1disk,,7,13,13,1,0,0,rectangle,13,13,1,0,0,0,"[97,114,208,67,292,256,265,207,252,20,172,132,84,19,119,223,205,73,38,162]",13,13,1,0,0,0,145,145,109,1,,,
,,,,,,,,,,,,,FF,,,,,,,,1.79174,,,,,,,,,,,,,,,,,,,,,,,5df3a70877f865293e86c0a0,60a7d7fbfb4fde314ca4e046,2021-05-21_17h56.22.620,Simcolourproject_2stim_asymm_v5,2020.2.10,Win32,60,60a5f9bf14d0aa2821c4bb84,,,,,949,69,161,1,0,0,response1disk,,7,5,8,1,0,0,rectangle,5,8,1,0,0,0,"[97,114,208,67,292,256,265,207,252,20,172,132,84,19,119,223,205,73,38,162]",5,8,1,0,0,0,146,146,95,1,,,
,,,,,,,,,,,,,FF,,,,,,,,0.743105,,,,,,,,,,,,,,,,,,,,,,,5df3a70877f865293e86c0a0,60a7d7fbfb4fde314ca4e046,2021-05-21_17h56.22.620,Simcolourproject_2stim_asymm_v5,2020.2.10,Win32,60,60a5f9bf14d0aa2821c4bb84,,,,,449,53,146,1,0,0,response1disk,,7,-5,-2,1,0,0,rectangle,-5,-2,1,0,0,2,"[97,114,208,67,292,256,265,207,252,20,172,132,84,19,119,223,205,73,38,162]",-5,-2,1,0,0,0,147,147,38,1,,,
,,,,,,,,,,,,,FF,,,,,,,,0.41679,,,,,,,,,,,,,,,,,,,,,,,5df3a70877f865293e86c0a0,60a7d7fbfb4fde314ca4e046,2021-05-21_17h56.22.620,Simcolourproject_2stim_asymm_v5,2020.2.10,Win32,60,60a5f9bf14d0aa2821c4bb84,,,,,98,75,133,1,0,0,response1disk,,7,-8,-6,1,0,0,rectangle,-8,-6,1,0,0,5,"[97,114,208,67,292,256,265,207,252,20,172,132,84,19,119,223,205,73,38,162]",-8,-6,1,0,0,0,148,148,6,1,,,
,,,,,,,,,,,,,FF,,,,,,,,0.81952,,,,,,,,,,,,,,,,,,,,,,,5df3a70877f865293e86c0a0,60a7d7fbfb4fde314ca4e046,2021-05-21_17h56.22.620,Simcolourproject_2stim_asymm_v5,2020.2.10,Win32,60,60a5f9bf14d0aa2821c4bb84,,,,,3172,47,132,1,0,0,response1disk,,7,16,14,1,0,0,rectangle,16,14,1,0,0,1,"[97,114,208,67,292,256,265,207,252,20,172,132,84,19,119,223,205,73,38,162]",16,14,1,0,0,0,149,149,52,1,,,
,,,,,,,,,,,,,FF,,,,,,,,0.520855,,,,,,,,,,,,,,,,,,,,,,,5df3a70877f865293e86c0a0,60a7d7fbfb4fde314ca4e046,2021-05-21_17h56.22.620,Simcolourproject_2stim_asymm_v5,2020.2.10,Win32,60,60a5f9bf14d0aa2821c4bb84,,,,,2848,62,140,1,0,0,response1disk,,7,30,7,1,0,0,rectangle,30,7,1,0,0,7,"[97,114,208,67,292,256,265,207,252,20,172,132,84,19,119,223,205,73,38,162]",30,7,1,0,0,0,150,150,130,1,,,
,,,,,,,,,,,,,FF,,,,,,,,0.708415,,,,,,,,,,,,,,,,,,,,,,,5df3a70877f865293e86c0a0,60a7d7fbfb4fde314ca4e046,2021-05-21_17h56.22.620,Simcolourproject_2stim_asymm_v5,2020.2.10,Win32,60,60a5f9bf14d0aa2821c4bb84,,,,,1178,59,133,1,0,0,response1disk,,7,18,5,1,0,0,rectangle,18,5,1,0,0,0,"[97,114,208,67,292,256,265,207,252,20,172,132,84,19,119,223,205,73,38,162]",18,5,1,0,0,0,151,151,55,1,,,
,,,,,,,,,,,,,FF,,,,,,,,0.534775,,,,,,,,,,,,,,,,,,,,,,,5df3a70877f865293e86c0a0,60a7d7fbfb4fde314ca4e046,2021-05-21_17h56.22.620,Simcolourproject_2stim_asymm_v5,2020.2.10,Win32,60,60a5f9bf14d0aa2821c4bb84,,,,,2843,46,151,1,0,0,response1disk,,7,1,-5,1,0,0,rectangle,1,-5,1,0,0,0,"[97,114,208,67,292,256,265,207,252,20,172,132,84,19,119,223,205,73,38,162]",1,-5,1,0,0,0,152,152,142,1,,,
,,,,,,,,,,,,,FF,,,,,,,,0.55565,,,,,,,,,,,,,,,,,,,,,,,5df3a70877f865293e86c0a0,60a7d7fbfb4fde314ca4e046,2021-05-21_17h56.22.620,Simcolourproject_2stim_asymm_v5,2020.2.10,Win32,60,60a5f9bf14d0aa2821c4bb84,,,,,1784,48,134,1,0,0,response1disk,,7,1,3,1,0,0,rectangle,1,3,1,0,0,6,"[97,114,208,67,292,256,265,207,252,20,172,132,84,19,119,223,205,73,38,162]",1,3,1,0,0,0,153,153,67,1,,,
,,,,,,,,,,,,,FF,,,,,,,,2.236185,,,,,,,,,,,,,,,,,,,,,,,5df3a70877f865293e86c0a0,60a7d7fbfb4fde314ca4e046,2021-05-21_17h56.22.620,Simcolourproject_2stim_asymm_v5,2020.2.10,Win32,60,60a5f9bf14d0aa2821c4bb84,,,,,2182,53,127,1,0,0,response1disk,,7,32,4,1,0,0,rectangle,32,4,1,0,0,1,"[97,114,208,67,292,256,265,207,252,20,172,132,84,19,119,223,205,73,38,162]",32,4,1,0,0,0,154,154,54,1,,,
,,,,,,,,,,,,,FF,,,,,,,,0.52089,,,,,,,,,,,,,,,,,,,,,,,5df3a70877f865293e86c0a0,60a7d7fbfb4fde314ca4e046,2021-05-21_17h56.22.620,Simcolourproject_2stim_asymm_v5,2020.2.10,Win32,60,60a5f9bf14d0aa2821c4bb84,,,,,4312,65,150,1,0,0,response1disk,,7,16,6,1,0,0,rectangle,16,6,1,0,0,1,"[97,114,208,67,292,256,265,207,252,20,172,132,84,19,119,223,205,73,38,162]",16,6,1,0,0,0,155,155,50,1,,,
,,,,,,,,,,,,,FF,,,,,,,,0.68757,,,,,,,,,,,,,,,,,,,,,,,5df3a70877f865293e86c0a0,60a7d7fbfb4fde314ca4e046,2021-05-21_17h56.22.620,Simcolourproject_2stim_asymm_v5,2020.2.10,Win32,60,60a5f9bf14d0aa2821c4bb84,,,,,1393,65,134,1,0,0,response1disk,,7,15,-6,1,0,0,rectangle,15,-6,1,0,0,0,"[97,114,208,67,292,256,265,207,252,20,172,132,84,19,119,223,205,73,38,162]",15,-6,1,0,0,0,156,156,81,1,,,
,,,,,,,,,,,,,FF,,,,,,,,0.597285,,,,,,,,,,,,,,,,,,,,,,,5df3a70877f865293e86c0a0,60a7d7fbfb4fde314ca4e046,2021-05-21_17h56.22.620,Simcolourproject_2stim_asymm_v5,2020.2.10,Win32,60,60a5f9bf14d0aa2821c4bb84,,,,,85,45,148,1,0,0,response1disk,,7,14,9,1,0,0,rectangle,14,9,1,0,0,0,"[97,114,208,67,292,256,265,207,252,20,172,132,84,19,119,223,205,73,38,162]",14,9,1,0,0,0,157,157,100,1,,,
,,,,,,,,,,,,,FF,,,,,,,,0.479265,,,,,,,,,,,,,,,,,,,,,,,5df3a70877f865293e86c0a0,60a7d7fbfb4fde314ca4e046,2021-05-21_17h56.22.620,Simcolourproject_2stim_asymm_v5,2020.2.10,Win32,60,60a5f9bf14d0aa2821c4bb84,,,,,2044,54,148,1,0,0,response1disk,,7,17,-1,1,0,0,rectangle,17,-1,1,0,0,1,"[97,114,208,67,292,256,265,207,252,20,172,132,84,19,119,223,205,73,38,162]",17,-1,1,0,0,0,158,158,26,1,,,
,,,,,,,,,,,,,FF,,,,,,,,0.82644,,,,,,,,,,,,,,,,,,,,,,,5df3a70877f865293e86c0a0,60a7d7fbfb4fde314ca4e046,2021-05-21_17h56.22.620,Simcolourproject_2stim_asymm_v5,2020.2.10,Win32,60,60a5f9bf14d0aa2821c4bb84,,,,,3879,54,115,1,0,0,response1disk,,7,-2,-4,1,0,0,rectangle,-2,-4,1,0,0,2,"[97,114,208,67,292,256,265,207,252,20,172,132,84,19,119,223,205,73,38,162]",-2,-4,1,0,0,0,159,159,122,1,,,
,,,,,,,,,,,,,FF,,,,,,,,1.194495,,,,,,,,,,,,,,,,,,,,,,,5df3a70877f865293e86c0a0,60a7d7fbfb4fde314ca4e046,2021-05-21_17h56.22.620,Simcolourproject_2stim_asymm_v5,2020.2.10,Win32,60,60a5f9bf14d0aa2821c4bb84,,,,,630,-56,108,1,0,0,response7disk,,0,18,12,1,0,0,rectangle,18,12,1,0,0,0,"[97,114,208,67,292,256,265,207,252,20,172,132,84,19,119,223,205,73,38,162]",18,12,1,0,0,0,160,160,42,1,,,
,,,,,,,,,,,,,FF,,,,,,,,0.69462,,,,,,,,,,,,,,,,,,,,,,,5df3a70877f865293e86c0a0,60a7d7fbfb4fde314ca4e046,2021-05-21_17h56.22.620,Simcolourproject_2stim_asymm_v5,2020.2.10,Win32,60,60a5f9bf14d0aa2821c4bb84,,,,,1130,63,162,1,0,0,response1disk,,7,-4,-1,1,0,0,rectangle,73,134,1,0,0,7,"[97,114,208,67,292,256,265,207,252,20,172,132,84,19,119,223,205,73,38,162]",-2,2,1,0,0,1,0,161,29,1,,response1disk_3,rectangle
,,,,,,,,,,,,,FF,,,,,,,,2.85426,,,,,,,,,,,,,,,,,,,,,,,5df3a70877f865293e86c0a0,60a7d7fbfb4fde314ca4e046,2021-05-21_17h56.22.620,Simcolourproject_2stim_asymm_v5,2020.2.10,Win32,60,60a5f9bf14d0aa2821c4bb84,,,,,388,78,147,1,0,0,response1disk,,7,15,-3,1,0,0,rectangle,15,-3,1,0,0,4,"[97,114,208,67,292,256,265,207,252,20,172,132,84,19,119,223,205,73,38,162]",15,-3,1,0,0,1,1,162,128,1,,,
,,,,,,,,,,,,,FF,,,,,,,,0.395885,,,,,,,,,,,,,,,,,,,,,,,5df3a70877f865293e86c0a0,60a7d7fbfb4fde314ca4e046,2021-05-21_17h56.22.620,Simcolourproject_2stim_asymm_v5,2020.2.10,Win32,60,60a5f9bf14d0aa2821c4bb84,,,,,3356,49,155,1,0,0,response1disk,,7,9,8,1,0,0,rectangle,9,8,1,0,0,5,"[97,114,208,67,292,256,265,207,252,20,172,132,84,19,119,223,205,73,38,162]",9,8,1,0,0,1,2,163,157,1,,,
,,,,,,,,,,,,,FF,,,,,,,,0.52091,,,,,,,,,,,,,,,,,,,,,,,5df3a70877f865293e86c0a0,60a7d7fbfb4fde314ca4e046,2021-05-21_17h56.22.620,Simcolourproject_2stim_asymm_v5,2020.2.10,Win32,60,60a5f9bf14d0aa2821c4bb84,,,,,1393,44,144,1,0,0,response1disk,,7,-27,-10,1,0,0,rectangle,-27,-10,1,0,0,2,"[97,114,208,67,292,256,265,207,252,20,172,132,84,19,119,223,205,73,38,162]",-27,-10,1,0,0,1,3,164,33,1,,,
,,,,,,,,,,,,,FF,,,,,,,,0.493135,,,,,,,,,,,,,,,,,,,,,,,5df3a70877f865293e86c0a0,60a7d7fbfb4fde314ca4e046,2021-05-21_17h56.22.620,Simcolourproject_2stim_asymm_v5,2020.2.10,Win32,60,60a5f9bf14d0aa2821c4bb84,,,,,2537,41,149,1,0,0,response1disk,,7,-6,5,1,0,0,rectangle,-6,5,1,0,0,6,"[97,114,208,67,292,256,265,207,252,20,172,132,84,19,119,223,205,73,38,162]",-6,5,1,0,0,1,4,165,81,1,,,
,,,,,,,,,,,,,FF,,,,,,,,1.8959,,,,,,,,,,,,,,,,,,,,,,,5df3a70877f865293e86c0a0,60a7d7fbfb4fde314ca4e046,2021-05-21_17h56.22.620,Simcolourproject_2stim_asymm_v5,2020.2.10,Win32,60,60a5f9bf14d0aa2821c4bb84,,,,,3606,42,146,1,0,0,response1disk,,7,23,-2,1,0,0,rectangle,23,-2,1,0,0,0,"[97,114,208,67,292,256,265,207,252,20,172,132,84,19,119,223,205,73,38,162]",23,-2,1,0,0,1,5,166,88,1,,,
,,,,,,,,,,,,,FF,,,,,,,,0.493105,,,,,,,,,,,,,,,,,,,,,,,5df3a70877f865293e86c0a0,60a7d7fbfb4fde314ca4e046,2021-05-21_17h56.22.620,Simcolourproject_2stim_asymm_v5,2020.2.10,Win32,60,60a5f9bf14d0aa2821c4bb84,,,,,1955,41,146,1,0,0,response1disk,,7,6,-2,1,0,0,rectangle,6,-2,1,0,0,2,"[97,114,208,67,292,256,265,207,252,20,172,132,84,19,119,223,205,73,38,162]",6,-2,1,0,0,1,6,167,153,1,,,
,,,,,,,,,,,,,FF,,,,,,,,2.062585,,,,,,,,,,,,,,,,,,,,,,,5df3a70877f865293e86c0a0,60a7d7fbfb4fde314ca4e046,2021-05-21_17h56.22.620,Simcolourproject_2stim_asymm_v5,2020.2.10,Win32,60,60a5f9bf14d0aa2821c4bb84,,,,,4143,55,-95,1,0,0,response3disk,,4,9,-1,1,0,0,rectangle,9,-1,1,0,0,7,"[97,114,208,67,292,256,265,207,252,20,172,132,84,19,119,223,205,73,38,162]",9,-1,1,0,0,1,7,168,50,1,,,
,,,,,,,,,,,,,FF,,,,,,,,0.48614,,,,,,,,,,,,,,,,,,,,,,,5df3a70877f865293e86c0a0,60a7d7fbfb4fde314ca4e046,2021-05-21_17h56.22.620,Simcolourproject_2stim_asymm_v5,2020.2.10,Win32,60,60a5f9bf14d0aa2821c4bb84,,,,,1478,52,157,1,0,0,response1disk,,7,20,-1,1,0,0,rectangle,20,-1,1,0,0,7,"[97,114,208,67,292,256,265,207,252,20,172,132,84,19,119,223,205,73,38,162]",20,-1,1,0,0,1,8,169,3,1,,,
,,,,,,,,,,,,,FF,,,,,,,,1.638945,,,,,,,,,,,,,,,,,,,,,,,5df3a70877f865293e86c0a0,60a7d7fbfb4fde314ca4e046,2021-05-21_17h56.22.620,Simcolourproject_2stim_asymm_v5,2020.2.10,Win32,60,60a5f9bf14d0aa2821c4bb84,,,,,380,46,-102,1,0,0,response3disk,,4,21,20,1,0,0,rectangle,21,20,1,0,0,3,"[97,114,208,67,292,256,265,207,252,20,172,132,84,19,119,223,205,73,38,162]",21,20,1,0,0,1,9,170,17,1,,,
,,,,,,,,,,,,,FF,,,,,,,,1.159785,,,,,,,,,,,,,,,,,,,,,,,5df3a70877f865293e86c0a0,60a7d7fbfb4fde314ca4e046,2021-05-21_17h56.22.620,Simcolourproject_2stim_asymm_v5,2020.2.10,Win32,60,60a5f9bf14d0aa2821c4bb84,,,,,1910,53,-97,1,0,0,response3disk,,4,21,-4,1,0,0,rectangle,-146,-47,1,0,0,2,"[97,114,208,67,292,256,265,207,252,20,172,132,84,19,119,223,205,73,38,162]",-47,-2,1,0,0,1,10,171,125,1,,response5disk_3,rectangle
,,,,,,,,,,,,,FF,,,,,,,,1.305625,,,,,,,,,,,,,,,,,,,,,,,5df3a70877f865293e86c0a0,60a7d7fbfb4fde314ca4e046,2021-05-21_17h56.22.620,Simcolourproject_2stim_asymm_v5,2020.2.10,Win32,60,60a5f9bf14d0aa2821c4bb84,,,,,949,40,143,1,0,0,response1disk,,7,-27,17,1,0,0,rectangle,-27,17,1,0,0,1,"[97,114,208,67,292,256,265,207,252,20,172,132,84,19,119,223,205,73,38,162]",-27,17,1,0,0,1,11,172,96,1,,,
,,,,,,,,,,,,,FF,,,,,,,,1.06951,,,,,,,,,,,,,,,,,,,,,,,5df3a70877f865293e86c0a0,60a7d7fbfb4fde314ca4e046,2021-05-21_17h56.22.620,Simcolourproject_2stim_asymm_v5,2020.2.10,Win32,60,60a5f9bf14d0aa2821c4bb84,,,,,3172,39,112,1,0,0,response1disk,,7,-3,-4,1,0,0,rectangle,-3,-4,1,0,0,2,"[97,114,208,67,292,256,265,207,252,20,172,132,84,19,119,223,205,73,38,162]",-3,-4,1,0,0,1,12,173,21,1,,,
,,,,,,,,,,,,,FF,,,,,,,,0.888985,,,,,,,,,,,,,,,,,,,,,,,5df3a70877f865293e86c0a0,60a7d7fbfb4fde314ca4e046,2021-05-21_17h56.22.620,Simcolourproject_2stim_asymm_v5,2020.2.10,Win32,60,60a5f9bf14d0aa2821c4bb84,,,,,752,50,109,1,0,0,response1disk,,7,18,-2,1,0,0,rectangle,18,-2,1,0,0,2,"[97,114,208,67,292,256,265,207,252,20,172,132,84,19,119,223,205,73,38,162]",18,-2,1,0,0,1,13,174,44,1,,,
,,,,,,,,,,,,,FF,,,,,,,,1.076425,,,,,,,,,,,,,,,,,,,,,,,5df3a70877f865293e86c0a0,60a7d7fbfb4fde314ca4e046,2021-05-21_17h56.22.620,Simcolourproject_2stim_asymm_v5,2020.2.10,Win32,60,60a5f9bf14d0aa2821c4bb84,,,,,2852,50,103,1,0,0,response1disk,,7,5,17,1,0,0,rectangle,5,17,1,0,0,4,"[97,114,208,67,292,256,265,207,252,20,172,132,84,19,119,223,205,73,38,162]",5,17,1,0,0,1,14,175,13,1,,,
,,,,,,,,,,,,,FF,,,,,,,,0.4514,,,,,,,,,,,,,,,,,,,,,,,5df3a70877f865293e86c0a0,60a7d7fbfb4fde314ca4e046,2021-05-21_17h56.22.620,Simcolourproject_2stim_asymm_v5,2020.2.10,Win32,60,60a5f9bf14d0aa2821c4bb84,,,,,2681,37,99,1,0,0,response1disk,,7,5,-15,1,0,0,rectangle,5,-15,1,0,0,5,"[97,114,208,67,292,256,265,207,252,20,172,132,84,19,119,223,205,73,38,162]",5,-15,1,0,0,1,15,176,68,1,,,
,,,,,,,,,,,,,FF,,,,,,,,1.625085,,,,,,,,,,,,,,,,,,,,,,,5df3a70877f865293e86c0a0,60a7d7fbfb4fde314ca4e046,2021-05-21_17h56.22.620,Simcolourproject_2stim_asymm_v5,2020.2.10,Win32,60,60a5f9bf14d0aa2821c4bb84,,,,,2584,-99,35,1,0,0,response7disk,,1,-3,3,1,0,0,rectangle,-3,3,1,0,0,3,"[97,114,208,67,292,256,265,207,252,20,172,132,84,19,119,223,205,73,38,162]",-3,3,1,0,0,1,16,177,138,1,,,
,,,,,,,,,,,,,FF,,,,,,,,1.94452,,,,,,,,,,,,,,,,,,,,,,,5df3a70877f865293e86c0a0,60a7d7fbfb4fde314ca4e046,2021-05-21_17h56.22.620,Simcolourproject_2stim_asymm_v5,2020.2.10,Win32,60,60a5f9bf14d0aa2821c4bb84,,,,,370,33,113,1,0,0,response1disk,,7,12,17,1,0,0,rectangle,12,17,1,0,0,1,"[97,114,208,67,292,256,265,207,252,20,172,132,84,19,119,223,205,73,38,162]",12,17,1,0,0,1,17,178,87,1,,,
,,,,,,,,,,,,,FF,,,,,,,,0.53465,,,,,,,,,,,,,,,,,,,,,,,5df3a70877f865293e86c0a0,60a7d7fbfb4fde314ca4e046,2021-05-21_17h56.22.620,Simcolourproject_2stim_asymm_v5,2020.2.10,Win32,60,60a5f9bf14d0aa2821c4bb84,,,,,2187,40,97,1,0,0,response1disk,,7,14,1,1,0,0,rectangle,14,1,1,0,0,7,"[97,114,208,67,292,256,265,207,252,20,172,132,84,19,119,223,205,73,38,162]",14,1,1,0,0,1,18,179,28,1,,,
,,,,,,,,,,,,,FF,,,,,,,,0.423655,,,,,,,,,,,,,,,,,,,,,,,5df3a70877f865293e86c0a0,60a7d7fbfb4fde314ca4e046,2021-05-21_17h56.22.620,Simcolourproject_2stim_asymm_v5,2020.2.10,Win32,60,60a5f9bf14d0aa2821c4bb84,,,,,2282,46,121,1,0,0,response1disk,,7,19,8,1,0,0,rectangle,19,8,1,0,0,7,"[97,114,208,67,292,256,265,207,252,20,172,132,84,19,119,223,205,73,38,162]",19,8,1,0,0,1,19,180,124,1,,,
,,,,,,,,,,,,,FF,,,,,,,,0.7709,,,,,,,,,,,,,,,,,,,,,,,5df3a70877f865293e86c0a0,60a7d7fbfb4fde314ca4e046,2021-05-21_17h56.22.620,Simcolourproject_2stim_asymm_v5,2020.2.10,Win32,60,60a5f9bf14d0aa2821c4bb84,,,,,1368,-48,114,1,0,0,response7disk,,0,-5,4,1,0,0,rectangle,-5,4,1,0,0,4,"[97,114,208,67,292,256,265,207,252,20,172,132,84,19,119,223,205,73,38,162]",-5,4,1,0,0,1,20,181,60,1,,,
,,,,,,,,,,,,,FF,,,,,,,,0.409775,,,,,,,,,,,,,,,,,,,,,,,5df3a70877f865293e86c0a0,60a7d7fbfb4fde314ca4e046,2021-05-21_17h56.22.620,Simcolourproject_2stim_asymm_v5,2020.2.10,Win32,60,60a5f9bf14d0aa2821c4bb84,,,,,4180,49,134,1,0,0,response1disk,,7,-6,9,1,0,0,rectangle,-6,9,1,0,0,1,"[97,114,208,67,292,256,265,207,252,20,172,132,84,19,119,223,205,73,38,162]",-6,9,1,0,0,1,21,182,90,1,,,
,,,,,,,,,,,,,FF,,,,,,,,0.40981,,,,,,,,,,,,,,,,,,,,,,,5df3a70877f865293e86c0a0,60a7d7fbfb4fde314ca4e046,2021-05-21_17h56.22.620,Simcolourproject_2stim_asymm_v5,2020.2.10,Win32,60,60a5f9bf14d0aa2821c4bb84,,,,,449,51,127,1,0,0,response1disk,,7,-9,-13,1,0,0,rectangle,-9,-13,1,0,0,3,"[97,114,208,67,292,256,265,207,252,20,172,132,84,19,119,223,205,73,38,162]",-9,-13,1,0,0,1,22,183,95,1,,,
,,,,,,,,,,,,,FF,,,,,,,,0.40977,,,,,,,,,,,,,,,,,,,,,,,5df3a70877f865293e86c0a0,60a7d7fbfb4fde314ca4e046,2021-05-21_17h56.22.620,Simcolourproject_2stim_asymm_v5,2020.2.10,Win32,60,60a5f9bf14d0aa2821c4bb84,,,,,4248,45,150,1,0,0,response1disk,,7,1,15,1,0,0,rectangle,1,15,1,0,0,3,"[97,114,208,67,292,256,265,207,252,20,172,132,84,19,119,223,205,73,38,162]",1,15,1,0,0,1,23,184,42,1,,,
,,,,,,,,,,,,,FF,,,,,,,,0.53481,,,,,,,,,,,,,,,,,,,,,,,5df3a70877f865293e86c0a0,60a7d7fbfb4fde314ca4e046,2021-05-21_17h56.22.620,Simcolourproject_2stim_asymm_v5,2020.2.10,Win32,60,60a5f9bf14d0aa2821c4bb84,,,,,3460,35,135,1,0,0,response1disk,,7,18,18,1,0,0,rectangle,18,18,1,0,0,0,"[97,114,208,67,292,256,265,207,252,20,172,132,84,19,119,223,205,73,38,162]",18,18,1,0,0,1,24,185,142,1,,,
,,,,,,,,,,,,,FF,,,,,,,,0.35421,,,,,,,,,,,,,,,,,,,,,,,5df3a70877f865293e86c0a0,60a7d7fbfb4fde314ca4e046,2021-05-21_17h56.22.620,Simcolourproject_2stim_asymm_v5,2020.2.10,Win32,60,60a5f9bf14d0aa2821c4bb84,,,,,2275,42,138,1,0,0,response1disk,,7,20,14,1,0,0,rectangle,20,14,1,0,0,7,"[97,114,208,67,292,256,265,207,252,20,172,132,84,19,119,223,205,73,38,162]",20,14,1,0,0,1,25,186,109,1,,,
,,,,,,,,,,,,,FF,,,,,,,,0.402835,,,,,,,,,,,,,,,,,,,,,,,5df3a70877f865293e86c0a0,60a7d7fbfb4fde314ca4e046,2021-05-21_17h56.22.620,Simcolourproject_2stim_asymm_v5,2020.2.10,Win32,60,60a5f9bf14d0aa2821c4bb84,,,,,2211,52,133,1,0,0,response1disk,,7,15,-5,1,0,0,rectangle,15,-5,1,0,0,6,"[97,114,208,67,292,256,265,207,252,20,172,132,84,19,119,223,205,73,38,162]",15,-5,1,0,0,1,26,187,107,1,,,
,,,,,,,,,,,,,FF,,,,,,,,0.486155,,,,,,,,,,,,,,,,,,,,,,,5df3a70877f865293e86c0a0,60a7d7fbfb4fde314ca4e046,2021-05-21_17h56.22.620,Simcolourproject_2stim_asymm_v5,2020.2.10,Win32,60,60a5f9bf14d0aa2821c4bb84,,,,,3053,58,140,1,0,0,response1disk,,7,17,-16,1,0,0,rectangle,17,-16,1,0,0,7,"[97,114,208,67,292,256,265,207,252,20,172,132,84,19,119,223,205,73,38,162]",17,-16,1,0,0,1,27,188,102,1,,,
,,,,,,,,,,,,,FF,,,,,,,,0.416735,,,,,,,,,,,,,,,,,,,,,,,5df3a70877f865293e86c0a0,60a7d7fbfb4fde314ca4e046,2021-05-21_17h56.22.620,Simcolourproject_2stim_asymm_v5,2020.2.10,Win32,60,60a5f9bf14d0aa2821c4bb84,,,,,1784,57,134,1,0,0,response1disk,,7,-6,0,1,0,0,rectangle,-6,0,1,0,0,1,"[97,114,208,67,292,256,265,207,252,20,172,132,84,19,119,223,205,73,38,162]",-6,0,1,0,0,1,28,189,27,1,,,
,,,,,,,,,,,,,FF,,,,,,,,0.416735,,,,,,,,,,,,,,,,,,,,,,,5df3a70877f865293e86c0a0,60a7d7fbfb4fde314ca4e046,2021-05-21_17h56.22.620,Simcolourproject_2stim_asymm_v5,2020.2.10,Win32,60,60a5f9bf14d0aa2821c4bb84,,,,,3960,65,140,1,0,0,response1disk,,7,10,12,1,0,0,rectangle,10,12,1,0,0,6,"[97,114,208,67,292,256,265,207,252,20,172,132,84,19,119,223,205,73,38,162]",10,12,1,0,0,1,29,190,108,1,,,
,,,,,,,,,,,,,FF,,,,,,,,0.36811,,,,,,,,,,,,,,,,,,,,,,,5df3a70877f865293e86c0a0,60a7d7fbfb4fde314ca4e046,2021-05-21_17h56.22.620,Simcolourproject_2stim_asymm_v5,2020.2.10,Win32,60,60a5f9bf14d0aa2821c4bb84,,,,,251,48,126,1,0,0,response1disk,,7,10,-5,1,0,0,rectangle,10,-5,1,0,0,0,"[97,114,208,67,292,256,265,207,252,20,172,132,84,19,119,223,205,73,38,162]",10,-5,1,0,0,1,30,191,149,1,,,
,,,,,,,,,,,,,FF,,,,,,,,0.37504,,,,,,,,,,,,,,,,,,,,,,,5df3a70877f865293e86c0a0,60a7d7fbfb4fde314ca4e046,2021-05-21_17h56.22.620,Simcolourproject_2stim_asymm_v5,2020.2.10,Win32,60,60a5f9bf14d0aa2821c4bb84,,,,,3716,50,135,1,0,0,response1disk,,7,-1,-10,1,0,0,rectangle,-1,-10,1,0,0,0,"[97,114,208,67,292,256,265,207,252,20,172,132,84,19,119,223,205,73,38,162]",-1,-10,1,0,0,1,31,192,18,1,,,
,,,,,,,,,,,,,FF,,,,,,,,0.375,,,,,,,,,,,,,,,,,,,,,,,5df3a70877f865293e86c0a0,60a7d7fbfb4fde314ca4e046,2021-05-21_17h56.22.620,Simcolourproject_2stim_asymm_v5,2020.2.10,Win32,60,60a5f9bf14d0aa2821c4bb84,,,,,3866,49,132,1,0,0,response1disk,,7,-2,-2,1,0,0,rectangle,-2,-2,1,0,0,4,"[97,114,208,67,292,256,265,207,252,20,172,132,84,19,119,223,205,73,38,162]",-2,-2,1,0,0,1,32,193,74,1,,,
,,,,,,,,,,,,,FF,,,,,,,,0.33346,,,,,,,,,,,,,,,,,,,,,,,5df3a70877f865293e86c0a0,60a7d7fbfb4fde314ca4e046,2021-05-21_17h56.22.620,Simcolourproject_2stim_asymm_v5,2020.2.10,Win32,60,60a5f9bf14d0aa2821c4bb84,,,,,2835,78,149,1,0,0,response1disk,,7,1,-8,1,0,0,rectangle,1,-8,1,0,0,7,"[97,114,208,67,292,256,265,207,252,20,172,132,84,19,119,223,205,73,38,162]",1,-8,1,0,0,1,33,194,114,1,,,
,,,,,,,,,,,,,FF,,,,,,,,1.23616,,,,,,,,,,,,,,,,,,,,,,,5df3a70877f865293e86c0a0,60a7d7fbfb4fde314ca4e046,2021-05-21_17h56.22.620,Simcolourproject_2stim_asymm_v5,2020.2.10,Win32,60,60a5f9bf14d0aa2821c4bb84,,,,,1688,-63,-99,1,0,0,response5disk,,3,0,-1,1,0,0,rectangle,0,-1,1,0,0,1,"[97,114,208,67,292,256,265,207,252,20,172,132,84,19,119,223,205,73,38,162]",0,-1,1,0,0,1,34,195,6,1,,,
,,,,,,,,,,,,,FF,,,,,,,,1.444515,,,,,,,,,,,,,,,,,,,,,,,5df3a70877f865293e86c0a0,60a7d7fbfb4fde314ca4e046,2021-05-21_17h56.22.620,Simcolourproject_2stim_asymm_v5,2020.2.10,Win32,60,60a5f9bf14d0aa2821c4bb84,,,,,740,74,45,1,0,0,response1disk,,6,-16,4,1,0,0,rectangle,-16,4,1,0,0,5,"[97,114,208,67,292,256,265,207,252,20,172,132,84,19,119,223,205,73,38,162]",-16,4,1,0,0,1,35,196,97,1,,,
,,,,,,,,,,,,,FF,,,,,,,,0.925155,,,,,,,,,,,,,,,,,,,,,,,5df3a70877f865293e86c0a0,60a7d7fbfb4fde314ca4e046,2021-05-21_17h56.22.620,Simcolourproject_2stim_asymm_v5,2020.2.10,Win32,60,60a5f9bf14d0aa2821c4bb84,,,,,347,48,96,1,0,0,response1disk,,7,-5,-5,1,0,0,rectangle,-5,-5,1,0,0,5,"[97,114,208,67,292,256,265,207,252,20,172,132,84,19,119,223,205,73,38,162]",-5,-5,1,0,0,1,36,197,92,1,,,
,,,,,,,,,,,,,FF,,,,,,,,0.882005,,,,,,,,,,,,,,,,,,,,,,,5df3a70877f865293e86c0a0,60a7d7fbfb4fde314ca4e046,2021-05-21_17h56.22.620,Simcolourproject_2stim_asymm_v5,2020.2.10,Win32,60,60a5f9bf14d0aa2821c4bb84,,,,,66,40,99,1,0,0,response1disk,,7,10,7,1,0,0,rectangle,10,7,1,0,0,5,"[97,114,208,67,292,256,265,207,252,20,172,132,84,19,119,223,205,73,38,162]",10,7,1,0,0,1,37,198,155,1,,,
,,,,,,,,,,,,,FF,,,,,,,,2.118205,,,,,,,,,,,,,,,,,,,,,,,5df3a70877f865293e86c0a0,60a7d7fbfb4fde314ca4e046,2021-05-21_17h56.22.620,Simcolourproject_2stim_asymm_v5,2020.2.10,Win32,60,60a5f9bf14d0aa2821c4bb84,,,,,1726,-40,-100,1,0,0,response5disk,,3,12,-15,1,0,0,rectangle,12,-15,1,0,0,2,"[97,114,208,67,292,256,265,207,252,20,172,132,84,19,119,223,205,73,38,162]",12,-15,1,0,0,1,38,199,72,1,,,
,,,,,,,,,,,,,FF,,,,,,,,0.65284,,,,,,,,,,,,,,,,,,,,,,,5df3a70877f865293e86c0a0,60a7d7fbfb4fde314ca4e046,2021-05-21_17h56.22.620,Simcolourproject_2stim_asymm_v5,2020.2.10,Win32,60,60a5f9bf14d0aa2821c4bb84,,,,,2515,45,91,1,0,0,response1disk,,7,-11,-5,1,0,0,rectangle,-11,-5,1,0,0,5,"[97,114,208,67,292,256,265,207,252,20,172,132,84,19,119,223,205,73,38,162]",-11,-5,1,0,0,1,39,200,16,1,,,
,,,,,,,,,,,,,FF,,,,,,,,1.11812,,,,,,,,,,,,,,,,,,,,,,,5df3a70877f865293e86c0a0,60a7d7fbfb4fde314ca4e046,2021-05-21_17h56.22.620,Simcolourproject_2stim_asymm_v5,2020.2.10,Win32,60,60a5f9bf14d0aa2821c4bb84,,,,,1372,43,-89,1,0,0,response3disk,,4,-12,-7,1,0,0,rectangle,-12,-7,1,0,0,1,"[97,114,208,67,292,256,265,207,252,20,172,132,84,19,119,223,205,73,38,162]",-12,-7,1,0,0,1,40,201,14,1,,,
,,,,,,,,,,,,,FF,,,,,,,,0.78479,,,,,,,,,,,,,,,,,,,,,,,5df3a70877f865293e86c0a0,60a7d7fbfb4fde314ca4e046,2021-05-21_17h56.22.620,Simcolourproject_2stim_asymm_v5,2020.2.10,Win32,60,60a5f9bf14d0aa2821c4bb84,,,,,2133,47,101,1,0,0,response1disk,,7,-6,-9,1,0,0,rectangle,-6,-9,1,0,0,1,"[97,114,208,67,292,256,265,207,252,20,172,132,84,19,119,223,205,73,38,162]",-6,-9,1,0,0,1,41,202,139,1,,,
,,,,,,,,,,,,,FF,,,,,,,,0.382035,,,,,,,,,,,,,,,,,,,,,,,5df3a70877f865293e86c0a0,60a7d7fbfb4fde314ca4e046,2021-05-21_17h56.22.620,Simcolourproject_2stim_asymm_v5,2020.2.10,Win32,60,60a5f9bf14d0aa2821c4bb84,,,,,4011,56,114,1,0,0,response1disk,,7,7,12,1,0,0,rectangle,7,12,1,0,0,7,"[97,114,208,67,292,256,265,207,252,20,172,132,84,19,119,223,205,73,38,162]",7,12,1,0,0,1,42,203,93,1,,,
,,,,,,,,,,,,,FF,,,,,,,,0.47923,,,,,,,,,,,,,,,,,,,,,,,5df3a70877f865293e86c0a0,60a7d7fbfb4fde314ca4e046,2021-05-21_17h56.22.620,Simcolourproject_2stim_asymm_v5,2020.2.10,Win32,60,60a5f9bf14d0aa2821c4bb84,,,,,2780,52,105,1,0,0,response1disk,,7,19,5,1,0,0,rectangle,53,-117,1,0,0,4,"[97,114,208,67,292,256,265,207,252,20,172,132,84,19,119,223,205,73,38,162]",7,-12,1,0,0,1,43,204,104,1,,response3disk_3,rectangle
,,,,,,,,,,,,,FF,,,,,,,,1.47231,,,,,,,,,,,,,,,,,,,,,,,5df3a70877f865293e86c0a0,60a7d7fbfb4fde314ca4e046,2021-05-21_17h56.22.620,Simcolourproject_2stim_asymm_v5,2020.2.10,Win32,60,60a5f9bf14d0aa2821c4bb84,,,,,4010,-111,-45,1,0,0,response5disk,,4,-3,9,1,0,0,rectangle,-3,9,1,0,0,4,"[97,114,208,67,292,256,265,207,252,20,172,132,84,19,119,223,205,73,38,162]",-3,9,1,0,0,1,44,205,4,1,,,
,,,,,,,,,,,,,FF,,,,,,,,0.520825,,,,,,,,,,,,,,,,,,,,,,,5df3a70877f865293e86c0a0,60a7d7fbfb4fde314ca4e046,2021-05-21_17h56.22.620,Simcolourproject_2stim_asymm_v5,2020.2.10,Win32,60,60a5f9bf14d0aa2821c4bb84,,,,,780,39,125,1,0,0,response1disk,,7,10,-13,1,0,0,rectangle,-127,-51,1,0,0,2,"[97,114,208,67,292,256,265,207,252,20,172,132,84,19,119,223,205,73,38,162]",-26,-8,1,0,0,1,45,206,89,1,,response5disk_3,rectangle
,,,,,,,,,,,,,FF,,,,,,,,1.597325,,,,,,,,,,,,,,,,,,,,,,,5df3a70877f865293e86c0a0,60a7d7fbfb4fde314ca4e046,2021-05-21_17h56.22.620,Simcolourproject_2stim_asymm_v5,2020.2.10,Win32,60,60a5f9bf14d0aa2821c4bb84,,,,,2399,-46,-82,1,0,0,response5disk,,3,-4,-4,1,0,0,rectangle,-110,-50,1,0,0,2,"[97,114,208,67,292,256,265,207,252,20,172,132,84,19,119,223,205,73,38,162]",-27,-7,1,0,0,1,46,207,136,1,,response5disk_3,rectangle
,,,,,,,,,,,,,FF,,,,,,,,3.770935,,,,,,,,,,,,,,,,,,,,,,,5df3a70877f865293e86c0a0,60a7d7fbfb4fde314ca4e046,2021-05-21_17h56.22.620,Simcolourproject_2stim_asymm_v5,2020.2.10,Win32,60,60a5f9bf14d0aa2821c4bb84,,,,,960,65,-91,1,0,0,response3disk,,4,-24,16,1,0,0,rectangle,-24,16,1,0,0,2,"[97,114,208,67,292,256,265,207,252,20,172,132,84,19,119,223,205,73,38,162]",-24,16,1,0,0,1,47,208,148,1,,,
,,,,,,,,,,,,,FF,,,,,,,,2.013935,,,,,,,,,,,,,,,,,,,,,,,5df3a70877f865293e86c0a0,60a7d7fbfb4fde314ca4e046,2021-05-21_17h56.22.620,Simcolourproject_2stim_asymm_v5,2020.2.10,Win32,60,60a5f9bf14d0aa2821c4bb84,,,,,3464,41,97,1,0,0,response1disk,,7,3,7,1,0,0,rectangle,3,7,1,0,0,5,"[97,114,208,67,292,256,265,207,252,20,172,132,84,19,119,223,205,73,38,162]",3,7,1,0,0,1,48,209,2,1,,,
,,,,,,,,,,,,,FF,,,,,,,,0.444505,,,,,,,,,,,,,,,,,,,,,,,5df3a70877f865293e86c0a0,60a7d7fbfb4fde314ca4e046,2021-05-21_17h56.22.620,Simcolourproject_2stim_asymm_v5,2020.2.10,Win32,60,60a5f9bf14d0aa2821c4bb84,,,,,3364,56,106,1,0,0,response1disk,,7,7,15,1,0,0,rectangle,7,15,1,0,0,1,"[97,114,208,67,292,256,265,207,252,20,172,132,84,19,119,223,205,73,38,162]",7,15,1,0,0,1,49,210,43,1,,,
,,,,,,,,,,,,,FF,,,,,,,,0.36809,,,,,,,,,,,,,,,,,,,,,,,5df3a70877f865293e86c0a0,60a7d7fbfb4fde314ca4e046,2021-05-21_17h56.22.620,Simcolourproject_2stim_asymm_v5,2020.2.10,Win32,60,60a5f9bf14d0aa2821c4bb84,,,,,485,56,104,1,0,0,response1disk,,7,16,20,1,0,0,rectangle,16,20,1,0,0,5,"[97,114,208,67,292,256,265,207,252,20,172,132,84,19,119,223,205,73,38,162]",16,20,1,0,0,1,50,211,76,1,,,
,,,,,,,,,,,,,FF,,,,,,,,1.4098,,,,,,,,,,,,,,,,,,,,,,,5df3a70877f865293e86c0a0,60a7d7fbfb4fde314ca4e046,2021-05-21_17h56.22.620,Simcolourproject_2stim_asymm_v5,2020.2.10,Win32,60,60a5f9bf14d0aa2821c4bb84,,,,,3472,-88,33,1,0,0,response7disk,,1,-13,3,1,0,0,rectangle,-13,3,1,0,0,3,"[97,114,208,67,292,256,265,207,252,20,172,132,84,19,119,223,205,73,38,162]",-13,3,1,0,0,1,51,212,15,1,,,
,,,,,,,,,,,,,FF,,,,,,,,1.132005,,,,,,,,,,,,,,,,,,,,,,,5df3a70877f865293e86c0a0,60a7d7fbfb4fde314ca4e046,2021-05-21_17h56.22.620,Simcolourproject_2stim_asymm_v5,2020.2.10,Win32,60,60a5f9bf14d0aa2821c4bb84,,,,,1539,39,101,1,0,0,response1disk,,7,34,16,1,0,0,rectangle,34,16,1,0,0,0,"[97,114,208,67,292,256,265,207,252,20,172,132,84,19,119,223,205,73,38,162]",34,16,1,0,0,1,52,213,39,1,,,
,,,,,,,,,,,,,FF,,,,,,,,0.3959,,,,,,,,,,,,,,,,,,,,,,,5df3a70877f865293e86c0a0,60a7d7fbfb4fde314ca4e046,2021-05-21_17h56.22.620,Simcolourproject_2stim_asymm_v5,2020.2.10,Win32,60,60a5f9bf14d0aa2821c4bb84,,,,,4328,45,127,1,0,0,response1disk,,7,17,17,1,0,0,rectangle,17,17,1,0,0,5,"[97,114,208,67,292,256,265,207,252,20,172,132,84,19,119,223,205,73,38,162]",17,17,1,0,0,1,53,214,110,1,,,
,,,,,,,,,,,,,FF,,,,,,,,0.4029,,,,,,,,,,,,,,,,,,,,,,,5df3a70877f865293e86c0a0,60a7d7fbfb4fde314ca4e046,2021-05-21_17h56.22.620,Simcolourproject_2stim_asymm_v5,2020.2.10,Win32,60,60a5f9bf14d0aa2821c4bb84,,,,,2843,39,124,1,0,0,response1disk,,7,12,-1,1,0,0,rectangle,12,-1,1,0,0,5,"[97,114,208,67,292,256,265,207,252,20,172,132,84,19,119,223,205,73,38,162]",12,-1,1,0,0,1,54,215,98,1,,,
,,,,,,,,,,,,,FF,,,,,,,,0.79867,,,,,,,,,,,,,,,,,,,,,,,5df3a70877f865293e86c0a0,60a7d7fbfb4fde314ca4e046,2021-05-21_17h56.22.620,Simcolourproject_2stim_asymm_v5,2020.2.10,Win32,60,60a5f9bf14d0aa2821c4bb84,,,,,1363,49,116,1,0,0,response1disk,,7,15,4,1,0,0,rectangle,15,4,1,0,0,7,"[97,114,208,67,292,256,265,207,252,20,172,132,84,19,119,223,205,73,38,162]",15,4,1,0,0,1,55,216,94,1,,,
,,,,,,,,,,,,,FF,,,,,,,,0.94447,,,,,,,,,,,,,,,,,,,,,,,5df3a70877f865293e86c0a0,60a7d7fbfb4fde314ca4e046,2021-05-21_17h56.22.620,Simcolourproject_2stim_asymm_v5,2020.2.10,Win32,60,60a5f9bf14d0aa2821c4bb84,,,,,273,48,125,1,0,0,response1disk,,7,13,16,1,0,0,rectangle,13,16,1,0,0,3,"[97,114,208,67,292,256,265,207,252,20,172,132,84,19,119,223,205,73,38,162]",13,16,1,0,0,1,56,217,143,1,,,
,,,,,,,,,,,,,FF,,,,,,,,0.340335,,,,,,,,,,,,,,,,,,,,,,,5df3a70877f865293e86c0a0,60a7d7fbfb4fde314ca4e046,2021-05-21_17h56.22.620,Simcolourproject_2stim_asymm_v5,2020.2.10,Win32,60,60a5f9bf14d0aa2821c4bb84,,,,,3183,56,119,1,0,0,response1disk,,7,8,9,1,0,0,rectangle,8,9,1,0,0,2,"[97,114,208,67,292,256,265,207,252,20,172,132,84,19,119,223,205,73,38,162]",8,9,1,0,0,1,57,218,49,1,,,
,,,,,,,,,,,,,FF,,,,,,,,0.66674,,,,,,,,,,,,,,,,,,,,,,,5df3a70877f865293e86c0a0,60a7d7fbfb4fde314ca4e046,2021-05-21_17h56.22.620,Simcolourproject_2stim_asymm_v5,2020.2.10,Win32,60,60a5f9bf14d0aa2821c4bb84,,,,,1742,52,109,1,0,0,response1disk,,7,16,9,1,0,0,rectangle,16,9,1,0,0,4,"[97,114,208,67,292,256,265,207,252,20,172,132,84,19,119,223,205,73,38,162]",16,9,1,0,0,1,58,219,56,1,,,
,,,,,,,,,,,,,FF,,,,,,,,0.45143,,,,,,,,,,,,,,,,,,,,,,,5df3a70877f865293e86c0a0,60a7d7fbfb4fde314ca4e046,2021-05-21_17h56.22.620,Simcolourproject_2stim_asymm_v5,2020.2.10,Win32,60,60a5f9bf14d0aa2821c4bb84,,,,,1178,67,135,1,0,0,response1disk,,7,35,2,1,0,0,rectangle,35,2,1,0,0,2,"[97,114,208,67,292,256,265,207,252,20,172,132,84,19,119,223,205,73,38,162]",35,2,1,0,0,1,59,220,159,1,,,
,,,,,,,,,,,,,FF,,,,,,,,0.916695,,,,,,,,,,,,,,,,,,,,,,,5df3a70877f865293e86c0a0,60a7d7fbfb4fde314ca4e046,2021-05-21_17h56.22.620,Simcolourproject_2stim_asymm_v5,2020.2.10,Win32,60,60a5f9bf14d0aa2821c4bb84,,,,,1383,57,-92,1,0,0,response3disk,,4,-9,8,1,0,0,rectangle,-9,8,1,0,0,6,"[97,114,208,67,292,256,265,207,252,20,172,132,84,19,119,223,205,73,38,162]",-9,8,1,0,0,1,60,221,152,1,,,
,,,,,,,,,,,,,FF,,,,,,,,1.034825,,,,,,,,,,,,,,,,,,,,,,,5df3a70877f865293e86c0a0,60a7d7fbfb4fde314ca4e046,2021-05-21_17h56.22.620,Simcolourproject_2stim_asymm_v5,2020.2.10,Win32,60,60a5f9bf14d0aa2821c4bb84,,,,,263,-114,-61,1,0,0,response5disk,,4,5,17,1,0,0,rectangle,-70,157,1,0,0,0,"[97,114,208,67,292,256,265,207,252,20,172,132,84,19,119,223,205,73,38,162]",-16,9,1,0,0,1,61,222,70,1,,response7disk_3,rectangle
,,,,,,,,,,,,,FF,,,,,,,,0.771545,,,,,,,,,,,,,,,,,,,,,,,5df3a70877f865293e86c0a0,60a7d7fbfb4fde314ca4e046,2021-05-21_17h56.22.620,Simcolourproject_2stim_asymm_v5,2020.2.10,Win32,60,60a5f9bf14d0aa2821c4bb84,,,,,1524,52,112,1,0,0,response1disk,,7,17,2,1,0,0,rectangle,17,2,1,0,0,5,"[97,114,208,67,292,256,265,207,252,20,172,132,84,19,119,223,205,73,38,162]",17,2,1,0,0,1,62,223,11,1,,,
,,,,,,,,,,,,,FF,,,,,,,,0.645855,,,,,,,,,,,,,,,,,,,,,,,5df3a70877f865293e86c0a0,60a7d7fbfb4fde314ca4e046,2021-05-21_17h56.22.620,Simcolourproject_2stim_asymm_v5,2020.2.10,Win32,60,60a5f9bf14d0aa2821c4bb84,,,,,4340,45,131,1,0,0,response1disk,,7,15,16,1,0,0,rectangle,15,16,1,0,0,3,"[97,114,208,67,292,256,265,207,252,20,172,132,84,19,119,223,205,73,38,162]",15,16,1,0,0,1,63,224,26,1,,,
,,,,,,,,,,,,,FF,,,,,,,,0.342265,,,,,,,,,,,,,,,,,,,,,,,5df3a70877f865293e86c0a0,60a7d7fbfb4fde314ca4e046,2021-05-21_17h56.22.620,Simcolourproject_2stim_asymm_v5,2020.2.10,Win32,60,60a5f9bf14d0aa2821c4bb84,,,,,3118,38,118,1,0,0,response1disk,,7,-8,5,1,0,0,rectangle,-8,5,1,0,0,2,"[97,114,208,67,292,256,265,207,252,20,172,132,84,19,119,223,205,73,38,162]",-8,5,1,0,0,1,64,225,154,1,,,
,,,,,,,,,,,,,FF,,,,,,,,1.090335,,,,,,,,,,,,,,,,,,,,,,,5df3a70877f865293e86c0a0,60a7d7fbfb4fde314ca4e046,2021-05-21_17h56.22.620,Simcolourproject_2stim_asymm_v5,2020.2.10,Win32,60,60a5f9bf14d0aa2821c4bb84,,,,,3511,-43,-81,1,0,0,response5disk,,3,14,9,1,0,0,rectangle,14,9,1,0,0,6,"[97,114,208,67,292,256,265,207,252,20,172,132,84,19,119,223,205,73,38,162]",14,9,1,0,0,1,65,226,57,1,,,
,,,,,,,,,,,,,FF,,,,,,,,2.03476,,,,,,,,,,,,,,,,,,,,,,,5df3a70877f865293e86c0a0,60a7d7fbfb4fde314ca4e046,2021-05-21_17h56.22.620,Simcolourproject_2stim_asymm_v5,2020.2.10,Win32,60,60a5f9bf14d0aa2821c4bb84,,,,,1465,121,-60,1,0,0,response3disk,,5,20,-3,1,0,0,rectangle,20,-3,1,0,0,1,"[97,114,208,67,292,256,265,207,252,20,172,132,84,19,119,223,205,73,38,162]",20,-3,1,0,0,1,66,227,46,1,,,
,,,,,,,,,,,,,FF,,,,,,,,0.84033,,,,,,,,,,,,,,,,,,,,,,,5df3a70877f865293e86c0a0,60a7d7fbfb4fde314ca4e046,2021-05-21_17h56.22.620,Simcolourproject_2stim_asymm_v5,2020.2.10,Win32,60,60a5f9bf14d0aa2821c4bb84,,,,,1979,65,129,1,0,0,response1disk,,7,-16,-5,1,0,0,rectangle,-16,-5,1,0,0,1,"[97,114,208,67,292,256,265,207,252,20,172,132,84,19,119,223,205,73,38,162]",-16,-5,1,0,0,1,67,228,75,1,,,
,,,,,,,,,,,,,FF,,,,,,,,0.47927,,,,,,,,,,,,,,,,,,,,,,,5df3a70877f865293e86c0a0,60a7d7fbfb4fde314ca4e046,2021-05-21_17h56.22.620,Simcolourproject_2stim_asymm_v5,2020.2.10,Win32,60,60a5f9bf14d0aa2821c4bb84,,,,,30,48,145,1,0,0,response1disk,,7,32,4,1,0,0,rectangle,32,4,1,0,0,4,"[97,114,208,67,292,256,265,207,252,20,172,132,84,19,119,223,205,73,38,162]",32,4,1,0,0,1,68,229,55,1,,,
,,,,,,,,,,,,,FF,,,,,,,,0.37504,,,,,,,,,,,,,,,,,,,,,,,5df3a70877f865293e86c0a0,60a7d7fbfb4fde314ca4e046,2021-05-21_17h56.22.620,Simcolourproject_2stim_asymm_v5,2020.2.10,Win32,60,60a5f9bf14d0aa2821c4bb84,,,,,2643,79,140,1,0,0,response1disk,,7,10,6,1,0,0,rectangle,10,6,1,0,0,4,"[97,114,208,67,292,256,265,207,252,20,172,132,84,19,119,223,205,73,38,162]",10,6,1,0,0,1,69,230,103,1,,,
,,,,,,,,,,,,,FF,,,,,,,,0.798725,,,,,,,,,,,,,,,,,,,,,,,5df3a70877f865293e86c0a0,60a7d7fbfb4fde314ca4e046,2021-05-21_17h56.22.620,Simcolourproject_2stim_asymm_v5,2020.2.10,Win32,60,60a5f9bf14d0aa2821c4bb84,,,,,4225,-70,135,1,0,0,response7disk,,0,7,7,1,0,0,rectangle,7,7,1,0,0,3,"[97,114,208,67,292,256,265,207,252,20,172,132,84,19,119,223,205,73,38,162]",7,7,1,0,0,1,70,231,144,1,,,
,,,,,,,,,,,,,FF,,,,,,,,0.4028,,,,,,,,,,,,,,,,,,,,,,,5df3a70877f865293e86c0a0,60a7d7fbfb4fde314ca4e046,2021-05-21_17h56.22.620,Simcolourproject_2stim_asymm_v5,2020.2.10,Win32,60,60a5f9bf14d0aa2821c4bb84,,,,,2651,85,136,1,0,0,response1disk,,7,-4,-6,1,0,0,rectangle,-4,-6,1,0,0,3,"[97,114,208,67,292,256,265,207,252,20,172,132,84,19,119,223,205,73,38,162]",-4,-6,1,0,0,1,71,232,134,1,,,
,,,,,,,,,,,,,FF,,,,,,,,1.92371,,,,,,,,,,,,,,,,,,,,,,,5df3a70877f865293e86c0a0,60a7d7fbfb4fde314ca4e046,2021-05-21_17h56.22.620,Simcolourproject_2stim_asymm_v5,2020.2.10,Win32,60,60a5f9bf14d0aa2821c4bb84,,,,,3699,106,-54,1,0,0,response3disk,,5,-29,2,1,0,0,rectangle,-29,2,1,0,0,3,"[97,114,208,67,292,256,265,207,252,20,172,132,84,19,119,223,205,73,38,162]",-29,2,1,0,0,1,72,233,12,1,,,
,,,,,,,,,,,,,FF,,,,,,,,0.979255,,,,,,,,,,,,,,,,,,,,,,,5df3a70877f865293e86c0a0,60a7d7fbfb4fde314ca4e046,2021-05-21_17h56.22.620,Simcolourproject_2stim_asymm_v5,2020.2.10,Win32,60,60a5f9bf14d0aa2821c4bb84,,,,,630,-46,110,1,0,0,response7disk,,0,4,-10,1,0,0,rectangle,4,-10,1,0,0,4,"[97,114,208,67,292,256,265,207,252,20,172,132,84,19,119,223,205,73,38,162]",4,-10,1,0,0,1,73,234,66,1,,,
,,,,,,,,,,,,,FF,,,,,,,,1.14589,,,,,,,,,,,,,,,,,,,,,,,5df3a70877f865293e86c0a0,60a7d7fbfb4fde314ca4e046,2021-05-21_17h56.22.620,Simcolourproject_2stim_asymm_v5,2020.2.10,Win32,60,60a5f9bf14d0aa2821c4bb84,,,,,1772,53,79,1,0,0,response1disk,,7,2,-7,1,0,0,rectangle,2,-7,1,0,0,6,"[97,114,208,67,292,256,265,207,252,20,172,132,84,19,119,223,205,73,38,162]",2,-7,1,0,0,1,74,235,113,1,,,
,,,,,,,,,,,,,FF,,,,,,,,2.680605,,,,,,,,,,,,,,,,,,,,,,,5df3a70877f865293e86c0a0,60a7d7fbfb4fde314ca4e046,2021-05-21_17h56.22.620,Simcolourproject_2stim_asymm_v5,2020.2.10,Win32,60,60a5f9bf14d0aa2821c4bb84,,,,,1067,111,50,1,0,0,response1disk,,6,-14,-13,1,0,0,rectangle,-14,-13,1,0,0,1,"[97,114,208,67,292,256,265,207,252,20,172,132,84,19,119,223,205,73,38,162]",-14,-13,1,0,0,1,75,236,25,1,,,
,,,,,,,,,,,,,FF,,,,,,,,0.882055,,,,,,,,,,,,,,,,,,,,,,,5df3a70877f865293e86c0a0,60a7d7fbfb4fde314ca4e046,2021-05-21_17h56.22.620,Simcolourproject_2stim_asymm_v5,2020.2.10,Win32,60,60a5f9bf14d0aa2821c4bb84,,,,,2375,43,93,1,0,0,response1disk,,7,3,9,1,0,0,rectangle,3,9,1,0,0,3,"[97,114,208,67,292,256,265,207,252,20,172,132,84,19,119,223,205,73,38,162]",3,9,1,0,0,1,76,237,116,1,,,
,,,,,,,,,,,,,FF,,,,,,,,0.409795,,,,,,,,,,,,,,,,,,,,,,,5df3a70877f865293e86c0a0,60a7d7fbfb4fde314ca4e046,2021-05-21_17h56.22.620,Simcolourproject_2stim_asymm_v5,2020.2.10,Win32,60,60a5f9bf14d0aa2821c4bb84,,,,,3710,46,103,1,0,0,response1disk,,7,-4,-11,1,0,0,rectangle,-4,-11,1,0,0,5,"[97,114,208,67,292,256,265,207,252,20,172,132,84,19,119,223,205,73,38,162]",-4,-11,1,0,0,1,77,238,99,1,,,
,,,,,,,,,,,,,FF,,,,,,,,0.625035,,,,,,,,,,,,,,,,,,,,,,,5df3a70877f865293e86c0a0,60a7d7fbfb4fde314ca4e046,2021-05-21_17h56.22.620,Simcolourproject_2stim_asymm_v5,2020.2.10,Win32,60,60a5f9bf14d0aa2821c4bb84,,,,,827,36,85,1,0,0,response1disk,,7,3,-7,1,0,0,rectangle,3,-7,1,0,0,7,"[97,114,208,67,292,256,265,207,252,20,172,132,84,19,119,223,205,73,38,162]",3,-7,1,0,0,1,78,239,145,1,,,
,,,,,,,,,,,,,FF,,,,,,,,0.43756,,,,,,,,,,,,,,,,,,,,,,,5df3a70877f865293e86c0a0,60a7d7fbfb4fde314ca4e046,2021-05-21_17h56.22.620,Simcolourproject_2stim_asymm_v5,2020.2.10,Win32,60,60a5f9bf14d0aa2821c4bb84,,,,,1845,56,114,1,0,0,response1disk,,7,2,8,1,0,0,rectangle,2,8,1,0,0,3,"[97,114,208,67,292,256,265,207,252,20,172,132,84,19,119,223,205,73,38,162]",2,8,1,0,0,1,79,240,146,1,,,
,,,,,,,,,,,,,FF,,,,,,,,0.875025,,,,,,,,,,,,,,,,,,,,,,,5df3a70877f865293e86c0a0,60a7d7fbfb4fde314ca4e046,2021-05-21_17h56.22.620,Simcolourproject_2stim_asymm_v5,2020.2.10,Win32,60,60a5f9bf14d0aa2821c4bb84,,,,,552,47,106,1,0,0,response1disk,,7,12,-4,1,0,0,rectangle,12,-4,1,0,0,7,"[97,114,208,67,292,256,265,207,252,20,172,132,84,19,119,223,205,73,38,162]",12,-4,1,0,0,1,80,241,77,1,,,
,,,,,,,,,,,,,FF,,,,,,,,0.361155,,,,,,,,,,,,,,,,,,,,,,,5df3a70877f865293e86c0a0,60a7d7fbfb4fde314ca4e046,2021-05-21_17h56.22.620,Simcolourproject_2stim_asymm_v5,2020.2.10,Win32,60,60a5f9bf14d0aa2821c4bb84,,,,,85,40,116,1,0,0,response1disk,,7,4,8,1,0,0,rectangle,4,8,1,0,0,3,"[97,114,208,67,292,256,265,207,252,20,172,132,84,19,119,223,205,73,38,162]",4,8,1,0,0,1,81,242,83,1,,,
,,,,,,,,,,,,,FF,,,,,,,,0.49984,,,,,,,,,,,,,,,,,,,,,,,5df3a70877f865293e86c0a0,60a7d7fbfb4fde314ca4e046,2021-05-21_17h56.22.620,Simcolourproject_2stim_asymm_v5,2020.2.10,Win32,60,60a5f9bf14d0aa2821c4bb84,,,,,3855,65,138,1,0,0,response1disk,,7,18,16,1,0,0,rectangle,18,16,1,0,0,3,"[97,114,208,67,292,256,265,207,252,20,172,132,84,19,119,223,205,73,38,162]",18,16,1,0,0,1,82,243,9,1,,,
,,,,,,,,,,,,,FF,,,,,,,,1.57648,,,,,,,,,,,,,,,,,,,,,,,5df3a70877f865293e86c0a0,60a7d7fbfb4fde314ca4e046,2021-05-21_17h56.22.620,Simcolourproject_2stim_asymm_v5,2020.2.10,Win32,60,60a5f9bf14d0aa2821c4bb84,,,,,525,-112,-31,1,0,0,response5disk,,7,-12,6,1,0,0,rectangle,-12,6,1,0,0,7,"[97,114,208,67,292,256,265,207,252,20,172,132,84,19,119,223,205,73,38,162]",-12,6,1,0,0,1,83,244,150,1,,,
,,,,,,,,,,,,,FF,,,,,,,,0.784815,,,,,,,,,,,,,,,,,,,,,,,5df3a70877f865293e86c0a0,60a7d7fbfb4fde314ca4e046,2021-05-21_17h56.22.620,Simcolourproject_2stim_asymm_v5,2020.2.10,Win32,60,60a5f9bf14d0aa2821c4bb84,,,,,1911,41,99,1,0,0,response1disk,,7,-3,7,1,0,0,rectangle,-3,7,1,0,0,5,"[97,114,208,67,292,256,265,207,252,20,172,132,84,19,119,223,205,73,38,162]",-3,7,1,0,0,1,84,245,63,1,,,
,,,,,,,,,,,,,FF,,,,,,,,0.854145,,,,,,,,,,,,,,,,,,,,,,,5df3a70877f865293e86c0a0,60a7d7fbfb4fde314ca4e046,2021-05-21_17h56.22.620,Simcolourproject_2stim_asymm_v5,2020.2.10,Win32,60,60a5f9bf14d0aa2821c4bb84,,,,,443,-118,48,1,0,0,response7disk,,1,-1,5,1,0,0,rectangle,-1,5,1,0,0,2,"[97,114,208,67,292,256,265,207,252,20,172,132,84,19,119,223,205,73,38,162]",-1,5,1,0,0,1,85,246,59,1,,,
,,,,,,,,,,,,,FF,,,,,,,,0.458615,,,,,,,,,,,,,,,,,,,,,,,5df3a70877f865293e86c0a0,60a7d7fbfb4fde314ca4e046,2021-05-21_17h56.22.620,Simcolourproject_2stim_asymm_v5,2020.2.10,Win32,60,60a5f9bf14d0aa2821c4bb84,,,,,2987,58,118,1,0,0,response1disk,,7,-6,-1,1,0,0,rectangle,-6,-1,1,0,0,3,"[97,114,208,67,292,256,265,207,252,20,172,132,84,19,119,223,205,73,38,162]",-6,-1,1,0,0,1,86,247,0,1,,,
,,,,,,,,,,,,,FF,,,,,,,,0.375035,,,,,,,,,,,,,,,,,,,,,,,5df3a70877f865293e86c0a0,60a7d7fbfb4fde314ca4e046,2021-05-21_17h56.22.620,Simcolourproject_2stim_asymm_v5,2020.2.10,Win32,60,60a5f9bf14d0aa2821c4bb84,,,,,2787,46,126,1,0,0,response1disk,,7,-11,15,1,0,0,rectangle,-11,15,1,0,0,6,"[97,114,208,67,292,256,265,207,252,20,172,132,84,19,119,223,205,73,38,162]",-11,15,1,0,0,1,87,248,115,1,,,
,,,,,,,,,,,,,FF,,,,,,,,1.132035,,,,,,,,,,,,,,,,,,,,,,,5df3a70877f865293e86c0a0,60a7d7fbfb4fde314ca4e046,2021-05-21_17h56.22.620,Simcolourproject_2stim_asymm_v5,2020.2.10,Win32,60,60a5f9bf14d0aa2821c4bb84,,,,,2012,36,105,1,0,0,response1disk,,7,2,9,1,0,0,rectangle,2,9,1,0,0,6,"[97,114,208,67,292,256,265,207,252,20,172,132,84,19,119,223,205,73,38,162]",2,9,1,0,0,1,88,249,71,1,,,
