key_resp.keys,key_resp.rt,key_resp_14.keys,key_resp_14.rt,key_resp_15.keys,key_resp_15.rt,key_resp_17.keys,key_resp_17.rt,key_resp_9.keys,key_resp_9.rt,key_resp_10.keys,key_resp_10.rt,practice_comparison,Ecc,mouse_5.x,mouse_5.y,mouse_5.leftButton,mouse_5.midButton,mouse_5.rightButton,mouse_5.clicked_name,pracsimilarity,response_time,mouse_10.x,mouse_10.y,mouse_10.leftButton,mouse_10.midButton,mouse_10.rightButton,mouse_10.clicked_name,mouse_7.x,mouse_7.y,mouse_7.leftButton,mouse_7.midButton,mouse_7.rightButton,catchnumberprac,mouse_6.x,mouse_6.y,mouse_6.leftButton,mouse_6.midButton,mouse_6.rightButton,duringprac.thisRepN,duringprac.thisTrialN,duringprac.thisN,duringprac.thisIndex,duringprac.ran,participant,session,date,expName,psychopyVersion,OS,frameRate,study_id,mouse_7.clicked_name,mouse_6.clicked_name,key_resp_22.keys,key_resp_22.rt,realcomparison,mouse.x,mouse.y,mouse.leftButton,mouse.midButton,mouse.rightButton,mouse.clicked_name,Colour2,similarity,mouse_2.x,mouse_2.y,mouse_2.leftButton,mouse_2.midButton,mouse_2.rightButton,mouse_2.clicked_name,mouse_3.x,mouse_3.y,mouse_3.leftButton,mouse_3.midButton,mouse_3.rightButton,catchnumber,catchtrialorder,mouse_11.x,mouse_11.y,mouse_11.leftButton,mouse_11.midButton,mouse_11.rightButton,trials_2.thisRepN,trials_2.thisTrialN,trials_2.thisN,trials_2.thisIndex,trials_2.ran,Colour1,mouse_3.clicked_name,mouse_11.clicked_name
space,2.35038,space,2.33229,space,6.718945,space,4.78895,space,1.100245,space,1.650425,136,FF,163,54,1,0,0,response1disk_5,6,3.15186,-43,-5,1,0,0,rectangle_8,-43,-5,1,0,0,4,-43,-5,1,0,0,0,0,0,5,1,5ed77f0ef8efa803b4086a89,60a7d7fc4ee33faed7ff28cb,2021-05-21_16h56.05.967,Simcolourproject_2stim_asymm_v5,2020.2.10,Win32,60,60a5f9bf14d0aa2821c4bb84,,,,,,,,,,,,,,,,,,,,,,,,,,,,,,,,,,,,,,,
,,,,,,,,,,,,128,PF,-66,-193,1,0,0,response5disk_5,3,2.77123,-4,4,1,0,0,rectangle_8,62,-156,1,0,0,4,-7,0,1,0,0,0,1,1,4,1,5ed77f0ef8efa803b4086a89,60a7d7fc4ee33faed7ff28cb,2021-05-21_16h56.05.967,Simcolourproject_2stim_asymm_v5,2020.2.10,Win32,60,60a5f9bf14d0aa2821c4bb84,response3disk_7,rectangle_4,,,,,,,,,,,,,,,,,,,,,,,,,,,,,,,,,,,,,
,,,,,,,,,,,,29,PF,-132,74,1,0,0,response7disk_5,1,2.78656,5,9,1,0,0,rectangle_8,5,9,1,0,0,4,5,9,1,0,0,0,2,2,6,1,5ed77f0ef8efa803b4086a89,60a7d7fc4ee33faed7ff28cb,2021-05-21_16h56.05.967,Simcolourproject_2stim_asymm_v5,2020.2.10,Win32,60,60a5f9bf14d0aa2821c4bb84,,,,,,,,,,,,,,,,,,,,,,,,,,,,,,,,,,,,,,,
,,,,,,,,,,,,106,PF,91,-168,1,0,0,response3disk_5,4,1.449485,2,15,1,0,0,rectangle_8,72,-170,1,0,0,4,-6,3,1,0,0,0,3,3,2,1,5ed77f0ef8efa803b4086a89,60a7d7fc4ee33faed7ff28cb,2021-05-21_16h56.05.967,Simcolourproject_2stim_asymm_v5,2020.2.10,Win32,60,60a5f9bf14d0aa2821c4bb84,response3disk_7,rectangle_4,,,,,,,,,,,,,,,,,,,,,,,,,,,,,,,,,,,,,
,,,,,,,,,,,,149,FF,135,53,1,0,0,response1disk_5,6,2.293655,3,-13,1,0,0,rectangle_8,3,-13,1,0,0,4,3,-13,1,0,0,0,4,4,0,1,5ed77f0ef8efa803b4086a89,60a7d7fc4ee33faed7ff28cb,2021-05-21_16h56.05.967,Simcolourproject_2stim_asymm_v5,2020.2.10,Win32,60,60a5f9bf14d0aa2821c4bb84,,,,,,,,,,,,,,,,,,,,,,,,,,,,,,,,,,,,,,,
,,,,,,,,,,,,101,PF,-86,-110,1,0,0,response5disk_5,3,2.66404,5,16,1,0,0,rectangle_8,5,16,1,0,0,4,5,16,1,0,0,0,5,5,1,1,5ed77f0ef8efa803b4086a89,60a7d7fc4ee33faed7ff28cb,2021-05-21_16h56.05.967,Simcolourproject_2stim_asymm_v5,2020.2.10,Win32,60,60a5f9bf14d0aa2821c4bb84,,,,,,,,,,,,,,,,,,,,,,,,,,,,,,,,,,,,,,,
,,,,,,,,,,,,97,FF,-146,40,1,0,0,response7disk_5,1,1.4013,-48,-22,1,0,0,rectangle_8,-48,-22,1,0,0,4,-48,-22,1,0,0,0,6,6,3,1,5ed77f0ef8efa803b4086a89,60a7d7fc4ee33faed7ff28cb,2021-05-21_16h56.05.967,Simcolourproject_2stim_asymm_v5,2020.2.10,Win32,60,60a5f9bf14d0aa2821c4bb84,,,,,,,,,,,,,,,,,,,,,,,,,,,,,,,,,,,,,,,
,,,,,,,,,,,,,FF,,,,,,,,2.844485,,,,,,,,,,,,,,,,,,,,,,,5ed77f0ef8efa803b4086a89,60a7d7fc4ee33faed7ff28cb,2021-05-21_16h56.05.967,Simcolourproject_2stim_asymm_v5,2020.2.10,Win32,60,60a5f9bf14d0aa2821c4bb84,,,space,1.984775,4144,-144,-72,1,0,0,response5disk,,1,-27,-6,1,0,0,rectangle,-27,-6,1,0,0,6,"[237,321,218,34,81,157,256,219,163,148,120,202,144,77,38,217,254,165,68,223]",-27,-6,1,0,0,0,0,0,1,1,,,
,,,,,,,,,,,,,FF,,,,,,,,1.515245,,,,,,,,,,,,,,,,,,,,,,,5ed77f0ef8efa803b4086a89,60a7d7fc4ee33faed7ff28cb,2021-05-21_16h56.05.967,Simcolourproject_2stim_asymm_v5,2020.2.10,Win32,60,60a5f9bf14d0aa2821c4bb84,,,,,2765,74,-137,1,0,0,response3disk,,4,4,12,1,0,0,rectangle,4,12,1,0,0,6,"[237,321,218,34,81,157,256,219,163,148,120,202,144,77,38,217,254,165,68,223]",4,12,1,0,0,0,1,1,160,1,,,
,,,,,,,,,,,,,FF,,,,,,,,1.056365,,,,,,,,,,,,,,,,,,,,,,,5ed77f0ef8efa803b4086a89,60a7d7fc4ee33faed7ff28cb,2021-05-21_16h56.05.967,Simcolourproject_2stim_asymm_v5,2020.2.10,Win32,60,60a5f9bf14d0aa2821c4bb84,,,,,1750,-68,127,1,0,0,response7disk,,0,21,2,1,0,0,rectangle,21,2,1,0,0,3,"[237,321,218,34,81,157,256,219,163,148,120,202,144,77,38,217,254,165,68,223]",21,2,1,0,0,0,2,2,52,1,,,
,,,,,,,,,,,,,FF,,,,,,,,1.634315,,,,,,,,,,,,,,,,,,,,,,,5ed77f0ef8efa803b4086a89,60a7d7fc4ee33faed7ff28cb,2021-05-21_16h56.05.967,Simcolourproject_2stim_asymm_v5,2020.2.10,Win32,60,60a5f9bf14d0aa2821c4bb84,,,,,1192,-107,-216,1,0,0,response5disk,,3,28,-18,1,0,0,rectangle,28,-18,1,0,0,7,"[237,321,218,34,81,157,256,219,163,148,120,202,144,77,38,217,254,165,68,223]",28,-18,1,0,0,0,3,3,150,1,,,
,,,,,,,,,,,,,FF,,,,,,,,1.17001,,,,,,,,,,,,,,,,,,,,,,,5ed77f0ef8efa803b4086a89,60a7d7fc4ee33faed7ff28cb,2021-05-21_16h56.05.967,Simcolourproject_2stim_asymm_v5,2020.2.10,Win32,60,60a5f9bf14d0aa2821c4bb84,,,,,4351,-111,80,1,0,0,response7disk,,1,-24,4,1,0,0,rectangle,-24,4,1,0,0,6,"[237,321,218,34,81,157,256,219,163,148,120,202,144,77,38,217,254,165,68,223]",-24,4,1,0,0,0,4,4,34,1,,,
,,,,,,,,,,,,,FF,,,,,,,,1.133615,,,,,,,,,,,,,,,,,,,,,,,5ed77f0ef8efa803b4086a89,60a7d7fc4ee33faed7ff28cb,2021-05-21_16h56.05.967,Simcolourproject_2stim_asymm_v5,2020.2.10,Win32,60,60a5f9bf14d0aa2821c4bb84,,,,,536,-84,-157,1,0,0,response5disk,,3,55,-10,1,0,0,rectangle,55,-10,1,0,0,3,"[237,321,218,34,81,157,256,219,163,148,120,202,144,77,38,217,254,165,68,223]",55,-10,1,0,0,0,5,5,84,1,,,
,,,,,,,,,,,,,FF,,,,,,,,2.08576,,,,,,,,,,,,,,,,,,,,,,,5ed77f0ef8efa803b4086a89,60a7d7fc4ee33faed7ff28cb,2021-05-21_16h56.05.967,Simcolourproject_2stim_asymm_v5,2020.2.10,Win32,60,60a5f9bf14d0aa2821c4bb84,,,,,1834,-169,-105,1,0,0,response5disk,,3,17,-3,1,0,0,rectangle,17,-3,1,0,0,1,"[237,321,218,34,81,157,256,219,163,148,120,202,144,77,38,217,254,165,68,223]",17,-3,1,0,0,0,6,6,145,1,,,
,,,,,,,,,,,,,FF,,,,,,,,1.751125,,,,,,,,,,,,,,,,,,,,,,,5ed77f0ef8efa803b4086a89,60a7d7fc4ee33faed7ff28cb,2021-05-21_16h56.05.967,Simcolourproject_2stim_asymm_v5,2020.2.10,Win32,60,60a5f9bf14d0aa2821c4bb84,,,,,1279,-109,55,1,0,0,response7disk,,1,-22,-9,1,0,0,rectangle,-22,-9,1,0,0,5,"[237,321,218,34,81,157,256,219,163,148,120,202,144,77,38,217,254,165,68,223]",-22,-9,1,0,0,0,7,7,133,1,,,
,,,,,,,,,,,,,FF,,,,,,,,1.092265,,,,,,,,,,,,,,,,,,,,,,,5ed77f0ef8efa803b4086a89,60a7d7fc4ee33faed7ff28cb,2021-05-21_16h56.05.967,Simcolourproject_2stim_asymm_v5,2020.2.10,Win32,60,60a5f9bf14d0aa2821c4bb84,,,,,1597,-149,70,1,0,0,response7disk,,1,-10,-18,1,0,0,rectangle,-10,-18,1,0,0,5,"[237,321,218,34,81,157,256,219,163,148,120,202,144,77,38,217,254,165,68,223]",-10,-18,1,0,0,0,8,8,98,1,,,
,,,,,,,,,,,,,FF,,,,,,,,1.24024,,,,,,,,,,,,,,,,,,,,,,,5ed77f0ef8efa803b4086a89,60a7d7fc4ee33faed7ff28cb,2021-05-21_16h56.05.967,Simcolourproject_2stim_asymm_v5,2020.2.10,Win32,60,60a5f9bf14d0aa2821c4bb84,,,,,1781,128,-102,1,0,0,response3disk,,5,31,1,1,0,0,rectangle,31,1,1,0,0,5,"[237,321,218,34,81,157,256,219,163,148,120,202,144,77,38,217,254,165,68,223]",31,1,1,0,0,0,9,9,65,1,,,
,,,,,,,,,,,,,FF,,,,,,,,1.336875,,,,,,,,,,,,,,,,,,,,,,,5ed77f0ef8efa803b4086a89,60a7d7fc4ee33faed7ff28cb,2021-05-21_16h56.05.967,Simcolourproject_2stim_asymm_v5,2020.2.10,Win32,60,60a5f9bf14d0aa2821c4bb84,,,,,4154,68,49,1,0,0,response1disk,,6,-29,-19,1,0,0,rectangle,-29,-19,1,0,0,7,"[237,321,218,34,81,157,256,219,163,148,120,202,144,77,38,217,254,165,68,223]",-29,-19,1,0,0,0,10,10,18,1,,,
,,,,,,,,,,,,,FF,,,,,,,,1.103355,,,,,,,,,,,,,,,,,,,,,,,5ed77f0ef8efa803b4086a89,60a7d7fc4ee33faed7ff28cb,2021-05-21_16h56.05.967,Simcolourproject_2stim_asymm_v5,2020.2.10,Win32,60,60a5f9bf14d0aa2821c4bb84,,,,,4338,-141,70,1,0,0,response7disk,,1,20,-22,1,0,0,rectangle,20,-22,1,0,0,1,"[237,321,218,34,81,157,256,219,163,148,120,202,144,77,38,217,254,165,68,223]",20,-22,1,0,0,0,11,11,143,1,,,
,,,,,,,,,,,,,FF,,,,,,,,1.50889,,,,,,,,,,,,,,,,,,,,,,,5ed77f0ef8efa803b4086a89,60a7d7fc4ee33faed7ff28cb,2021-05-21_16h56.05.967,Simcolourproject_2stim_asymm_v5,2020.2.10,Win32,60,60a5f9bf14d0aa2821c4bb84,,,,,2650,96,-147,1,0,0,response3disk,,4,27,15,1,0,0,rectangle,27,15,1,0,0,6,"[237,321,218,34,81,157,256,219,163,148,120,202,144,77,38,217,254,165,68,223]",27,15,1,0,0,0,12,12,81,1,,,
,,,,,,,,,,,,,FF,,,,,,,,1.08374,,,,,,,,,,,,,,,,,,,,,,,5ed77f0ef8efa803b4086a89,60a7d7fc4ee33faed7ff28cb,2021-05-21_16h56.05.967,Simcolourproject_2stim_asymm_v5,2020.2.10,Win32,60,60a5f9bf14d0aa2821c4bb84,,,,,2888,-143,-61,1,0,0,response5disk,,4,35,9,1,0,0,rectangle,35,9,1,0,0,0,"[237,321,218,34,81,157,256,219,163,148,120,202,144,77,38,217,254,165,68,223]",35,9,1,0,0,0,13,13,146,1,,,
,,,,,,,,,,,,,FF,,,,,,,,1.51713,,,,,,,,,,,,,,,,,,,,,,,5ed77f0ef8efa803b4086a89,60a7d7fc4ee33faed7ff28cb,2021-05-21_16h56.05.967,Simcolourproject_2stim_asymm_v5,2020.2.10,Win32,60,60a5f9bf14d0aa2821c4bb84,,,,,4237,-147,62,1,0,0,response7disk,,1,-11,-13,1,0,0,rectangle,-11,-13,1,0,0,0,"[237,321,218,34,81,157,256,219,163,148,120,202,144,77,38,217,254,165,68,223]",-11,-13,1,0,0,0,14,14,21,1,,,
,,,,,,,,,,,,,FF,,,,,,,,1.41684,,,,,,,,,,,,,,,,,,,,,,,5ed77f0ef8efa803b4086a89,60a7d7fc4ee33faed7ff28cb,2021-05-21_16h56.05.967,Simcolourproject_2stim_asymm_v5,2020.2.10,Win32,60,60a5f9bf14d0aa2821c4bb84,,,,,2555,140,-86,1,0,0,response3disk,,5,2,-6,1,0,0,rectangle,2,-6,1,0,0,5,"[237,321,218,34,81,157,256,219,163,148,120,202,144,77,38,217,254,165,68,223]",2,-6,1,0,0,0,15,15,82,1,,,
,,,,,,,,,,,,,FF,,,,,,,,1.413405,,,,,,,,,,,,,,,,,,,,,,,5ed77f0ef8efa803b4086a89,60a7d7fc4ee33faed7ff28cb,2021-05-21_16h56.05.967,Simcolourproject_2stim_asymm_v5,2020.2.10,Win32,60,60a5f9bf14d0aa2821c4bb84,,,,,3459,116,151,1,0,0,response1disk,,7,49,-2,1,0,0,rectangle,49,-2,1,0,0,7,"[237,321,218,34,81,157,256,219,163,148,120,202,144,77,38,217,254,165,68,223]",49,-2,1,0,0,0,16,16,79,1,,,
,,,,,,,,,,,,,FF,,,,,,,,1.13356,,,,,,,,,,,,,,,,,,,,,,,5ed77f0ef8efa803b4086a89,60a7d7fc4ee33faed7ff28cb,2021-05-21_16h56.05.967,Simcolourproject_2stim_asymm_v5,2020.2.10,Win32,60,60a5f9bf14d0aa2821c4bb84,,,,,3037,219,-116,1,0,0,response3disk,,5,-27,-7,1,0,0,rectangle,-27,-7,1,0,0,6,"[237,321,218,34,81,157,256,219,163,148,120,202,144,77,38,217,254,165,68,223]",-27,-7,1,0,0,0,17,17,128,1,,,
,,,,,,,,,,,,,FF,,,,,,,,0.9336,,,,,,,,,,,,,,,,,,,,,,,5ed77f0ef8efa803b4086a89,60a7d7fc4ee33faed7ff28cb,2021-05-21_16h56.05.967,Simcolourproject_2stim_asymm_v5,2020.2.10,Win32,60,60a5f9bf14d0aa2821c4bb84,,,,,3724,-90,-176,1,0,0,response5disk,,3,37,-22,1,0,0,rectangle,37,-22,1,0,0,3,"[237,321,218,34,81,157,256,219,163,148,120,202,144,77,38,217,254,165,68,223]",37,-22,1,0,0,0,18,18,92,1,,,
,,,,,,,,,,,,,FF,,,,,,,,0.83449,,,,,,,,,,,,,,,,,,,,,,,5ed77f0ef8efa803b4086a89,60a7d7fc4ee33faed7ff28cb,2021-05-21_16h56.05.967,Simcolourproject_2stim_asymm_v5,2020.2.10,Win32,60,60a5f9bf14d0aa2821c4bb84,,,,,4200,-39,137,1,0,0,response7disk,,0,2,8,1,0,0,rectangle,2,8,1,0,0,1,"[237,321,218,34,81,157,256,219,163,148,120,202,144,77,38,217,254,165,68,223]",2,8,1,0,0,0,19,19,90,1,,,
,,,,,,,,,,,,,FF,,,,,,,,0.9172,,,,,,,,,,,,,,,,,,,,,,,5ed77f0ef8efa803b4086a89,60a7d7fc4ee33faed7ff28cb,2021-05-21_16h56.05.967,Simcolourproject_2stim_asymm_v5,2020.2.10,Win32,60,60a5f9bf14d0aa2821c4bb84,,,,,2660,-74,144,1,0,0,response7disk,,0,6,-3,1,0,0,rectangle,6,-3,1,0,0,5,"[237,321,218,34,81,157,256,219,163,148,120,202,144,77,38,217,254,165,68,223]",6,-3,1,0,0,0,20,20,55,1,,,
,,,,,,,,,,,,,FF,,,,,,,,1.1388,,,,,,,,,,,,,,,,,,,,,,,5ed77f0ef8efa803b4086a89,60a7d7fc4ee33faed7ff28cb,2021-05-21_16h56.05.967,Simcolourproject_2stim_asymm_v5,2020.2.10,Win32,60,60a5f9bf14d0aa2821c4bb84,,,,,2984,64,148,1,0,0,response1disk,,7,24,12,1,0,0,rectangle,24,12,1,0,0,1,"[237,321,218,34,81,157,256,219,163,148,120,202,144,77,38,217,254,165,68,223]",24,12,1,0,0,0,21,21,36,1,,,
,,,,,,,,,,,,,FF,,,,,,,,1.18803,,,,,,,,,,,,,,,,,,,,,,,5ed77f0ef8efa803b4086a89,60a7d7fc4ee33faed7ff28cb,2021-05-21_16h56.05.967,Simcolourproject_2stim_asymm_v5,2020.2.10,Win32,60,60a5f9bf14d0aa2821c4bb84,,,,,3848,-117,77,1,0,0,response7disk,,1,-9,10,1,0,0,rectangle,-9,10,1,0,0,3,"[237,321,218,34,81,157,256,219,163,148,120,202,144,77,38,217,254,165,68,223]",-9,10,1,0,0,0,22,22,121,1,,,
,,,,,,,,,,,,,FF,,,,,,,,1.45103,,,,,,,,,,,,,,,,,,,,,,,5ed77f0ef8efa803b4086a89,60a7d7fc4ee33faed7ff28cb,2021-05-21_16h56.05.967,Simcolourproject_2stim_asymm_v5,2020.2.10,Win32,60,60a5f9bf14d0aa2821c4bb84,,,,,1684,-143,-89,1,0,0,response5disk,,1,-31,-15,1,0,0,rectangle,-31,-15,1,0,0,0,"[237,321,218,34,81,157,256,219,163,148,120,202,144,77,38,217,254,165,68,223]",-31,-15,1,0,0,0,23,23,93,1,,,
,,,,,,,,,,,,,FF,,,,,,,,1.676115,,,,,,,,,,,,,,,,,,,,,,,5ed77f0ef8efa803b4086a89,60a7d7fc4ee33faed7ff28cb,2021-05-21_16h56.05.967,Simcolourproject_2stim_asymm_v5,2020.2.10,Win32,60,60a5f9bf14d0aa2821c4bb84,,,,,4003,57,-171,1,0,0,response3disk,,4,21,-17,1,0,0,rectangle,21,-17,1,0,0,3,"[237,321,218,34,81,157,256,219,163,148,120,202,144,77,38,217,254,165,68,223]",21,-17,1,0,0,0,24,24,40,1,,,
,,,,,,,,,,,,,FF,,,,,,,,1.769615,,,,,,,,,,,,,,,,,,,,,,,5ed77f0ef8efa803b4086a89,60a7d7fc4ee33faed7ff28cb,2021-05-21_16h56.05.967,Simcolourproject_2stim_asymm_v5,2020.2.10,Win32,60,60a5f9bf14d0aa2821c4bb84,,,,,1553,173,-72,1,0,0,response3disk,,5,23,12,1,0,0,rectangle,23,12,1,0,0,1,"[237,321,218,34,81,157,256,219,163,148,120,202,144,77,38,217,254,165,68,223]",23,12,1,0,0,0,25,25,138,1,,,
,,,,,,,,,,,,,FF,,,,,,,,2.05595,,,,,,,,,,,,,,,,,,,,,,,5ed77f0ef8efa803b4086a89,60a7d7fc4ee33faed7ff28cb,2021-05-21_16h56.05.967,Simcolourproject_2stim_asymm_v5,2020.2.10,Win32,60,60a5f9bf14d0aa2821c4bb84,,,,,3178,179,73,1,0,0,response1disk,,6,30,-10,1,0,0,rectangle,30,-10,1,0,0,4,"[237,321,218,34,81,157,256,219,163,148,120,202,144,77,38,217,254,165,68,223]",30,-10,1,0,0,0,26,26,142,1,,,
,,,,,,,,,,,,,FF,,,,,,,,1.697275,,,,,,,,,,,,,,,,,,,,,,,5ed77f0ef8efa803b4086a89,60a7d7fc4ee33faed7ff28cb,2021-05-21_16h56.05.967,Simcolourproject_2stim_asymm_v5,2020.2.10,Win32,60,60a5f9bf14d0aa2821c4bb84,,,,,744,-73,-154,1,0,0,response5disk,,3,8,-7,1,0,0,rectangle,8,-7,1,0,0,3,"[237,321,218,34,81,157,256,219,163,148,120,202,144,77,38,217,254,165,68,223]",8,-7,1,0,0,0,27,27,2,1,,,
,,,,,,,,,,,,,FF,,,,,,,,1.35542,,,,,,,,,,,,,,,,,,,,,,,5ed77f0ef8efa803b4086a89,60a7d7fc4ee33faed7ff28cb,2021-05-21_16h56.05.967,Simcolourproject_2stim_asymm_v5,2020.2.10,Win32,60,60a5f9bf14d0aa2821c4bb84,,,,,1896,-157,66,1,0,0,response7disk,,1,45,-11,1,0,0,rectangle,45,-11,1,0,0,6,"[237,321,218,34,81,157,256,219,163,148,120,202,144,77,38,217,254,165,68,223]",45,-11,1,0,0,0,28,28,13,1,,,
,,,,,,,,,,,,,FF,,,,,,,,1.313805,,,,,,,,,,,,,,,,,,,,,,,5ed77f0ef8efa803b4086a89,60a7d7fc4ee33faed7ff28cb,2021-05-21_16h56.05.967,Simcolourproject_2stim_asymm_v5,2020.2.10,Win32,60,60a5f9bf14d0aa2821c4bb84,,,,,809,-132,-67,1,0,0,response5disk,,1,27,1,1,0,0,rectangle,27,1,1,0,0,7,"[237,321,218,34,81,157,256,219,163,148,120,202,144,77,38,217,254,165,68,223]",27,1,1,0,0,0,29,29,115,1,,,
,,,,,,,,,,,,,FF,,,,,,,,1.190545,,,,,,,,,,,,,,,,,,,,,,,5ed77f0ef8efa803b4086a89,60a7d7fc4ee33faed7ff28cb,2021-05-21_16h56.05.967,Simcolourproject_2stim_asymm_v5,2020.2.10,Win32,60,60a5f9bf14d0aa2821c4bb84,,,,,1806,48,140,1,0,0,response1disk,,7,-26,0,1,0,0,rectangle,-26,0,1,0,0,1,"[237,321,218,34,81,157,256,219,163,148,120,202,144,77,38,217,254,165,68,223]",-26,0,1,0,0,0,30,30,58,1,,,
,,,,,,,,,,,,,FF,,,,,,,,0.683885,,,,,,,,,,,,,,,,,,,,,,,5ed77f0ef8efa803b4086a89,60a7d7fc4ee33faed7ff28cb,2021-05-21_16h56.05.967,Simcolourproject_2stim_asymm_v5,2020.2.10,Win32,60,60a5f9bf14d0aa2821c4bb84,,,,,3801,64,141,1,0,0,response1disk,,7,-15,-11,1,0,0,rectangle,-15,-11,1,0,0,2,"[237,321,218,34,81,157,256,219,163,148,120,202,144,77,38,217,254,165,68,223]",-15,-11,1,0,0,0,31,31,67,1,,,
,,,,,,,,,,,,,FF,,,,,,,,1.135255,,,,,,,,,,,,,,,,,,,,,,,5ed77f0ef8efa803b4086a89,60a7d7fc4ee33faed7ff28cb,2021-05-21_16h56.05.967,Simcolourproject_2stim_asymm_v5,2020.2.10,Win32,60,60a5f9bf14d0aa2821c4bb84,,,,,1366,45,-146,1,0,0,response3disk,,4,14,5,1,0,0,rectangle,14,5,1,0,0,2,"[237,321,218,34,81,157,256,219,163,148,120,202,144,77,38,217,254,165,68,223]",14,5,1,0,0,0,32,32,47,1,,,
,,,,,,,,,,,,,FF,,,,,,,,1.2508,,,,,,,,,,,,,,,,,,,,,,,5ed77f0ef8efa803b4086a89,60a7d7fc4ee33faed7ff28cb,2021-05-21_16h56.05.967,Simcolourproject_2stim_asymm_v5,2020.2.10,Win32,60,60a5f9bf14d0aa2821c4bb84,,,,,97,-126,-71,1,0,0,response5disk,,4,17,-7,1,0,0,rectangle,-83,-189,1,0,0,3,"[237,321,218,34,81,157,256,219,163,148,120,202,144,77,38,217,254,165,68,223]",-2,13,1,0,0,0,33,33,136,1,,response5disk_3,rectangle
,,,,,,,,,,,,,FF,,,,,,,,1.502315,,,,,,,,,,,,,,,,,,,,,,,5ed77f0ef8efa803b4086a89,60a7d7fc4ee33faed7ff28cb,2021-05-21_16h56.05.967,Simcolourproject_2stim_asymm_v5,2020.2.10,Win32,60,60a5f9bf14d0aa2821c4bb84,,,,,3243,-163,48,1,0,0,response7disk,,1,0,-12,1,0,0,rectangle,0,-12,1,0,0,5,"[237,321,218,34,81,157,256,219,163,148,120,202,144,77,38,217,254,165,68,223]",0,-12,1,0,0,0,34,34,24,1,,,
,,,,,,,,,,,,,FF,,,,,,,,0.86052,,,,,,,,,,,,,,,,,,,,,,,5ed77f0ef8efa803b4086a89,60a7d7fc4ee33faed7ff28cb,2021-05-21_16h56.05.967,Simcolourproject_2stim_asymm_v5,2020.2.10,Win32,60,60a5f9bf14d0aa2821c4bb84,,,,,698,-160,-83,1,0,0,response5disk,,1,1,4,1,0,0,rectangle,1,4,1,0,0,7,"[237,321,218,34,81,157,256,219,163,148,120,202,144,77,38,217,254,165,68,223]",1,4,1,0,0,0,35,35,43,1,,,
,,,,,,,,,,,,,FF,,,,,,,,1.540455,,,,,,,,,,,,,,,,,,,,,,,5ed77f0ef8efa803b4086a89,60a7d7fc4ee33faed7ff28cb,2021-05-21_16h56.05.967,Simcolourproject_2stim_asymm_v5,2020.2.10,Win32,60,60a5f9bf14d0aa2821c4bb84,,,,,1393,149,-61,1,0,0,response3disk,,5,-13,24,1,0,0,rectangle,-13,24,1,0,0,6,"[237,321,218,34,81,157,256,219,163,148,120,202,144,77,38,217,254,165,68,223]",-13,24,1,0,0,0,36,36,78,1,,,
,,,,,,,,,,,,,FF,,,,,,,,0.65039,,,,,,,,,,,,,,,,,,,,,,,5ed77f0ef8efa803b4086a89,60a7d7fc4ee33faed7ff28cb,2021-05-21_16h56.05.967,Simcolourproject_2stim_asymm_v5,2020.2.10,Win32,60,60a5f9bf14d0aa2821c4bb84,,,,,1407,147,110,1,0,0,response1disk,,6,-39,10,1,0,0,rectangle,-169,75,1,0,0,1,"[237,321,218,34,81,157,256,219,163,148,120,202,144,77,38,217,254,165,68,223]",13,3,1,0,0,0,37,37,22,1,,response7disk_3,rectangle
,,,,,,,,,,,,,FF,,,,,,,,1.389755,,,,,,,,,,,,,,,,,,,,,,,5ed77f0ef8efa803b4086a89,60a7d7fc4ee33faed7ff28cb,2021-05-21_16h56.05.967,Simcolourproject_2stim_asymm_v5,2020.2.10,Win32,60,60a5f9bf14d0aa2821c4bb84,,,,,988,-53,-167,1,0,0,response5disk,,3,-21,-18,1,0,0,rectangle,-21,-18,1,0,0,7,"[237,321,218,34,81,157,256,219,163,148,120,202,144,77,38,217,254,165,68,223]",-21,-18,1,0,0,0,38,38,8,1,,,
,,,,,,,,,,,,,FF,,,,,,,,1.02925,,,,,,,,,,,,,,,,,,,,,,,5ed77f0ef8efa803b4086a89,60a7d7fc4ee33faed7ff28cb,2021-05-21_16h56.05.967,Simcolourproject_2stim_asymm_v5,2020.2.10,Win32,60,60a5f9bf14d0aa2821c4bb84,,,,,3999,-162,-84,1,0,0,response5disk,,3,-44,17,1,0,0,rectangle,-44,17,1,0,0,3,"[237,321,218,34,81,157,256,219,163,148,120,202,144,77,38,217,254,165,68,223]",-44,17,1,0,0,0,39,39,111,1,,,
,,,,,,,,,,,,,FF,,,,,,,,0.64417,,,,,,,,,,,,,,,,,,,,,,,5ed77f0ef8efa803b4086a89,60a7d7fc4ee33faed7ff28cb,2021-05-21_16h56.05.967,Simcolourproject_2stim_asymm_v5,2020.2.10,Win32,60,60a5f9bf14d0aa2821c4bb84,,,,,4348,144,68,1,0,0,response1disk,,6,-15,-18,1,0,0,rectangle,-15,-18,1,0,0,1,"[237,321,218,34,81,157,256,219,163,148,120,202,144,77,38,217,254,165,68,223]",-15,-18,1,0,0,0,40,40,139,1,,,
,,,,,,,,,,,,,FF,,,,,,,,1.10674,,,,,,,,,,,,,,,,,,,,,,,5ed77f0ef8efa803b4086a89,60a7d7fc4ee33faed7ff28cb,2021-05-21_16h56.05.967,Simcolourproject_2stim_asymm_v5,2020.2.10,Win32,60,60a5f9bf14d0aa2821c4bb84,,,,,3392,156,-105,1,0,0,response3disk,,5,48,22,1,0,0,rectangle,48,22,1,0,0,5,"[237,321,218,34,81,157,256,219,163,148,120,202,144,77,38,217,254,165,68,223]",48,22,1,0,0,0,41,41,64,1,,,
,,,,,,,,,,,,,FF,,,,,,,,1.101045,,,,,,,,,,,,,,,,,,,,,,,5ed77f0ef8efa803b4086a89,60a7d7fc4ee33faed7ff28cb,2021-05-21_16h56.05.967,Simcolourproject_2stim_asymm_v5,2020.2.10,Win32,60,60a5f9bf14d0aa2821c4bb84,,,,,4132,101,-122,1,0,0,response3disk,,4,-4,-10,1,0,0,rectangle,-4,-10,1,0,0,7,"[237,321,218,34,81,157,256,219,163,148,120,202,144,77,38,217,254,165,68,223]",-4,-10,1,0,0,0,42,42,25,1,,,
,,,,,,,,,,,,,FF,,,,,,,,1.137485,,,,,,,,,,,,,,,,,,,,,,,5ed77f0ef8efa803b4086a89,60a7d7fc4ee33faed7ff28cb,2021-05-21_16h56.05.967,Simcolourproject_2stim_asymm_v5,2020.2.10,Win32,60,60a5f9bf14d0aa2821c4bb84,,,,,95,-101,-208,1,0,0,response5disk,,3,-3,-2,1,0,0,rectangle,-3,-2,1,0,0,7,"[237,321,218,34,81,157,256,219,163,148,120,202,144,77,38,217,254,165,68,223]",-3,-2,1,0,0,0,43,43,97,1,,,
,,,,,,,,,,,,,FF,,,,,,,,0.687315,,,,,,,,,,,,,,,,,,,,,,,5ed77f0ef8efa803b4086a89,60a7d7fc4ee33faed7ff28cb,2021-05-21_16h56.05.967,Simcolourproject_2stim_asymm_v5,2020.2.10,Win32,60,60a5f9bf14d0aa2821c4bb84,,,,,2371,-173,-73,1,0,0,response5disk,,3,14,18,1,0,0,rectangle,14,18,1,0,0,6,"[237,321,218,34,81,157,256,219,163,148,120,202,144,77,38,217,254,165,68,223]",14,18,1,0,0,0,44,44,141,1,,,
,,,,,,,,,,,,,FF,,,,,,,,2.305795,,,,,,,,,,,,,,,,,,,,,,,5ed77f0ef8efa803b4086a89,60a7d7fc4ee33faed7ff28cb,2021-05-21_16h56.05.967,Simcolourproject_2stim_asymm_v5,2020.2.10,Win32,60,60a5f9bf14d0aa2821c4bb84,,,,,2483,-65,-168,1,0,0,response5disk,,3,9,-12,1,0,0,rectangle,9,-12,1,0,0,7,"[237,321,218,34,81,157,256,219,163,148,120,202,144,77,38,217,254,165,68,223]",9,-12,1,0,0,0,45,45,66,1,,,
,,,,,,,,,,,,,FF,,,,,,,,1.38416,,,,,,,,,,,,,,,,,,,,,,,5ed77f0ef8efa803b4086a89,60a7d7fc4ee33faed7ff28cb,2021-05-21_16h56.05.967,Simcolourproject_2stim_asymm_v5,2020.2.10,Win32,60,60a5f9bf14d0aa2821c4bb84,,,,,188,186,-91,1,0,0,response3disk,,5,53,-5,1,0,0,rectangle,53,-5,1,0,0,5,"[237,321,218,34,81,157,256,219,163,148,120,202,144,77,38,217,254,165,68,223]",53,-5,1,0,0,0,46,46,74,1,,,
,,,,,,,,,,,,,FF,,,,,,,,2.130335,,,,,,,,,,,,,,,,,,,,,,,5ed77f0ef8efa803b4086a89,60a7d7fc4ee33faed7ff28cb,2021-05-21_16h56.05.967,Simcolourproject_2stim_asymm_v5,2020.2.10,Win32,60,60a5f9bf14d0aa2821c4bb84,,,,,4179,137,66,1,0,0,response1disk,,6,31,19,1,0,0,rectangle,31,19,1,0,0,3,"[237,321,218,34,81,157,256,219,163,148,120,202,144,77,38,217,254,165,68,223]",31,19,1,0,0,0,47,47,117,1,,,
,,,,,,,,,,,,,FF,,,,,,,,1.567915,,,,,,,,,,,,,,,,,,,,,,,5ed77f0ef8efa803b4086a89,60a7d7fc4ee33faed7ff28cb,2021-05-21_16h56.05.967,Simcolourproject_2stim_asymm_v5,2020.2.10,Win32,60,60a5f9bf14d0aa2821c4bb84,,,,,3731,61,-142,1,0,0,response3disk,,4,-7,-10,1,0,0,rectangle,-7,-10,1,0,0,4,"[237,321,218,34,81,157,256,219,163,148,120,202,144,77,38,217,254,165,68,223]",-7,-10,1,0,0,0,48,48,32,1,,,
,,,,,,,,,,,,,FF,,,,,,,,0.711535,,,,,,,,,,,,,,,,,,,,,,,5ed77f0ef8efa803b4086a89,60a7d7fc4ee33faed7ff28cb,2021-05-21_16h56.05.967,Simcolourproject_2stim_asymm_v5,2020.2.10,Win32,60,60a5f9bf14d0aa2821c4bb84,,,,,787,144,-105,1,0,0,response3disk,,5,19,-10,1,0,0,rectangle,19,-10,1,0,0,1,"[237,321,218,34,81,157,256,219,163,148,120,202,144,77,38,217,254,165,68,223]",19,-10,1,0,0,0,49,49,156,1,,,
,,,,,,,,,,,,,FF,,,,,,,,1.83742,,,,,,,,,,,,,,,,,,,,,,,5ed77f0ef8efa803b4086a89,60a7d7fc4ee33faed7ff28cb,2021-05-21_16h56.05.967,Simcolourproject_2stim_asymm_v5,2020.2.10,Win32,60,60a5f9bf14d0aa2821c4bb84,,,,,1503,84,-137,1,0,0,response3disk,,4,18,-24,1,0,0,rectangle,18,-24,1,0,0,3,"[237,321,218,34,81,157,256,219,163,148,120,202,144,77,38,217,254,165,68,223]",18,-24,1,0,0,0,50,50,120,1,,,
,,,,,,,,,,,,,FF,,,,,,,,0.70131,,,,,,,,,,,,,,,,,,,,,,,5ed77f0ef8efa803b4086a89,60a7d7fc4ee33faed7ff28cb,2021-05-21_16h56.05.967,Simcolourproject_2stim_asymm_v5,2020.2.10,Win32,60,60a5f9bf14d0aa2821c4bb84,,,,,3618,-119,-165,1,0,0,response5disk,,3,-11,-14,1,0,0,rectangle,-11,-14,1,0,0,0,"[237,321,218,34,81,157,256,219,163,148,120,202,144,77,38,217,254,165,68,223]",-11,-14,1,0,0,0,51,51,119,1,,,
,,,,,,,,,,,,,FF,,,,,,,,2.080105,,,,,,,,,,,,,,,,,,,,,,,5ed77f0ef8efa803b4086a89,60a7d7fc4ee33faed7ff28cb,2021-05-21_16h56.05.967,Simcolourproject_2stim_asymm_v5,2020.2.10,Win32,60,60a5f9bf14d0aa2821c4bb84,,,,,2295,-185,-104,1,0,0,response5disk,,3,-35,0,1,0,0,rectangle,-35,0,1,0,0,1,"[237,321,218,34,81,157,256,219,163,148,120,202,144,77,38,217,254,165,68,223]",-35,0,1,0,0,0,52,52,109,1,,,
,,,,,,,,,,,,,FF,,,,,,,,0.96249,,,,,,,,,,,,,,,,,,,,,,,5ed77f0ef8efa803b4086a89,60a7d7fc4ee33faed7ff28cb,2021-05-21_16h56.05.967,Simcolourproject_2stim_asymm_v5,2020.2.10,Win32,60,60a5f9bf14d0aa2821c4bb84,,,,,2535,174,-103,1,0,0,response3disk,,5,-7,7,1,0,0,rectangle,-7,7,1,0,0,7,"[237,321,218,34,81,157,256,219,163,148,120,202,144,77,38,217,254,165,68,223]",-7,7,1,0,0,0,53,53,57,1,,,
,,,,,,,,,,,,,FF,,,,,,,,2.963085,,,,,,,,,,,,,,,,,,,,,,,5ed77f0ef8efa803b4086a89,60a7d7fc4ee33faed7ff28cb,2021-05-21_16h56.05.967,Simcolourproject_2stim_asymm_v5,2020.2.10,Win32,60,60a5f9bf14d0aa2821c4bb84,,,,,1487,185,32,1,0,0,response1disk,,6,37,-13,1,0,0,rectangle,37,-13,1,0,0,2,"[237,321,218,34,81,157,256,219,163,148,120,202,144,77,38,217,254,165,68,223]",37,-13,1,0,0,0,54,54,158,1,,,
,,,,,,,,,,,,,FF,,,,,,,,1.640705,,,,,,,,,,,,,,,,,,,,,,,5ed77f0ef8efa803b4086a89,60a7d7fc4ee33faed7ff28cb,2021-05-21_16h56.05.967,Simcolourproject_2stim_asymm_v5,2020.2.10,Win32,60,60a5f9bf14d0aa2821c4bb84,,,,,4290,169,68,1,0,0,response1disk,,6,21,-19,1,0,0,rectangle,21,-19,1,0,0,4,"[237,321,218,34,81,157,256,219,163,148,120,202,144,77,38,217,254,165,68,223]",21,-19,1,0,0,0,55,55,102,1,,,
,,,,,,,,,,,,,FF,,,,,,,,2.502545,,,,,,,,,,,,,,,,,,,,,,,5ed77f0ef8efa803b4086a89,60a7d7fc4ee33faed7ff28cb,2021-05-21_16h56.05.967,Simcolourproject_2stim_asymm_v5,2020.2.10,Win32,60,60a5f9bf14d0aa2821c4bb84,,,,,715,158,-79,1,0,0,response3disk,,5,-14,-19,1,0,0,rectangle,-14,-19,1,0,0,5,"[237,321,218,34,81,157,256,219,163,148,120,202,144,77,38,217,254,165,68,223]",-14,-19,1,0,0,0,56,56,126,1,,,
,,,,,,,,,,,,,FF,,,,,,,,1.142995,,,,,,,,,,,,,,,,,,,,,,,5ed77f0ef8efa803b4086a89,60a7d7fc4ee33faed7ff28cb,2021-05-21_16h56.05.967,Simcolourproject_2stim_asymm_v5,2020.2.10,Win32,60,60a5f9bf14d0aa2821c4bb84,,,,,3516,-107,-173,1,0,0,response5disk,,3,-14,-21,1,0,0,rectangle,-14,-21,1,0,0,4,"[237,321,218,34,81,157,256,219,163,148,120,202,144,77,38,217,254,165,68,223]",-14,-21,1,0,0,0,57,57,19,1,,,
,,,,,,,,,,,,,FF,,,,,,,,1.142225,,,,,,,,,,,,,,,,,,,,,,,5ed77f0ef8efa803b4086a89,60a7d7fc4ee33faed7ff28cb,2021-05-21_16h56.05.967,Simcolourproject_2stim_asymm_v5,2020.2.10,Win32,60,60a5f9bf14d0aa2821c4bb84,,,,,3919,196,-105,1,0,0,response3disk,,5,2,-12,1,0,0,rectangle,2,-12,1,0,0,3,"[237,321,218,34,81,157,256,219,163,148,120,202,144,77,38,217,254,165,68,223]",2,-12,1,0,0,0,58,58,33,1,,,
,,,,,,,,,,,,,FF,,,,,,,,1.86141,,,,,,,,,,,,,,,,,,,,,,,5ed77f0ef8efa803b4086a89,60a7d7fc4ee33faed7ff28cb,2021-05-21_16h56.05.967,Simcolourproject_2stim_asymm_v5,2020.2.10,Win32,60,60a5f9bf14d0aa2821c4bb84,,,,,2242,-54,-122,1,0,0,response5disk,,3,23,-4,1,0,0,rectangle,23,-4,1,0,0,6,"[237,321,218,34,81,157,256,219,163,148,120,202,144,77,38,217,254,165,68,223]",23,-4,1,0,0,0,59,59,16,1,,,
,,,,,,,,,,,,,FF,,,,,,,,1.683765,,,,,,,,,,,,,,,,,,,,,,,5ed77f0ef8efa803b4086a89,60a7d7fc4ee33faed7ff28cb,2021-05-21_16h56.05.967,Simcolourproject_2stim_asymm_v5,2020.2.10,Win32,60,60a5f9bf14d0aa2821c4bb84,,,,,1372,135,-116,1,0,0,response3disk,,5,49,-1,1,0,0,rectangle,49,-1,1,0,0,2,"[237,321,218,34,81,157,256,219,163,148,120,202,144,77,38,217,254,165,68,223]",49,-1,1,0,0,0,60,60,38,1,,,
,,,,,,,,,,,,,FF,,,,,,,,2.2017,,,,,,,,,,,,,,,,,,,,,,,5ed77f0ef8efa803b4086a89,60a7d7fc4ee33faed7ff28cb,2021-05-21_16h56.05.967,Simcolourproject_2stim_asymm_v5,2020.2.10,Win32,60,60a5f9bf14d0aa2821c4bb84,,,,,2003,50,-211,1,0,0,response3disk,,4,12,-18,1,0,0,rectangle,12,-18,1,0,0,3,"[237,321,218,34,81,157,256,219,163,148,120,202,144,77,38,217,254,165,68,223]",12,-18,1,0,0,0,61,61,132,1,,,
,,,,,,,,,,,,,FF,,,,,,,,0.69426,,,,,,,,,,,,,,,,,,,,,,,5ed77f0ef8efa803b4086a89,60a7d7fc4ee33faed7ff28cb,2021-05-21_16h56.05.967,Simcolourproject_2stim_asymm_v5,2020.2.10,Win32,60,60a5f9bf14d0aa2821c4bb84,,,,,4280,-99,174,1,0,0,response7disk,,0,-11,14,1,0,0,rectangle,-11,14,1,0,0,7,"[237,321,218,34,81,157,256,219,163,148,120,202,144,77,38,217,254,165,68,223]",-11,14,1,0,0,0,62,62,0,1,,,
,,,,,,,,,,,,,FF,,,,,,,,1.77349,,,,,,,,,,,,,,,,,,,,,,,5ed77f0ef8efa803b4086a89,60a7d7fc4ee33faed7ff28cb,2021-05-21_16h56.05.967,Simcolourproject_2stim_asymm_v5,2020.2.10,Win32,60,60a5f9bf14d0aa2821c4bb84,,,,,1519,163,-51,1,0,0,response3disk,,5,-26,0,1,0,0,rectangle,-26,0,1,0,0,7,"[237,321,218,34,81,157,256,219,163,148,120,202,144,77,38,217,254,165,68,223]",-26,0,1,0,0,0,63,63,12,1,,,
,,,,,,,,,,,,,FF,,,,,,,,1.37339,,,,,,,,,,,,,,,,,,,,,,,5ed77f0ef8efa803b4086a89,60a7d7fc4ee33faed7ff28cb,2021-05-21_16h56.05.967,Simcolourproject_2stim_asymm_v5,2020.2.10,Win32,60,60a5f9bf14d0aa2821c4bb84,,,,,2148,-73,-192,1,0,0,response5disk,,3,2,17,1,0,0,rectangle,2,17,1,0,0,0,"[237,321,218,34,81,157,256,219,163,148,120,202,144,77,38,217,254,165,68,223]",2,17,1,0,0,0,64,64,49,1,,,
,,,,,,,,,,,,,FF,,,,,,,,1.565705,,,,,,,,,,,,,,,,,,,,,,,5ed77f0ef8efa803b4086a89,60a7d7fc4ee33faed7ff28cb,2021-05-21_16h56.05.967,Simcolourproject_2stim_asymm_v5,2020.2.10,Win32,60,60a5f9bf14d0aa2821c4bb84,,,,,679,-87,59,1,0,0,response7disk,,1,49,4,1,0,0,rectangle,49,4,1,0,0,7,"[237,321,218,34,81,157,256,219,163,148,120,202,144,77,38,217,254,165,68,223]",49,4,1,0,0,0,65,65,107,1,,,
,,,,,,,,,,,,,FF,,,,,,,,1.22407,,,,,,,,,,,,,,,,,,,,,,,5ed77f0ef8efa803b4086a89,60a7d7fc4ee33faed7ff28cb,2021-05-21_16h56.05.967,Simcolourproject_2stim_asymm_v5,2020.2.10,Win32,60,60a5f9bf14d0aa2821c4bb84,,,,,1986,-194,-122,1,0,0,response5disk,,1,16,15,1,0,0,rectangle,16,15,1,0,0,3,"[237,321,218,34,81,157,256,219,163,148,120,202,144,77,38,217,254,165,68,223]",16,15,1,0,0,0,66,66,15,1,,,
,,,,,,,,,,,,,FF,,,,,,,,1.955755,,,,,,,,,,,,,,,,,,,,,,,5ed77f0ef8efa803b4086a89,60a7d7fc4ee33faed7ff28cb,2021-05-21_16h56.05.967,Simcolourproject_2stim_asymm_v5,2020.2.10,Win32,60,60a5f9bf14d0aa2821c4bb84,,,,,3640,-115,-64,1,0,0,response5disk,,1,-20,23,1,0,0,rectangle,76,-149,1,0,0,4,"[237,321,218,34,81,157,256,219,163,148,120,202,144,77,38,217,254,165,68,223]",14,10,1,0,0,0,67,67,48,1,,response3disk_3,rectangle
,,,,,,,,,,,,,FF,,,,,,,,1.254845,,,,,,,,,,,,,,,,,,,,,,,5ed77f0ef8efa803b4086a89,60a7d7fc4ee33faed7ff28cb,2021-05-21_16h56.05.967,Simcolourproject_2stim_asymm_v5,2020.2.10,Win32,60,60a5f9bf14d0aa2821c4bb84,,,,,3330,113,-100,1,0,0,response3disk,,5,-12,-4,1,0,0,rectangle,-12,-4,1,0,0,4,"[237,321,218,34,81,157,256,219,163,148,120,202,144,77,38,217,254,165,68,223]",-12,-4,1,0,0,0,68,68,108,1,,,
,,,,,,,,,,,,,FF,,,,,,,,1.13108,,,,,,,,,,,,,,,,,,,,,,,5ed77f0ef8efa803b4086a89,60a7d7fc4ee33faed7ff28cb,2021-05-21_16h56.05.967,Simcolourproject_2stim_asymm_v5,2020.2.10,Win32,60,60a5f9bf14d0aa2821c4bb84,,,,,1500,-175,-90,1,0,0,response5disk,,5,-39,-10,1,0,0,rectangle,-39,-10,1,0,0,4,"[237,321,218,34,81,157,256,219,163,148,120,202,144,77,38,217,254,165,68,223]",-39,-10,1,0,0,0,69,69,23,1,,,
,,,,,,,,,,,,,FF,,,,,,,,1.12521,,,,,,,,,,,,,,,,,,,,,,,5ed77f0ef8efa803b4086a89,60a7d7fc4ee33faed7ff28cb,2021-05-21_16h56.05.967,Simcolourproject_2stim_asymm_v5,2020.2.10,Win32,60,60a5f9bf14d0aa2821c4bb84,,,,,1554,-193,-48,1,0,0,response5disk,,5,-46,2,1,0,0,rectangle,-46,2,1,0,0,0,"[237,321,218,34,81,157,256,219,163,148,120,202,144,77,38,217,254,165,68,223]",-46,2,1,0,0,0,70,70,135,1,,,
,,,,,,,,,,,,,FF,,,,,,,,1.001505,,,,,,,,,,,,,,,,,,,,,,,5ed77f0ef8efa803b4086a89,60a7d7fc4ee33faed7ff28cb,2021-05-21_16h56.05.967,Simcolourproject_2stim_asymm_v5,2020.2.10,Win32,60,60a5f9bf14d0aa2821c4bb84,,,,,3741,-77,138,1,0,0,response7disk,,0,40,-10,1,0,0,rectangle,40,-10,1,0,0,4,"[237,321,218,34,81,157,256,219,163,148,120,202,144,77,38,217,254,165,68,223]",40,-10,1,0,0,0,71,71,20,1,,,
,,,,,,,,,,,,,FF,,,,,,,,1.28341,,,,,,,,,,,,,,,,,,,,,,,5ed77f0ef8efa803b4086a89,60a7d7fc4ee33faed7ff28cb,2021-05-21_16h56.05.967,Simcolourproject_2stim_asymm_v5,2020.2.10,Win32,60,60a5f9bf14d0aa2821c4bb84,,,,,1138,-88,135,1,0,0,response7disk,,0,-11,17,1,0,0,rectangle,-11,17,1,0,0,5,"[237,321,218,34,81,157,256,219,163,148,120,202,144,77,38,217,254,165,68,223]",-11,17,1,0,0,0,72,72,153,1,,,
,,,,,,,,,,,,,FF,,,,,,,,1.16746,,,,,,,,,,,,,,,,,,,,,,,5ed77f0ef8efa803b4086a89,60a7d7fc4ee33faed7ff28cb,2021-05-21_16h56.05.967,Simcolourproject_2stim_asymm_v5,2020.2.10,Win32,60,60a5f9bf14d0aa2821c4bb84,,,,,2608,-171,83,1,0,0,response7disk,,1,46,-18,1,0,0,rectangle,46,-18,1,0,0,4,"[237,321,218,34,81,157,256,219,163,148,120,202,144,77,38,217,254,165,68,223]",46,-18,1,0,0,0,73,73,94,1,,,
,,,,,,,,,,,,,FF,,,,,,,,1.217225,,,,,,,,,,,,,,,,,,,,,,,5ed77f0ef8efa803b4086a89,60a7d7fc4ee33faed7ff28cb,2021-05-21_16h56.05.967,Simcolourproject_2stim_asymm_v5,2020.2.10,Win32,60,60a5f9bf14d0aa2821c4bb84,,,,,1073,124,-117,1,0,0,response3disk,,5,34,-14,1,0,0,rectangle,34,-14,1,0,0,7,"[237,321,218,34,81,157,256,219,163,148,120,202,144,77,38,217,254,165,68,223]",34,-14,1,0,0,0,74,74,75,1,,,
,,,,,,,,,,,,,FF,,,,,,,,1.467375,,,,,,,,,,,,,,,,,,,,,,,5ed77f0ef8efa803b4086a89,60a7d7fc4ee33faed7ff28cb,2021-05-21_16h56.05.967,Simcolourproject_2stim_asymm_v5,2020.2.10,Win32,60,60a5f9bf14d0aa2821c4bb84,,,,,2157,143,77,1,0,0,response1disk,,6,-42,0,1,0,0,rectangle,-42,0,1,0,0,3,"[237,321,218,34,81,157,256,219,163,148,120,202,144,77,38,217,254,165,68,223]",-42,0,1,0,0,0,75,75,7,1,,,
,,,,,,,,,,,,,FF,,,,,,,,1.732445,,,,,,,,,,,,,,,,,,,,,,,5ed77f0ef8efa803b4086a89,60a7d7fc4ee33faed7ff28cb,2021-05-21_16h56.05.967,Simcolourproject_2stim_asymm_v5,2020.2.10,Win32,60,60a5f9bf14d0aa2821c4bb84,,,,,4005,196,-123,1,0,0,response3disk,,5,13,-6,1,0,0,rectangle,-64,-125,1,0,0,3,"[237,321,218,34,81,157,256,219,163,148,120,202,144,77,38,217,254,165,68,223]",-17,-4,1,0,0,0,76,76,72,1,,response5disk_3,rectangle
,,,,,,,,,,,,,FF,,,,,,,,1.250655,,,,,,,,,,,,,,,,,,,,,,,5ed77f0ef8efa803b4086a89,60a7d7fc4ee33faed7ff28cb,2021-05-21_16h56.05.967,Simcolourproject_2stim_asymm_v5,2020.2.10,Win32,60,60a5f9bf14d0aa2821c4bb84,,,,,305,-71,-144,1,0,0,response5disk,,3,50,-15,1,0,0,rectangle,50,-15,1,0,0,1,"[237,321,218,34,81,157,256,219,163,148,120,202,144,77,38,217,254,165,68,223]",50,-15,1,0,0,0,77,77,103,1,,,
,,,,,,,,,,,,,FF,,,,,,,,1.30212,,,,,,,,,,,,,,,,,,,,,,,5ed77f0ef8efa803b4086a89,60a7d7fc4ee33faed7ff28cb,2021-05-21_16h56.05.967,Simcolourproject_2stim_asymm_v5,2020.2.10,Win32,60,60a5f9bf14d0aa2821c4bb84,,,,,3644,57,-190,1,0,0,response3disk,,4,-4,-11,1,0,0,rectangle,-4,-11,1,0,0,3,"[237,321,218,34,81,157,256,219,163,148,120,202,144,77,38,217,254,165,68,223]",-4,-11,1,0,0,0,78,78,87,1,,,
,,,,,,,,,,,,,FF,,,,,,,,1.23413,,,,,,,,,,,,,,,,,,,,,,,5ed77f0ef8efa803b4086a89,60a7d7fc4ee33faed7ff28cb,2021-05-21_16h56.05.967,Simcolourproject_2stim_asymm_v5,2020.2.10,Win32,60,60a5f9bf14d0aa2821c4bb84,,,,,792,102,33,1,0,0,response1disk,,6,32,-16,1,0,0,rectangle,32,-16,1,0,0,5,"[237,321,218,34,81,157,256,219,163,148,120,202,144,77,38,217,254,165,68,223]",32,-16,1,0,0,0,79,79,110,1,,,
,,,,,,,,,,,,,FF,,,,,,,,2.084265,,,,,,,,,,,,,,,,,,,,,,,5ed77f0ef8efa803b4086a89,60a7d7fc4ee33faed7ff28cb,2021-05-21_16h56.05.967,Simcolourproject_2stim_asymm_v5,2020.2.10,Win32,60,60a5f9bf14d0aa2821c4bb84,,,,,1900,-147,52,1,0,0,response7disk,,1,-20,-23,1,0,0,rectangle,-181,85,1,0,0,1,"[237,321,218,34,81,157,256,219,163,148,120,202,144,77,38,217,254,165,68,223]",-7,26,1,0,0,0,80,80,134,1,,response7disk_3,rectangle
,,,,,,,,,,,,,FF,,,,,,,,2.35091,,,,,,,,,,,,,,,,,,,,,,,5ed77f0ef8efa803b4086a89,60a7d7fc4ee33faed7ff28cb,2021-05-21_16h56.05.967,Simcolourproject_2stim_asymm_v5,2020.2.10,Win32,60,60a5f9bf14d0aa2821c4bb84,,,,,1153,-219,-65,1,0,0,response5disk,,1,0,-5,1,0,0,rectangle,0,-5,1,0,0,3,"[237,321,218,34,81,157,256,219,163,148,120,202,144,77,38,217,254,165,68,223]",0,-5,1,0,0,0,81,81,26,1,,,
,,,,,,,,,,,,,FF,,,,,,,,2.351255,,,,,,,,,,,,,,,,,,,,,,,5ed77f0ef8efa803b4086a89,60a7d7fc4ee33faed7ff28cb,2021-05-21_16h56.05.967,Simcolourproject_2stim_asymm_v5,2020.2.10,Win32,60,60a5f9bf14d0aa2821c4bb84,,,,,2552,-81,-152,1,0,0,response5disk,,3,9,-14,1,0,0,rectangle,9,-14,1,0,0,2,"[237,321,218,34,81,157,256,219,163,148,120,202,144,77,38,217,254,165,68,223]",9,-14,1,0,0,0,82,82,155,1,,,
,,,,,,,,,,,,,FF,,,,,,,,1.15076,,,,,,,,,,,,,,,,,,,,,,,5ed77f0ef8efa803b4086a89,60a7d7fc4ee33faed7ff28cb,2021-05-21_16h56.05.967,Simcolourproject_2stim_asymm_v5,2020.2.10,Win32,60,60a5f9bf14d0aa2821c4bb84,,,,,196,-167,-79,1,0,0,response5disk,,3,-38,-12,1,0,0,rectangle,-38,-12,1,0,0,5,"[237,321,218,34,81,157,256,219,163,148,120,202,144,77,38,217,254,165,68,223]",-38,-12,1,0,0,0,83,83,4,1,,,
,,,,,,,,,,,,,FF,,,,,,,,1.133455,,,,,,,,,,,,,,,,,,,,,,,5ed77f0ef8efa803b4086a89,60a7d7fc4ee33faed7ff28cb,2021-05-21_16h56.05.967,Simcolourproject_2stim_asymm_v5,2020.2.10,Win32,60,60a5f9bf14d0aa2821c4bb84,,,,,2590,78,-158,1,0,0,response3disk,,4,-4,16,1,0,0,rectangle,-4,16,1,0,0,0,"[237,321,218,34,81,157,256,219,163,148,120,202,144,77,38,217,254,165,68,223]",-4,16,1,0,0,0,84,84,10,1,,,
,,,,,,,,,,,,,FF,,,,,,,,0.984355,,,,,,,,,,,,,,,,,,,,,,,5ed77f0ef8efa803b4086a89,60a7d7fc4ee33faed7ff28cb,2021-05-21_16h56.05.967,Simcolourproject_2stim_asymm_v5,2020.2.10,Win32,60,60a5f9bf14d0aa2821c4bb84,,,,,2375,-96,-175,1,0,0,response5disk,,3,-27,-7,1,0,0,rectangle,-27,-7,1,0,0,3,"[237,321,218,34,81,157,256,219,163,148,120,202,144,77,38,217,254,165,68,223]",-27,-7,1,0,0,0,85,85,144,1,,,
,,,,,,,,,,,,,FF,,,,,,,,1.684455,,,,,,,,,,,,,,,,,,,,,,,5ed77f0ef8efa803b4086a89,60a7d7fc4ee33faed7ff28cb,2021-05-21_16h56.05.967,Simcolourproject_2stim_asymm_v5,2020.2.10,Win32,60,60a5f9bf14d0aa2821c4bb84,,,,,1523,-84,-128,1,0,0,response5disk,,3,-23,-9,1,0,0,rectangle,-23,-9,1,0,0,6,"[237,321,218,34,81,157,256,219,163,148,120,202,144,77,38,217,254,165,68,223]",-23,-9,1,0,0,0,86,86,11,1,,,
,,,,,,,,,,,,,FF,,,,,,,,1.48245,,,,,,,,,,,,,,,,,,,,,,,5ed77f0ef8efa803b4086a89,60a7d7fc4ee33faed7ff28cb,2021-05-21_16h56.05.967,Simcolourproject_2stim_asymm_v5,2020.2.10,Win32,60,60a5f9bf14d0aa2821c4bb84,,,,,1315,-73,-119,1,0,0,response5disk,,3,9,16,1,0,0,rectangle,9,16,1,0,0,3,"[237,321,218,34,81,157,256,219,163,148,120,202,144,77,38,217,254,165,68,223]",9,16,1,0,0,0,87,87,125,1,,,
,,,,,,,,,,,,,FF,,,,,,,,1.24403,,,,,,,,,,,,,,,,,,,,,,,5ed77f0ef8efa803b4086a89,60a7d7fc4ee33faed7ff28cb,2021-05-21_16h56.05.967,Simcolourproject_2stim_asymm_v5,2020.2.10,Win32,60,60a5f9bf14d0aa2821c4bb84,,,,,2646,-96,-157,1,0,0,response5disk,,3,-33,0,1,0,0,rectangle,-33,0,1,0,0,1,"[237,321,218,34,81,157,256,219,163,148,120,202,144,77,38,217,254,165,68,223]",-33,0,1,0,0,0,88,88,88,1,,,
,,,,,,,,,,,,,FF,,,,,,,,1.587245,,,,,,,,,,,,,,,,,,,,,,,5ed77f0ef8efa803b4086a89,60a7d7fc4ee33faed7ff28cb,2021-05-21_16h56.05.967,Simcolourproject_2stim_asymm_v5,2020.2.10,Win32,60,60a5f9bf14d0aa2821c4bb84,,,,,2462,157,63,1,0,0,response1disk,,6,25,2,1,0,0,rectangle,25,2,1,0,0,1,"[237,321,218,34,81,157,256,219,163,148,120,202,144,77,38,217,254,165,68,223]",25,2,1,0,0,0,89,89,63,1,,,
,,,,,,,,,,,,,FF,,,,,,,,2.99164,,,,,,,,,,,,,,,,,,,,,,,5ed77f0ef8efa803b4086a89,60a7d7fc4ee33faed7ff28cb,2021-05-21_16h56.05.967,Simcolourproject_2stim_asymm_v5,2020.2.10,Win32,60,60a5f9bf14d0aa2821c4bb84,,,,,3727,64,-195,1,0,0,response3disk,,4,-25,4,1,0,0,rectangle,-25,4,1,0,0,6,"[237,321,218,34,81,157,256,219,163,148,120,202,144,77,38,217,254,165,68,223]",-25,4,1,0,0,0,90,90,85,1,,,
,,,,,,,,,,,,,FF,,,,,,,,1.042475,,,,,,,,,,,,,,,,,,,,,,,5ed77f0ef8efa803b4086a89,60a7d7fc4ee33faed7ff28cb,2021-05-21_16h56.05.967,Simcolourproject_2stim_asymm_v5,2020.2.10,Win32,60,60a5f9bf14d0aa2821c4bb84,,,,,1895,-184,51,1,0,0,response7disk,,1,-59,11,1,0,0,rectangle,-59,11,1,0,0,5,"[237,321,218,34,81,157,256,219,163,148,120,202,144,77,38,217,254,165,68,223]",-59,11,1,0,0,0,91,91,140,1,,,
,,,,,,,,,,,,,FF,,,,,,,,1.34771,,,,,,,,,,,,,,,,,,,,,,,5ed77f0ef8efa803b4086a89,60a7d7fc4ee33faed7ff28cb,2021-05-21_16h56.05.967,Simcolourproject_2stim_asymm_v5,2020.2.10,Win32,60,60a5f9bf14d0aa2821c4bb84,,,,,40,193,-111,1,0,0,response3disk,,5,15,16,1,0,0,rectangle,15,16,1,0,0,6,"[237,321,218,34,81,157,256,219,163,148,120,202,144,77,38,217,254,165,68,223]",15,16,1,0,0,0,92,92,147,1,,,
,,,,,,,,,,,,,FF,,,,,,,,1.330175,,,,,,,,,,,,,,,,,,,,,,,5ed77f0ef8efa803b4086a89,60a7d7fc4ee33faed7ff28cb,2021-05-21_16h56.05.967,Simcolourproject_2stim_asymm_v5,2020.2.10,Win32,60,60a5f9bf14d0aa2821c4bb84,,,,,1299,-201,-78,1,0,0,response5disk,,5,15,2,1,0,0,rectangle,15,2,1,0,0,6,"[237,321,218,34,81,157,256,219,163,148,120,202,144,77,38,217,254,165,68,223]",15,2,1,0,0,0,93,93,83,1,,,
,,,,,,,,,,,,,FF,,,,,,,,1.899015,,,,,,,,,,,,,,,,,,,,,,,5ed77f0ef8efa803b4086a89,60a7d7fc4ee33faed7ff28cb,2021-05-21_16h56.05.967,Simcolourproject_2stim_asymm_v5,2020.2.10,Win32,60,60a5f9bf14d0aa2821c4bb84,,,,,2466,59,-132,1,0,0,response3disk,,4,27,-10,1,0,0,rectangle,27,-10,1,0,0,1,"[237,321,218,34,81,157,256,219,163,148,120,202,144,77,38,217,254,165,68,223]",27,-10,1,0,0,0,94,94,104,1,,,
,,,,,,,,,,,,,FF,,,,,,,,1.568,,,,,,,,,,,,,,,,,,,,,,,5ed77f0ef8efa803b4086a89,60a7d7fc4ee33faed7ff28cb,2021-05-21_16h56.05.967,Simcolourproject_2stim_asymm_v5,2020.2.10,Win32,60,60a5f9bf14d0aa2821c4bb84,,,,,1450,-162,-83,1,0,0,response5disk,,4,-10,-9,1,0,0,rectangle,-10,-9,1,0,0,7,"[237,321,218,34,81,157,256,219,163,148,120,202,144,77,38,217,254,165,68,223]",-10,-9,1,0,0,0,95,95,54,1,,,
,,,,,,,,,,,,,FF,,,,,,,,2.578315,,,,,,,,,,,,,,,,,,,,,,,5ed77f0ef8efa803b4086a89,60a7d7fc4ee33faed7ff28cb,2021-05-21_16h56.05.967,Simcolourproject_2stim_asymm_v5,2020.2.10,Win32,60,60a5f9bf14d0aa2821c4bb84,,,,,3184,95,-174,1,0,0,response3disk,,4,42,-5,1,0,0,rectangle,42,-5,1,0,0,2,"[237,321,218,34,81,157,256,219,163,148,120,202,144,77,38,217,254,165,68,223]",42,-5,1,0,0,0,96,96,159,1,,,
,,,,,,,,,,,,,FF,,,,,,,,1.676135,,,,,,,,,,,,,,,,,,,,,,,5ed77f0ef8efa803b4086a89,60a7d7fc4ee33faed7ff28cb,2021-05-21_16h56.05.967,Simcolourproject_2stim_asymm_v5,2020.2.10,Win32,60,60a5f9bf14d0aa2821c4bb84,,,,,3004,-138,-73,1,0,0,response5disk,,4,12,27,1,0,0,rectangle,12,27,1,0,0,0,"[237,321,218,34,81,157,256,219,163,148,120,202,144,77,38,217,254,165,68,223]",12,27,1,0,0,0,97,97,14,1,,,
,,,,,,,,,,,,,FF,,,,,,,,1.939405,,,,,,,,,,,,,,,,,,,,,,,5ed77f0ef8efa803b4086a89,60a7d7fc4ee33faed7ff28cb,2021-05-21_16h56.05.967,Simcolourproject_2stim_asymm_v5,2020.2.10,Win32,60,60a5f9bf14d0aa2821c4bb84,,,,,2968,149,-58,1,0,0,response3disk,,5,18,-4,1,0,0,rectangle,18,-4,1,0,0,3,"[237,321,218,34,81,157,256,219,163,148,120,202,144,77,38,217,254,165,68,223]",18,-4,1,0,0,0,98,98,42,1,,,
,,,,,,,,,,,,,FF,,,,,,,,1.250785,,,,,,,,,,,,,,,,,,,,,,,5ed77f0ef8efa803b4086a89,60a7d7fc4ee33faed7ff28cb,2021-05-21_16h56.05.967,Simcolourproject_2stim_asymm_v5,2020.2.10,Win32,60,60a5f9bf14d0aa2821c4bb84,,,,,1741,100,127,1,0,0,response1disk,,7,16,-25,1,0,0,rectangle,16,-25,1,0,0,5,"[237,321,218,34,81,157,256,219,163,148,120,202,144,77,38,217,254,165,68,223]",16,-25,1,0,0,0,99,99,51,1,,,
,,,,,,,,,,,,,FF,,,,,,,,1.701685,,,,,,,,,,,,,,,,,,,,,,,5ed77f0ef8efa803b4086a89,60a7d7fc4ee33faed7ff28cb,2021-05-21_16h56.05.967,Simcolourproject_2stim_asymm_v5,2020.2.10,Win32,60,60a5f9bf14d0aa2821c4bb84,,,,,4028,-74,-106,1,0,0,response5disk,,3,-3,6,1,0,0,rectangle,-3,6,1,0,0,2,"[237,321,218,34,81,157,256,219,163,148,120,202,144,77,38,217,254,165,68,223]",-3,6,1,0,0,0,100,100,6,1,,,
,,,,,,,,,,,,,FF,,,,,,,,1.86767,,,,,,,,,,,,,,,,,,,,,,,5ed77f0ef8efa803b4086a89,60a7d7fc4ee33faed7ff28cb,2021-05-21_16h56.05.967,Simcolourproject_2stim_asymm_v5,2020.2.10,Win32,60,60a5f9bf14d0aa2821c4bb84,,,,,694,65,-145,1,0,0,response3disk,,4,1,-1,1,0,0,rectangle,1,-1,1,0,0,4,"[237,321,218,34,81,157,256,219,163,148,120,202,144,77,38,217,254,165,68,223]",1,-1,1,0,0,0,101,101,89,1,,,
,,,,,,,,,,,,,FF,,,,,,,,2.268515,,,,,,,,,,,,,,,,,,,,,,,5ed77f0ef8efa803b4086a89,60a7d7fc4ee33faed7ff28cb,2021-05-21_16h56.05.967,Simcolourproject_2stim_asymm_v5,2020.2.10,Win32,60,60a5f9bf14d0aa2821c4bb84,,,,,2838,-145,-95,1,0,0,response5disk,,4,-40,-1,1,0,0,rectangle,-40,-1,1,0,0,1,"[237,321,218,34,81,157,256,219,163,148,120,202,144,77,38,217,254,165,68,223]",-40,-1,1,0,0,0,102,102,99,1,,,
,,,,,,,,,,,,,FF,,,,,,,,1.717375,,,,,,,,,,,,,,,,,,,,,,,5ed77f0ef8efa803b4086a89,60a7d7fc4ee33faed7ff28cb,2021-05-21_16h56.05.967,Simcolourproject_2stim_asymm_v5,2020.2.10,Win32,60,60a5f9bf14d0aa2821c4bb84,,,,,2033,-112,58,1,0,0,response7disk,,1,-22,11,1,0,0,rectangle,-22,11,1,0,0,1,"[237,321,218,34,81,157,256,219,163,148,120,202,144,77,38,217,254,165,68,223]",-22,11,1,0,0,0,103,103,152,1,,,
,,,,,,,,,,,,,FF,,,,,,,,1.967895,,,,,,,,,,,,,,,,,,,,,,,5ed77f0ef8efa803b4086a89,60a7d7fc4ee33faed7ff28cb,2021-05-21_16h56.05.967,Simcolourproject_2stim_asymm_v5,2020.2.10,Win32,60,60a5f9bf14d0aa2821c4bb84,,,,,3798,87,-183,1,0,0,response3disk,,4,-22,-15,1,0,0,rectangle,-22,-15,1,0,0,2,"[237,321,218,34,81,157,256,219,163,148,120,202,144,77,38,217,254,165,68,223]",-22,-15,1,0,0,0,104,104,154,1,,,
,,,,,,,,,,,,,FF,,,,,,,,1.734205,,,,,,,,,,,,,,,,,,,,,,,5ed77f0ef8efa803b4086a89,60a7d7fc4ee33faed7ff28cb,2021-05-21_16h56.05.967,Simcolourproject_2stim_asymm_v5,2020.2.10,Win32,60,60a5f9bf14d0aa2821c4bb84,,,,,3549,142,-71,1,0,0,response3disk,,5,0,-11,1,0,0,rectangle,0,-11,1,0,0,4,"[237,321,218,34,81,157,256,219,163,148,120,202,144,77,38,217,254,165,68,223]",0,-11,1,0,0,0,105,105,131,1,,,
,,,,,,,,,,,,,FF,,,,,,,,1.33256,,,,,,,,,,,,,,,,,,,,,,,5ed77f0ef8efa803b4086a89,60a7d7fc4ee33faed7ff28cb,2021-05-21_16h56.05.967,Simcolourproject_2stim_asymm_v5,2020.2.10,Win32,60,60a5f9bf14d0aa2821c4bb84,,,,,2840,82,-148,1,0,0,response3disk,,4,8,-13,1,0,0,rectangle,8,-13,1,0,0,2,"[237,321,218,34,81,157,256,219,163,148,120,202,144,77,38,217,254,165,68,223]",8,-13,1,0,0,0,106,106,118,1,,,
,,,,,,,,,,,,,FF,,,,,,,,3.330115,,,,,,,,,,,,,,,,,,,,,,,5ed77f0ef8efa803b4086a89,60a7d7fc4ee33faed7ff28cb,2021-05-21_16h56.05.967,Simcolourproject_2stim_asymm_v5,2020.2.10,Win32,60,60a5f9bf14d0aa2821c4bb84,,,,,2743,-68,-186,1,0,0,response5disk,,3,2,-6,1,0,0,rectangle,2,-6,1,0,0,5,"[237,321,218,34,81,157,256,219,163,148,120,202,144,77,38,217,254,165,68,223]",2,-6,1,0,0,0,107,107,112,1,,,
,,,,,,,,,,,,,FF,,,,,,,,2.569805,,,,,,,,,,,,,,,,,,,,,,,5ed77f0ef8efa803b4086a89,60a7d7fc4ee33faed7ff28cb,2021-05-21_16h56.05.967,Simcolourproject_2stim_asymm_v5,2020.2.10,Win32,60,60a5f9bf14d0aa2821c4bb84,,,,,2585,-80,-172,1,0,0,response5disk,,3,3,-11,1,0,0,rectangle,3,-11,1,0,0,1,"[237,321,218,34,81,157,256,219,163,148,120,202,144,77,38,217,254,165,68,223]",3,-11,1,0,0,0,108,108,101,1,,,
,,,,,,,,,,,,,FF,,,,,,,,3.90625,,,,,,,,,,,,,,,,,,,,,,,5ed77f0ef8efa803b4086a89,60a7d7fc4ee33faed7ff28cb,2021-05-21_16h56.05.967,Simcolourproject_2stim_asymm_v5,2020.2.10,Win32,60,60a5f9bf14d0aa2821c4bb84,,,,,572,-200,-79,1,0,0,response5disk,,3,-32,4,1,0,0,rectangle,-32,4,1,0,0,1,"[237,321,218,34,81,157,256,219,163,148,120,202,144,77,38,217,254,165,68,223]",-32,4,1,0,0,0,109,109,113,1,,,
,,,,,,,,,,,,,FF,,,,,,,,1.86659,,,,,,,,,,,,,,,,,,,,,,,5ed77f0ef8efa803b4086a89,60a7d7fc4ee33faed7ff28cb,2021-05-21_16h56.05.967,Simcolourproject_2stim_asymm_v5,2020.2.10,Win32,60,60a5f9bf14d0aa2821c4bb84,,,,,2970,64,-158,1,0,0,response3disk,,4,44,-6,1,0,0,rectangle,44,-6,1,0,0,2,"[237,321,218,34,81,157,256,219,163,148,120,202,144,77,38,217,254,165,68,223]",44,-6,1,0,0,0,110,110,91,1,,,
,,,,,,,,,,,,,FF,,,,,,,,2.71405,,,,,,,,,,,,,,,,,,,,,,,5ed77f0ef8efa803b4086a89,60a7d7fc4ee33faed7ff28cb,2021-05-21_16h56.05.967,Simcolourproject_2stim_asymm_v5,2020.2.10,Win32,60,60a5f9bf14d0aa2821c4bb84,,,,,994,131,-80,1,0,0,response3disk,,5,6,-8,1,0,0,rectangle,6,-8,1,0,0,2,"[237,321,218,34,81,157,256,219,163,148,120,202,144,77,38,217,254,165,68,223]",6,-8,1,0,0,0,111,111,130,1,,,
,,,,,,,,,,,,,FF,,,,,,,,1.833245,,,,,,,,,,,,,,,,,,,,,,,5ed77f0ef8efa803b4086a89,60a7d7fc4ee33faed7ff28cb,2021-05-21_16h56.05.967,Simcolourproject_2stim_asymm_v5,2020.2.10,Win32,60,60a5f9bf14d0aa2821c4bb84,,,,,2945,-136,90,1,0,0,response7disk,,1,-43,-2,1,0,0,rectangle,-43,-2,1,0,0,4,"[237,321,218,34,81,157,256,219,163,148,120,202,144,77,38,217,254,165,68,223]",-43,-2,1,0,0,0,112,112,35,1,,,
,,,,,,,,,,,,,FF,,,,,,,,3.371505,,,,,,,,,,,,,,,,,,,,,,,5ed77f0ef8efa803b4086a89,60a7d7fc4ee33faed7ff28cb,2021-05-21_16h56.05.967,Simcolourproject_2stim_asymm_v5,2020.2.10,Win32,60,60a5f9bf14d0aa2821c4bb84,,,,,3552,-151,50,1,0,0,response7disk,,1,-10,-5,1,0,0,rectangle,-10,-5,1,0,0,6,"[237,321,218,34,81,157,256,219,163,148,120,202,144,77,38,217,254,165,68,223]",-10,-5,1,0,0,0,113,113,127,1,,,
,,,,,,,,,,,,,FF,,,,,,,,1.40011,,,,,,,,,,,,,,,,,,,,,,,5ed77f0ef8efa803b4086a89,60a7d7fc4ee33faed7ff28cb,2021-05-21_16h56.05.967,Simcolourproject_2stim_asymm_v5,2020.2.10,Win32,60,60a5f9bf14d0aa2821c4bb84,,,,,1673,-182,-68,1,0,0,response5disk,,1,-48,10,1,0,0,rectangle,-48,10,1,0,0,4,"[237,321,218,34,81,157,256,219,163,148,120,202,144,77,38,217,254,165,68,223]",-48,10,1,0,0,0,114,114,59,1,,,
,,,,,,,,,,,,,FF,,,,,,,,1.96863,,,,,,,,,,,,,,,,,,,,,,,5ed77f0ef8efa803b4086a89,60a7d7fc4ee33faed7ff28cb,2021-05-21_16h56.05.967,Simcolourproject_2stim_asymm_v5,2020.2.10,Win32,60,60a5f9bf14d0aa2821c4bb84,,,,,2362,-127,80,1,0,0,response7disk,,1,46,21,1,0,0,rectangle,46,21,1,0,0,6,"[237,321,218,34,81,157,256,219,163,148,120,202,144,77,38,217,254,165,68,223]",46,21,1,0,0,0,115,115,44,1,,,
,,,,,,,,,,,,,FF,,,,,,,,1.516895,,,,,,,,,,,,,,,,,,,,,,,5ed77f0ef8efa803b4086a89,60a7d7fc4ee33faed7ff28cb,2021-05-21_16h56.05.967,Simcolourproject_2stim_asymm_v5,2020.2.10,Win32,60,60a5f9bf14d0aa2821c4bb84,,,,,1466,-77,-179,1,0,0,response5disk,,3,-14,-9,1,0,0,rectangle,-14,-9,1,0,0,6,"[237,321,218,34,81,157,256,219,163,148,120,202,144,77,38,217,254,165,68,223]",-14,-9,1,0,0,0,116,116,70,1,,,
,,,,,,,,,,,,,FF,,,,,,,,1.5178,,,,,,,,,,,,,,,,,,,,,,,5ed77f0ef8efa803b4086a89,60a7d7fc4ee33faed7ff28cb,2021-05-21_16h56.05.967,Simcolourproject_2stim_asymm_v5,2020.2.10,Win32,60,60a5f9bf14d0aa2821c4bb84,,,,,1334,177,-91,1,0,0,response3disk,,5,-3,13,1,0,0,rectangle,-3,13,1,0,0,2,"[237,321,218,34,81,157,256,219,163,148,120,202,144,77,38,217,254,165,68,223]",-3,13,1,0,0,0,117,117,28,1,,,
,,,,,,,,,,,,,FF,,,,,,,,1.63485,,,,,,,,,,,,,,,,,,,,,,,5ed77f0ef8efa803b4086a89,60a7d7fc4ee33faed7ff28cb,2021-05-21_16h56.05.967,Simcolourproject_2stim_asymm_v5,2020.2.10,Win32,60,60a5f9bf14d0aa2821c4bb84,,,,,773,130,62,1,0,0,response1disk,,6,-35,8,1,0,0,rectangle,-35,8,1,0,0,6,"[237,321,218,34,81,157,256,219,163,148,120,202,144,77,38,217,254,165,68,223]",-35,8,1,0,0,0,118,118,37,1,,,
,,,,,,,,,,,,,FF,,,,,,,,1.51607,,,,,,,,,,,,,,,,,,,,,,,5ed77f0ef8efa803b4086a89,60a7d7fc4ee33faed7ff28cb,2021-05-21_16h56.05.967,Simcolourproject_2stim_asymm_v5,2020.2.10,Win32,60,60a5f9bf14d0aa2821c4bb84,,,,,2142,177,48,1,0,0,response1disk,,6,43,-1,1,0,0,rectangle,-189,78,1,0,0,1,"[237,321,218,34,81,157,256,219,163,148,120,202,144,77,38,217,254,165,68,223]",19,4,1,0,0,0,119,119,30,1,,response7disk_3,rectangle
,,,,,,,,,,,,,FF,,,,,,,,1.59895,,,,,,,,,,,,,,,,,,,,,,,5ed77f0ef8efa803b4086a89,60a7d7fc4ee33faed7ff28cb,2021-05-21_16h56.05.967,Simcolourproject_2stim_asymm_v5,2020.2.10,Win32,60,60a5f9bf14d0aa2821c4bb84,,,,,3754,-169,-89,1,0,0,response5disk,,1,16,8,1,0,0,rectangle,16,8,1,0,0,6,"[237,321,218,34,81,157,256,219,163,148,120,202,144,77,38,217,254,165,68,223]",16,8,1,0,0,0,120,120,17,1,,,
,,,,,,,,,,,,,FF,,,,,,,,1.20521,,,,,,,,,,,,,,,,,,,,,,,5ed77f0ef8efa803b4086a89,60a7d7fc4ee33faed7ff28cb,2021-05-21_16h56.05.967,Simcolourproject_2stim_asymm_v5,2020.2.10,Win32,60,60a5f9bf14d0aa2821c4bb84,,,,,1108,111,-216,1,0,0,response3disk,,4,9,12,1,0,0,rectangle,9,12,1,0,0,4,"[237,321,218,34,81,157,256,219,163,148,120,202,144,77,38,217,254,165,68,223]",9,12,1,0,0,0,121,121,31,1,,,
,,,,,,,,,,,,,FF,,,,,,,,1.483455,,,,,,,,,,,,,,,,,,,,,,,5ed77f0ef8efa803b4086a89,60a7d7fc4ee33faed7ff28cb,2021-05-21_16h56.05.967,Simcolourproject_2stim_asymm_v5,2020.2.10,Win32,60,60a5f9bf14d0aa2821c4bb84,,,,,275,158,50,1,0,0,response1disk,,6,-12,0,1,0,0,rectangle,-12,0,1,0,0,3,"[237,321,218,34,81,157,256,219,163,148,120,202,144,77,38,217,254,165,68,223]",-12,0,1,0,0,0,122,122,29,1,,,
,,,,,,,,,,,,,FF,,,,,,,,1.156355,,,,,,,,,,,,,,,,,,,,,,,5ed77f0ef8efa803b4086a89,60a7d7fc4ee33faed7ff28cb,2021-05-21_16h56.05.967,Simcolourproject_2stim_asymm_v5,2020.2.10,Win32,60,60a5f9bf14d0aa2821c4bb84,,,,,3927,102,134,1,0,0,response1disk,,7,6,-16,1,0,0,rectangle,6,-16,1,0,0,4,"[237,321,218,34,81,157,256,219,163,148,120,202,144,77,38,217,254,165,68,223]",6,-16,1,0,0,0,123,123,129,1,,,
,,,,,,,,,,,,,FF,,,,,,,,2.704825,,,,,,,,,,,,,,,,,,,,,,,5ed77f0ef8efa803b4086a89,60a7d7fc4ee33faed7ff28cb,2021-05-21_16h56.05.967,Simcolourproject_2stim_asymm_v5,2020.2.10,Win32,60,60a5f9bf14d0aa2821c4bb84,,,,,2322,-46,-84,1,0,0,response5disk,,3,-3,5,1,0,0,rectangle,-3,5,1,0,0,3,"[237,321,218,34,81,157,256,219,163,148,120,202,144,77,38,217,254,165,68,223]",-3,5,1,0,0,0,124,124,116,1,,,
,,,,,,,,,,,,,FF,,,,,,,,1.54108,,,,,,,,,,,,,,,,,,,,,,,5ed77f0ef8efa803b4086a89,60a7d7fc4ee33faed7ff28cb,2021-05-21_16h56.05.967,Simcolourproject_2stim_asymm_v5,2020.2.10,Win32,60,60a5f9bf14d0aa2821c4bb84,,,,,1565,160,-101,1,0,0,response3disk,,5,25,-6,1,0,0,rectangle,25,-6,1,0,0,4,"[237,321,218,34,81,157,256,219,163,148,120,202,144,77,38,217,254,165,68,223]",25,-6,1,0,0,0,125,125,3,1,,,
,,,,,,,,,,,,,FF,,,,,,,,2.34551,,,,,,,,,,,,,,,,,,,,,,,5ed77f0ef8efa803b4086a89,60a7d7fc4ee33faed7ff28cb,2021-05-21_16h56.05.967,Simcolourproject_2stim_asymm_v5,2020.2.10,Win32,60,60a5f9bf14d0aa2821c4bb84,,,,,2958,173,-154,1,0,0,response3disk,,5,9,-16,1,0,0,rectangle,9,-16,1,0,0,4,"[237,321,218,34,81,157,256,219,163,148,120,202,144,77,38,217,254,165,68,223]",9,-16,1,0,0,0,126,126,45,1,,,
,,,,,,,,,,,,,FF,,,,,,,,1.820085,,,,,,,,,,,,,,,,,,,,,,,5ed77f0ef8efa803b4086a89,60a7d7fc4ee33faed7ff28cb,2021-05-21_16h56.05.967,Simcolourproject_2stim_asymm_v5,2020.2.10,Win32,60,60a5f9bf14d0aa2821c4bb84,,,,,4340,-141,-69,1,0,0,response5disk,,5,-21,-2,1,0,0,rectangle,-21,-2,1,0,0,6,"[237,321,218,34,81,157,256,219,163,148,120,202,144,77,38,217,254,165,68,223]",-21,-2,1,0,0,0,127,127,151,1,,,
,,,,,,,,,,,,,FF,,,,,,,,1.54878,,,,,,,,,,,,,,,,,,,,,,,5ed77f0ef8efa803b4086a89,60a7d7fc4ee33faed7ff28cb,2021-05-21_16h56.05.967,Simcolourproject_2stim_asymm_v5,2020.2.10,Win32,60,60a5f9bf14d0aa2821c4bb84,,,,,3755,-66,-149,1,0,0,response5disk,,3,-14,-8,1,0,0,rectangle,-14,-8,1,0,0,2,"[237,321,218,34,81,157,256,219,163,148,120,202,144,77,38,217,254,165,68,223]",-14,-8,1,0,0,0,128,128,86,1,,,
,,,,,,,,,,,,,FF,,,,,,,,1.98911,,,,,,,,,,,,,,,,,,,,,,,5ed77f0ef8efa803b4086a89,60a7d7fc4ee33faed7ff28cb,2021-05-21_16h56.05.967,Simcolourproject_2stim_asymm_v5,2020.2.10,Win32,60,60a5f9bf14d0aa2821c4bb84,,,,,3806,72,-109,1,0,0,response3disk,,4,-20,22,1,0,0,rectangle,-20,22,1,0,0,6,"[237,321,218,34,81,157,256,219,163,148,120,202,144,77,38,217,254,165,68,223]",-20,22,1,0,0,0,129,129,106,1,,,
,,,,,,,,,,,,,FF,,,,,,,,1.289685,,,,,,,,,,,,,,,,,,,,,,,5ed77f0ef8efa803b4086a89,60a7d7fc4ee33faed7ff28cb,2021-05-21_16h56.05.967,Simcolourproject_2stim_asymm_v5,2020.2.10,Win32,60,60a5f9bf14d0aa2821c4bb84,,,,,1669,78,138,1,0,0,response1disk,,7,30,2,1,0,0,rectangle,30,2,1,0,0,1,"[237,321,218,34,81,157,256,219,163,148,120,202,144,77,38,217,254,165,68,223]",30,2,1,0,0,0,130,130,149,1,,,
,,,,,,,,,,,,,FF,,,,,,,,2.795275,,,,,,,,,,,,,,,,,,,,,,,5ed77f0ef8efa803b4086a89,60a7d7fc4ee33faed7ff28cb,2021-05-21_16h56.05.967,Simcolourproject_2stim_asymm_v5,2020.2.10,Win32,60,60a5f9bf14d0aa2821c4bb84,,,,,3286,-103,-145,1,0,0,response5disk,,3,-45,-11,1,0,0,rectangle,-45,-11,1,0,0,2,"[237,321,218,34,81,157,256,219,163,148,120,202,144,77,38,217,254,165,68,223]",-45,-11,1,0,0,0,131,131,77,1,,,
,,,,,,,,,,,,,FF,,,,,,,,1.53439,,,,,,,,,,,,,,,,,,,,,,,5ed77f0ef8efa803b4086a89,60a7d7fc4ee33faed7ff28cb,2021-05-21_16h56.05.967,Simcolourproject_2stim_asymm_v5,2020.2.10,Win32,60,60a5f9bf14d0aa2821c4bb84,,,,,2294,-118,-66,1,0,0,response5disk,,3,35,9,1,0,0,rectangle,35,9,1,0,0,2,"[237,321,218,34,81,157,256,219,163,148,120,202,144,77,38,217,254,165,68,223]",35,9,1,0,0,0,132,132,62,1,,,
,,,,,,,,,,,,,FF,,,,,,,,3.35718,,,,,,,,,,,,,,,,,,,,,,,5ed77f0ef8efa803b4086a89,60a7d7fc4ee33faed7ff28cb,2021-05-21_16h56.05.967,Simcolourproject_2stim_asymm_v5,2020.2.10,Win32,60,60a5f9bf14d0aa2821c4bb84,,,,,4114,-84,-131,1,0,0,response5disk,,3,36,-28,1,0,0,rectangle,36,-28,1,0,0,4,"[237,321,218,34,81,157,256,219,163,148,120,202,144,77,38,217,254,165,68,223]",36,-28,1,0,0,0,133,133,100,1,,,
,,,,,,,,,,,,,FF,,,,,,,,3.575875,,,,,,,,,,,,,,,,,,,,,,,5ed77f0ef8efa803b4086a89,60a7d7fc4ee33faed7ff28cb,2021-05-21_16h56.05.967,Simcolourproject_2stim_asymm_v5,2020.2.10,Win32,60,60a5f9bf14d0aa2821c4bb84,,,,,2476,-168,-61,1,0,0,response5disk,,5,20,7,1,0,0,rectangle,20,7,1,0,0,0,"[237,321,218,34,81,157,256,219,163,148,120,202,144,77,38,217,254,165,68,223]",20,7,1,0,0,0,134,134,137,1,,,
,,,,,,,,,,,,,FF,,,,,,,,1.640565,,,,,,,,,,,,,,,,,,,,,,,5ed77f0ef8efa803b4086a89,60a7d7fc4ee33faed7ff28cb,2021-05-21_16h56.05.967,Simcolourproject_2stim_asymm_v5,2020.2.10,Win32,60,60a5f9bf14d0aa2821c4bb84,,,,,2230,-60,-132,1,0,0,response5disk,,3,29,-6,1,0,0,rectangle,29,-6,1,0,0,6,"[237,321,218,34,81,157,256,219,163,148,120,202,144,77,38,217,254,165,68,223]",29,-6,1,0,0,0,135,135,73,1,,,
,,,,,,,,,,,,,FF,,,,,,,,1.85061,,,,,,,,,,,,,,,,,,,,,,,5ed77f0ef8efa803b4086a89,60a7d7fc4ee33faed7ff28cb,2021-05-21_16h56.05.967,Simcolourproject_2stim_asymm_v5,2020.2.10,Win32,60,60a5f9bf14d0aa2821c4bb84,,,,,541,77,-125,1,0,0,response3disk,,4,36,-15,1,0,0,rectangle,36,-15,1,0,0,5,"[237,321,218,34,81,157,256,219,163,148,120,202,144,77,38,217,254,165,68,223]",36,-15,1,0,0,0,136,136,124,1,,,
,,,,,,,,,,,,,FF,,,,,,,,1.73419,,,,,,,,,,,,,,,,,,,,,,,5ed77f0ef8efa803b4086a89,60a7d7fc4ee33faed7ff28cb,2021-05-21_16h56.05.967,Simcolourproject_2stim_asymm_v5,2020.2.10,Win32,60,60a5f9bf14d0aa2821c4bb84,,,,,1056,-222,50,1,0,0,response7disk,,1,19,-9,1,0,0,rectangle,19,-9,1,0,0,4,"[237,321,218,34,81,157,256,219,163,148,120,202,144,77,38,217,254,165,68,223]",19,-9,1,0,0,0,137,137,39,1,,,
,,,,,,,,,,,,,FF,,,,,,,,1.38343,,,,,,,,,,,,,,,,,,,,,,,5ed77f0ef8efa803b4086a89,60a7d7fc4ee33faed7ff28cb,2021-05-21_16h56.05.967,Simcolourproject_2stim_asymm_v5,2020.2.10,Win32,60,60a5f9bf14d0aa2821c4bb84,,,,,3736,-58,-180,1,0,0,response5disk,,3,-16,-24,1,0,0,rectangle,-16,-24,1,0,0,1,"[237,321,218,34,81,157,256,219,163,148,120,202,144,77,38,217,254,165,68,223]",-16,-24,1,0,0,0,138,138,122,1,,,
,,,,,,,,,,,,,FF,,,,,,,,1.917595,,,,,,,,,,,,,,,,,,,,,,,5ed77f0ef8efa803b4086a89,60a7d7fc4ee33faed7ff28cb,2021-05-21_16h56.05.967,Simcolourproject_2stim_asymm_v5,2020.2.10,Win32,60,60a5f9bf14d0aa2821c4bb84,,,,,575,120,-76,1,0,0,response3disk,,5,-11,9,1,0,0,rectangle,-11,9,1,0,0,3,"[237,321,218,34,81,157,256,219,163,148,120,202,144,77,38,217,254,165,68,223]",-11,9,1,0,0,0,139,139,61,1,,,
,,,,,,,,,,,,,FF,,,,,,,,3.50198,,,,,,,,,,,,,,,,,,,,,,,5ed77f0ef8efa803b4086a89,60a7d7fc4ee33faed7ff28cb,2021-05-21_16h56.05.967,Simcolourproject_2stim_asymm_v5,2020.2.10,Win32,60,60a5f9bf14d0aa2821c4bb84,,,,,3028,-85,-160,1,0,0,response5disk,,3,41,-6,1,0,0,rectangle,41,-6,1,0,0,4,"[237,321,218,34,81,157,256,219,163,148,120,202,144,77,38,217,254,165,68,223]",41,-6,1,0,0,0,140,140,41,1,,,
,,,,,,,,,,,,,FF,,,,,,,,2.18584,,,,,,,,,,,,,,,,,,,,,,,5ed77f0ef8efa803b4086a89,60a7d7fc4ee33faed7ff28cb,2021-05-21_16h56.05.967,Simcolourproject_2stim_asymm_v5,2020.2.10,Win32,60,60a5f9bf14d0aa2821c4bb84,,,,,340,-136,-84,1,0,0,response5disk,,3,-22,-10,1,0,0,rectangle,-22,-10,1,0,0,6,"[237,321,218,34,81,157,256,219,163,148,120,202,144,77,38,217,254,165,68,223]",-22,-10,1,0,0,0,141,141,157,1,,,
,,,,,,,,,,,,,FF,,,,,,,,3.00136,,,,,,,,,,,,,,,,,,,,,,,5ed77f0ef8efa803b4086a89,60a7d7fc4ee33faed7ff28cb,2021-05-21_16h56.05.967,Simcolourproject_2stim_asymm_v5,2020.2.10,Win32,60,60a5f9bf14d0aa2821c4bb84,,,,,3696,-102,-81,1,0,0,response5disk,,3,-23,-10,1,0,0,rectangle,-23,-10,1,0,0,3,"[237,321,218,34,81,157,256,219,163,148,120,202,144,77,38,217,254,165,68,223]",-23,-10,1,0,0,0,142,142,68,1,,,
,,,,,,,,,,,,,FF,,,,,,,,1.384,,,,,,,,,,,,,,,,,,,,,,,5ed77f0ef8efa803b4086a89,60a7d7fc4ee33faed7ff28cb,2021-05-21_16h56.05.967,Simcolourproject_2stim_asymm_v5,2020.2.10,Win32,60,60a5f9bf14d0aa2821c4bb84,,,,,4093,-61,-131,1,0,0,response5disk,,3,16,-20,1,0,0,rectangle,171,41,1,0,0,6,"[237,321,218,34,81,157,256,219,163,148,120,202,144,77,38,217,254,165,68,223]",14,-10,1,0,0,0,143,143,71,1,,response1disk_3,rectangle
,,,,,,,,,,,,,FF,,,,,,,,3.234865,,,,,,,,,,,,,,,,,,,,,,,5ed77f0ef8efa803b4086a89,60a7d7fc4ee33faed7ff28cb,2021-05-21_16h56.05.967,Simcolourproject_2stim_asymm_v5,2020.2.10,Win32,60,60a5f9bf14d0aa2821c4bb84,,,,,1493,-165,-68,1,0,0,response5disk,,6,-47,6,1,0,0,rectangle,-47,6,1,0,0,2,"[237,321,218,34,81,157,256,219,163,148,120,202,144,77,38,217,254,165,68,223]",-47,6,1,0,0,0,144,144,56,1,,,
,,,,,,,,,,,,,FF,,,,,,,,0.900485,,,,,,,,,,,,,,,,,,,,,,,5ed77f0ef8efa803b4086a89,60a7d7fc4ee33faed7ff28cb,2021-05-21_16h56.05.967,Simcolourproject_2stim_asymm_v5,2020.2.10,Win32,60,60a5f9bf14d0aa2821c4bb84,,,,,1566,-123,62,1,0,0,response7disk,,1,-49,24,1,0,0,rectangle,-49,24,1,0,0,3,"[237,321,218,34,81,157,256,219,163,148,120,202,144,77,38,217,254,165,68,223]",-49,24,1,0,0,0,145,145,105,1,,,
,,,,,,,,,,,,,FF,,,,,,,,1.951155,,,,,,,,,,,,,,,,,,,,,,,5ed77f0ef8efa803b4086a89,60a7d7fc4ee33faed7ff28cb,2021-05-21_16h56.05.967,Simcolourproject_2stim_asymm_v5,2020.2.10,Win32,60,60a5f9bf14d0aa2821c4bb84,,,,,205,61,-148,1,0,0,response3disk,,4,34,0,1,0,0,rectangle,34,0,1,0,0,4,"[237,321,218,34,81,157,256,219,163,148,120,202,144,77,38,217,254,165,68,223]",34,0,1,0,0,0,146,146,123,1,,,
,,,,,,,,,,,,,FF,,,,,,,,1.8009,,,,,,,,,,,,,,,,,,,,,,,5ed77f0ef8efa803b4086a89,60a7d7fc4ee33faed7ff28cb,2021-05-21_16h56.05.967,Simcolourproject_2stim_asymm_v5,2020.2.10,Win32,60,60a5f9bf14d0aa2821c4bb84,,,,,627,99,55,1,0,0,response1disk,,6,24,14,1,0,0,rectangle,71,-166,1,0,0,4,"[237,321,218,34,81,157,256,219,163,148,120,202,144,77,38,217,254,165,68,223]",42,-13,1,0,0,0,147,147,69,1,,response3disk_3,rectangle
,,,,,,,,,,,,,FF,,,,,,,,1.38382,,,,,,,,,,,,,,,,,,,,,,,5ed77f0ef8efa803b4086a89,60a7d7fc4ee33faed7ff28cb,2021-05-21_16h56.05.967,Simcolourproject_2stim_asymm_v5,2020.2.10,Win32,60,60a5f9bf14d0aa2821c4bb84,,,,,2173,-155,61,1,0,0,response7disk,,1,16,-3,1,0,0,rectangle,16,-3,1,0,0,1,"[237,321,218,34,81,157,256,219,163,148,120,202,144,77,38,217,254,165,68,223]",16,-3,1,0,0,0,148,148,9,1,,,
,,,,,,,,,,,,,FF,,,,,,,,1.37161,,,,,,,,,,,,,,,,,,,,,,,5ed77f0ef8efa803b4086a89,60a7d7fc4ee33faed7ff28cb,2021-05-21_16h56.05.967,Simcolourproject_2stim_asymm_v5,2020.2.10,Win32,60,60a5f9bf14d0aa2821c4bb84,,,,,3217,117,-90,1,0,0,response3disk,,5,1,0,1,0,0,rectangle,1,0,1,0,0,1,"[237,321,218,34,81,157,256,219,163,148,120,202,144,77,38,217,254,165,68,223]",1,0,1,0,0,0,149,149,96,1,,,
,,,,,,,,,,,,,FF,,,,,,,,1.017665,,,,,,,,,,,,,,,,,,,,,,,5ed77f0ef8efa803b4086a89,60a7d7fc4ee33faed7ff28cb,2021-05-21_16h56.05.967,Simcolourproject_2stim_asymm_v5,2020.2.10,Win32,60,60a5f9bf14d0aa2821c4bb84,,,,,2014,111,-82,1,0,0,response3disk,,5,6,0,1,0,0,rectangle,6,0,1,0,0,3,"[237,321,218,34,81,157,256,219,163,148,120,202,144,77,38,217,254,165,68,223]",6,0,1,0,0,0,150,150,80,1,,,
,,,,,,,,,,,,,FF,,,,,,,,1.468225,,,,,,,,,,,,,,,,,,,,,,,5ed77f0ef8efa803b4086a89,60a7d7fc4ee33faed7ff28cb,2021-05-21_16h56.05.967,Simcolourproject_2stim_asymm_v5,2020.2.10,Win32,60,60a5f9bf14d0aa2821c4bb84,,,,,3312,67,-173,1,0,0,response3disk,,4,18,-22,1,0,0,rectangle,18,-22,1,0,0,3,"[237,321,218,34,81,157,256,219,163,148,120,202,144,77,38,217,254,165,68,223]",18,-22,1,0,0,0,151,151,46,1,,,
,,,,,,,,,,,,,FF,,,,,,,,1.60056,,,,,,,,,,,,,,,,,,,,,,,5ed77f0ef8efa803b4086a89,60a7d7fc4ee33faed7ff28cb,2021-05-21_16h56.05.967,Simcolourproject_2stim_asymm_v5,2020.2.10,Win32,60,60a5f9bf14d0aa2821c4bb84,,,,,4135,165,70,1,0,0,response1disk,,6,50,-7,1,0,0,rectangle,50,-7,1,0,0,2,"[237,321,218,34,81,157,256,219,163,148,120,202,144,77,38,217,254,165,68,223]",50,-7,1,0,0,0,152,152,27,1,,,
,,,,,,,,,,,,,FF,,,,,,,,0.7506,,,,,,,,,,,,,,,,,,,,,,,5ed77f0ef8efa803b4086a89,60a7d7fc4ee33faed7ff28cb,2021-05-21_16h56.05.967,Simcolourproject_2stim_asymm_v5,2020.2.10,Win32,60,60a5f9bf14d0aa2821c4bb84,,,,,2627,124,-86,1,0,0,response3disk,,5,15,6,1,0,0,rectangle,15,6,1,0,0,1,"[237,321,218,34,81,157,256,219,163,148,120,202,144,77,38,217,254,165,68,223]",15,6,1,0,0,0,153,153,60,1,,,
,,,,,,,,,,,,,FF,,,,,,,,1.384065,,,,,,,,,,,,,,,,,,,,,,,5ed77f0ef8efa803b4086a89,60a7d7fc4ee33faed7ff28cb,2021-05-21_16h56.05.967,Simcolourproject_2stim_asymm_v5,2020.2.10,Win32,60,60a5f9bf14d0aa2821c4bb84,,,,,1042,152,-71,1,0,0,response3disk,,5,-3,6,1,0,0,rectangle,-3,6,1,0,0,2,"[237,321,218,34,81,157,256,219,163,148,120,202,144,77,38,217,254,165,68,223]",-3,6,1,0,0,0,154,154,53,1,,,
,,,,,,,,,,,,,FF,,,,,,,,1.734315,,,,,,,,,,,,,,,,,,,,,,,5ed77f0ef8efa803b4086a89,60a7d7fc4ee33faed7ff28cb,2021-05-21_16h56.05.967,Simcolourproject_2stim_asymm_v5,2020.2.10,Win32,60,60a5f9bf14d0aa2821c4bb84,,,,,3123,-96,-163,1,0,0,response5disk,,3,36,8,1,0,0,rectangle,36,8,1,0,0,1,"[237,321,218,34,81,157,256,219,163,148,120,202,144,77,38,217,254,165,68,223]",36,8,1,0,0,0,155,155,148,1,,,
,,,,,,,,,,,,,FF,,,,,,,,2.171255,,,,,,,,,,,,,,,,,,,,,,,5ed77f0ef8efa803b4086a89,60a7d7fc4ee33faed7ff28cb,2021-05-21_16h56.05.967,Simcolourproject_2stim_asymm_v5,2020.2.10,Win32,60,60a5f9bf14d0aa2821c4bb84,,,,,844,71,-138,1,0,0,response3disk,,4,-6,-24,1,0,0,rectangle,84,-131,1,0,0,4,"[237,321,218,34,81,157,256,219,163,148,120,202,144,77,38,217,254,165,68,223]",-36,-2,1,0,0,0,156,156,95,1,,response3disk_3,rectangle
,,,,,,,,,,,,,FF,,,,,,,,2.4173,,,,,,,,,,,,,,,,,,,,,,,5ed77f0ef8efa803b4086a89,60a7d7fc4ee33faed7ff28cb,2021-05-21_16h56.05.967,Simcolourproject_2stim_asymm_v5,2020.2.10,Win32,60,60a5f9bf14d0aa2821c4bb84,,,,,1814,-149,-98,1,0,0,response5disk,,4,-25,-16,1,0,0,rectangle,-25,-16,1,0,0,5,"[237,321,218,34,81,157,256,219,163,148,120,202,144,77,38,217,254,165,68,223]",-25,-16,1,0,0,0,157,157,76,1,,,
,,,,,,,,,,,,,FF,,,,,,,,1.417305,,,,,,,,,,,,,,,,,,,,,,,5ed77f0ef8efa803b4086a89,60a7d7fc4ee33faed7ff28cb,2021-05-21_16h56.05.967,Simcolourproject_2stim_asymm_v5,2020.2.10,Win32,60,60a5f9bf14d0aa2821c4bb84,,,,,2435,64,-167,1,0,0,response3disk,,4,46,-3,1,0,0,rectangle,46,-3,1,0,0,6,"[237,321,218,34,81,157,256,219,163,148,120,202,144,77,38,217,254,165,68,223]",46,-3,1,0,0,0,158,158,114,1,,,
,,,,,,,,,,,,,FF,,,,,,,,3.16024,,,,,,,,,,,,,,,,,,,,,,,5ed77f0ef8efa803b4086a89,60a7d7fc4ee33faed7ff28cb,2021-05-21_16h56.05.967,Simcolourproject_2stim_asymm_v5,2020.2.10,Win32,60,60a5f9bf14d0aa2821c4bb84,,,,,4329,138,-103,1,0,0,response3disk,,5,14,-15,1,0,0,rectangle,14,-15,1,0,0,0,"[237,321,218,34,81,157,256,219,163,148,120,202,144,77,38,217,254,165,68,223]",14,-15,1,0,0,0,159,159,50,1,,,
,,,,,,,,,,,,,FF,,,,,,,,3.087185,,,,,,,,,,,,,,,,,,,,,,,5ed77f0ef8efa803b4086a89,60a7d7fc4ee33faed7ff28cb,2021-05-21_16h56.05.967,Simcolourproject_2stim_asymm_v5,2020.2.10,Win32,60,60a5f9bf14d0aa2821c4bb84,,,,,776,-183,-65,1,0,0,response5disk,,5,-9,6,1,0,0,rectangle,-9,6,1,0,0,4,"[237,321,218,34,81,157,256,219,163,148,120,202,144,77,38,217,254,165,68,223]",-9,6,1,0,0,0,160,160,5,1,,,
,,,,,,,,,,,,,FF,,,,,,,,1.81654,,,,,,,,,,,,,,,,,,,,,,,5ed77f0ef8efa803b4086a89,60a7d7fc4ee33faed7ff28cb,2021-05-21_16h56.05.967,Simcolourproject_2stim_asymm_v5,2020.2.10,Win32,60,60a5f9bf14d0aa2821c4bb84,,,,,1430,-98,-173,1,0,0,response5disk,,3,-18,-25,1,0,0,rectangle,-18,-25,1,0,0,4,"[237,321,218,34,81,157,256,219,163,148,120,202,144,77,38,217,254,165,68,223]",-18,-25,1,0,0,1,0,161,159,1,,,
,,,,,,,,,,,,,FF,,,,,,,,1.098185,,,,,,,,,,,,,,,,,,,,,,,5ed77f0ef8efa803b4086a89,60a7d7fc4ee33faed7ff28cb,2021-05-21_16h56.05.967,Simcolourproject_2stim_asymm_v5,2020.2.10,Win32,60,60a5f9bf14d0aa2821c4bb84,,,,,2033,-189,92,1,0,0,response7disk,,1,-8,-15,1,0,0,rectangle,66,167,1,0,0,7,"[237,321,218,34,81,157,256,219,163,148,120,202,144,77,38,217,254,165,68,223]",-23,6,1,0,0,1,1,162,135,1,,response1disk_3,rectangle
,,,,,,,,,,,,,FF,,,,,,,,2.7023,,,,,,,,,,,,,,,,,,,,,,,5ed77f0ef8efa803b4086a89,60a7d7fc4ee33faed7ff28cb,2021-05-21_16h56.05.967,Simcolourproject_2stim_asymm_v5,2020.2.10,Win32,60,60a5f9bf14d0aa2821c4bb84,,,,,2322,58,-170,1,0,0,response3disk,,4,-1,-3,1,0,0,rectangle,-1,-3,1,0,0,3,"[237,321,218,34,81,157,256,219,163,148,120,202,144,77,38,217,254,165,68,223]",-1,-3,1,0,0,1,2,163,78,1,,,
,,,,,,,,,,,,,FF,,,,,,,,1.69145,,,,,,,,,,,,,,,,,,,,,,,5ed77f0ef8efa803b4086a89,60a7d7fc4ee33faed7ff28cb,2021-05-21_16h56.05.967,Simcolourproject_2stim_asymm_v5,2020.2.10,Win32,60,60a5f9bf14d0aa2821c4bb84,,,,,994,177,-80,1,0,0,response3disk,,5,22,0,1,0,0,rectangle,66,-154,1,0,0,4,"[237,321,218,34,81,157,256,219,163,148,120,202,144,77,38,217,254,165,68,223]",25,-4,1,0,0,1,3,164,28,1,,response3disk_3,rectangle
,,,,,,,,,,,,,FF,,,,,,,,1.36501,,,,,,,,,,,,,,,,,,,,,,,5ed77f0ef8efa803b4086a89,60a7d7fc4ee33faed7ff28cb,2021-05-21_16h56.05.967,Simcolourproject_2stim_asymm_v5,2020.2.10,Win32,60,60a5f9bf14d0aa2821c4bb84,,,,,3217,159,-63,1,0,0,response3disk,,5,-14,-17,1,0,0,rectangle,-14,-17,1,0,0,5,"[237,321,218,34,81,157,256,219,163,148,120,202,144,77,38,217,254,165,68,223]",-14,-17,1,0,0,1,4,165,57,1,,,
,,,,,,,,,,,,,FF,,,,,,,,1.495895,,,,,,,,,,,,,,,,,,,,,,,5ed77f0ef8efa803b4086a89,60a7d7fc4ee33faed7ff28cb,2021-05-21_16h56.05.967,Simcolourproject_2stim_asymm_v5,2020.2.10,Win32,60,60a5f9bf14d0aa2821c4bb84,,,,,3798,95,-157,1,0,0,response3disk,,4,18,-11,1,0,0,rectangle,18,-11,1,0,0,3,"[237,321,218,34,81,157,256,219,163,148,120,202,144,77,38,217,254,165,68,223]",18,-11,1,0,0,1,5,166,106,1,,,
,,,,,,,,,,,,,FF,,,,,,,,3.02552,,,,,,,,,,,,,,,,,,,,,,,5ed77f0ef8efa803b4086a89,60a7d7fc4ee33faed7ff28cb,2021-05-21_16h56.05.967,Simcolourproject_2stim_asymm_v5,2020.2.10,Win32,60,60a5f9bf14d0aa2821c4bb84,,,,,1673,-151,-82,1,0,0,response5disk,,4,-5,-8,1,0,0,rectangle,-5,-8,1,0,0,7,"[237,321,218,34,81,157,256,219,163,148,120,202,144,77,38,217,254,165,68,223]",-5,-8,1,0,0,1,6,167,43,1,,,
,,,,,,,,,,,,,FF,,,,,,,,3.28334,,,,,,,,,,,,,,,,,,,,,,,5ed77f0ef8efa803b4086a89,60a7d7fc4ee33faed7ff28cb,2021-05-21_16h56.05.967,Simcolourproject_2stim_asymm_v5,2020.2.10,Win32,60,60a5f9bf14d0aa2821c4bb84,,,,,1407,33,-134,1,0,0,response3disk,,4,54,14,1,0,0,rectangle,54,14,1,0,0,5,"[237,321,218,34,81,157,256,219,163,148,120,202,144,77,38,217,254,165,68,223]",54,14,1,0,0,1,7,168,67,1,,,
,,,,,,,,,,,,,FF,,,,,,,,1.4238,,,,,,,,,,,,,,,,,,,,,,,5ed77f0ef8efa803b4086a89,60a7d7fc4ee33faed7ff28cb,2021-05-21_16h56.05.967,Simcolourproject_2stim_asymm_v5,2020.2.10,Win32,60,60a5f9bf14d0aa2821c4bb84,,,,,4290,105,106,1,0,0,response1disk,,7,38,11,1,0,0,rectangle,38,11,1,0,0,5,"[237,321,218,34,81,157,256,219,163,148,120,202,144,77,38,217,254,165,68,223]",38,11,1,0,0,1,8,169,110,1,,,
,,,,,,,,,,,,,FF,,,,,,,,1.42746,,,,,,,,,,,,,,,,,,,,,,,5ed77f0ef8efa803b4086a89,60a7d7fc4ee33faed7ff28cb,2021-05-21_16h56.05.967,Simcolourproject_2stim_asymm_v5,2020.2.10,Win32,60,60a5f9bf14d0aa2821c4bb84,,,,,4028,115,-86,1,0,0,response3disk,,5,-30,-5,1,0,0,rectangle,-30,-5,1,0,0,5,"[237,321,218,34,81,157,256,219,163,148,120,202,144,77,38,217,254,165,68,223]",-30,-5,1,0,0,1,9,170,142,1,,,
,,,,,,,,,,,,,FF,,,,,,,,1.701645,,,,,,,,,,,,,,,,,,,,,,,5ed77f0ef8efa803b4086a89,60a7d7fc4ee33faed7ff28cb,2021-05-21_16h56.05.967,Simcolourproject_2stim_asymm_v5,2020.2.10,Win32,60,60a5f9bf14d0aa2821c4bb84,,,,,572,115,-67,1,0,0,response3disk,,5,33,-13,1,0,0,rectangle,33,-13,1,0,0,2,"[237,321,218,34,81,157,256,219,163,148,120,202,144,77,38,217,254,165,68,223]",33,-13,1,0,0,1,10,171,27,1,,,
,,,,,,,,,,,,,FF,,,,,,,,1.968285,,,,,,,,,,,,,,,,,,,,,,,5ed77f0ef8efa803b4086a89,60a7d7fc4ee33faed7ff28cb,2021-05-21_16h56.05.967,Simcolourproject_2stim_asymm_v5,2020.2.10,Win32,60,60a5f9bf14d0aa2821c4bb84,,,,,1500,65,-142,1,0,0,response3disk,,4,43,12,1,0,0,rectangle,43,12,1,0,0,3,"[237,321,218,34,81,157,256,219,163,148,120,202,144,77,38,217,254,165,68,223]",43,12,1,0,0,1,11,172,41,1,,,
,,,,,,,,,,,,,FF,,,,,,,,3.33516,,,,,,,,,,,,,,,,,,,,,,,5ed77f0ef8efa803b4086a89,60a7d7fc4ee33faed7ff28cb,2021-05-21_16h56.05.967,Simcolourproject_2stim_asymm_v5,2020.2.10,Win32,60,60a5f9bf14d0aa2821c4bb84,,,,,3286,-86,-143,1,0,0,response5disk,,3,-46,-8,1,0,0,rectangle,-46,-8,1,0,0,5,"[237,321,218,34,81,157,256,219,163,148,120,202,144,77,38,217,254,165,68,223]",-46,-8,1,0,0,1,12,173,111,1,,,
,,,,,,,,,,,,,FF,,,,,,,,1.283915,,,,,,,,,,,,,,,,,,,,,,,5ed77f0ef8efa803b4086a89,60a7d7fc4ee33faed7ff28cb,2021-05-21_16h56.05.967,Simcolourproject_2stim_asymm_v5,2020.2.10,Win32,60,60a5f9bf14d0aa2821c4bb84,,,,,2466,149,-110,1,0,0,response3disk,,5,-28,7,1,0,0,rectangle,-28,7,1,0,0,3,"[237,321,218,34,81,157,256,219,163,148,120,202,144,77,38,217,254,165,68,223]",-28,7,1,0,0,1,13,174,19,1,,,
,,,,,,,,,,,,,FF,,,,,,,,1.58158,,,,,,,,,,,,,,,,,,,,,,,5ed77f0ef8efa803b4086a89,60a7d7fc4ee33faed7ff28cb,2021-05-21_16h56.05.967,Simcolourproject_2stim_asymm_v5,2020.2.10,Win32,60,60a5f9bf14d0aa2821c4bb84,,,,,2173,80,-125,1,0,0,response3disk,,4,-23,-6,1,0,0,rectangle,-23,-6,1,0,0,1,"[237,321,218,34,81,157,256,219,163,148,120,202,144,77,38,217,254,165,68,223]",-23,-6,1,0,0,1,14,175,118,1,,,
,,,,,,,,,,,,,FF,,,,,,,,2.565875,,,,,,,,,,,,,,,,,,,,,,,5ed77f0ef8efa803b4086a89,60a7d7fc4ee33faed7ff28cb,2021-05-21_16h56.05.967,Simcolourproject_2stim_asymm_v5,2020.2.10,Win32,60,60a5f9bf14d0aa2821c4bb84,,,,,1153,126,-64,1,0,0,response3disk,,5,-45,6,1,0,0,rectangle,-45,6,1,0,0,4,"[237,321,218,34,81,157,256,219,163,148,120,202,144,77,38,217,254,165,68,223]",-45,6,1,0,0,1,15,176,97,1,,,
,,,,,,,,,,,,,FF,,,,,,,,1.216785,,,,,,,,,,,,,,,,,,,,,,,5ed77f0ef8efa803b4086a89,60a7d7fc4ee33faed7ff28cb,2021-05-21_16h56.05.967,Simcolourproject_2stim_asymm_v5,2020.2.10,Win32,60,60a5f9bf14d0aa2821c4bb84,,,,,1299,-117,-94,1,0,0,response5disk,,5,31,-11,1,0,0,rectangle,31,-11,1,0,0,7,"[237,321,218,34,81,157,256,219,163,148,120,202,144,77,38,217,254,165,68,223]",31,-11,1,0,0,1,16,177,72,1,,,
,,,,,,,,,,,,,FF,,,,,,,,1.151905,,,,,,,,,,,,,,,,,,,,,,,5ed77f0ef8efa803b4086a89,60a7d7fc4ee33faed7ff28cb,2021-05-21_16h56.05.967,Simcolourproject_2stim_asymm_v5,2020.2.10,Win32,60,60a5f9bf14d0aa2821c4bb84,,,,,1896,-121,-75,1,0,0,response5disk,,5,6,-24,1,0,0,rectangle,6,-24,1,0,0,7,"[237,321,218,34,81,157,256,219,163,148,120,202,144,77,38,217,254,165,68,223]",6,-24,1,0,0,1,17,178,131,1,,,
,,,,,,,,,,,,,FF,,,,,,,,2.484775,,,,,,,,,,,,,,,,,,,,,,,5ed77f0ef8efa803b4086a89,60a7d7fc4ee33faed7ff28cb,2021-05-21_16h56.05.967,Simcolourproject_2stim_asymm_v5,2020.2.10,Win32,60,60a5f9bf14d0aa2821c4bb84,,,,,4351,-148,-35,1,0,0,response5disk,,5,-4,-8,1,0,0,rectangle,-4,-8,1,0,0,6,"[237,321,218,34,81,157,256,219,163,148,120,202,144,77,38,217,254,165,68,223]",-4,-8,1,0,0,1,18,179,79,1,,,
,,,,,,,,,,,,,FF,,,,,,,,1.168445,,,,,,,,,,,,,,,,,,,,,,,5ed77f0ef8efa803b4086a89,60a7d7fc4ee33faed7ff28cb,2021-05-21_16h56.05.967,Simcolourproject_2stim_asymm_v5,2020.2.10,Win32,60,60a5f9bf14d0aa2821c4bb84,,,,,4093,116,67,1,0,0,response1disk,,6,-26,21,1,0,0,rectangle,-26,21,1,0,0,2,"[237,321,218,34,81,157,256,219,163,148,120,202,144,77,38,217,254,165,68,223]",-26,21,1,0,0,1,19,180,68,1,,,
,,,,,,,,,,,,,FF,,,,,,,,1.730075,,,,,,,,,,,,,,,,,,,,,,,5ed77f0ef8efa803b4086a89,60a7d7fc4ee33faed7ff28cb,2021-05-21_16h56.05.967,Simcolourproject_2stim_asymm_v5,2020.2.10,Win32,60,60a5f9bf14d0aa2821c4bb84,,,,,1393,-45,-153,1,0,0,response5disk,,3,-1,14,1,0,0,rectangle,-1,14,1,0,0,4,"[237,321,218,34,81,157,256,219,163,148,120,202,144,77,38,217,254,165,68,223]",-1,14,1,0,0,1,20,181,137,1,,,
,,,,,,,,,,,,,FF,,,,,,,,1.46447,,,,,,,,,,,,,,,,,,,,,,,5ed77f0ef8efa803b4086a89,60a7d7fc4ee33faed7ff28cb,2021-05-21_16h56.05.967,Simcolourproject_2stim_asymm_v5,2020.2.10,Win32,60,60a5f9bf14d0aa2821c4bb84,,,,,3727,-179,-97,1,0,0,response5disk,,3,-10,-9,1,0,0,rectangle,-10,-9,1,0,0,2,"[237,321,218,34,81,157,256,219,163,148,120,202,144,77,38,217,254,165,68,223]",-10,-9,1,0,0,1,21,182,77,1,,,
,,,,,,,,,,,,,FF,,,,,,,,1.010895,,,,,,,,,,,,,,,,,,,,,,,5ed77f0ef8efa803b4086a89,60a7d7fc4ee33faed7ff28cb,2021-05-21_16h56.05.967,Simcolourproject_2stim_asymm_v5,2020.2.10,Win32,60,60a5f9bf14d0aa2821c4bb84,,,,,4200,-40,173,1,0,0,response7disk,,0,-19,7,1,0,0,rectangle,-19,7,1,0,0,0,"[237,321,218,34,81,157,256,219,163,148,120,202,144,77,38,217,254,165,68,223]",-19,7,1,0,0,1,22,183,100,1,,,
,,,,,,,,,,,,,FF,,,,,,,,1.434445,,,,,,,,,,,,,,,,,,,,,,,5ed77f0ef8efa803b4086a89,60a7d7fc4ee33faed7ff28cb,2021-05-21_16h56.05.967,Simcolourproject_2stim_asymm_v5,2020.2.10,Win32,60,60a5f9bf14d0aa2821c4bb84,,,,,3927,114,186,1,0,0,response1disk,,7,15,8,1,0,0,rectangle,15,8,1,0,0,5,"[237,321,218,34,81,157,256,219,163,148,120,202,144,77,38,217,254,165,68,223]",15,8,1,0,0,1,23,184,155,1,,,
,,,,,,,,,,,,,FF,,,,,,,,2.19436,,,,,,,,,,,,,,,,,,,,,,,5ed77f0ef8efa803b4086a89,60a7d7fc4ee33faed7ff28cb,2021-05-21_16h56.05.967,Simcolourproject_2stim_asymm_v5,2020.2.10,Win32,60,60a5f9bf14d0aa2821c4bb84,,,,,1493,-168,59,1,0,0,response7disk,,1,1,-14,1,0,0,rectangle,1,-14,1,0,0,5,"[237,321,218,34,81,157,256,219,163,148,120,202,144,77,38,217,254,165,68,223]",1,-14,1,0,0,1,24,185,22,1,,,
,,,,,,,,,,,,,FF,,,,,,,,1.882025,,,,,,,,,,,,,,,,,,,,,,,5ed77f0ef8efa803b4086a89,60a7d7fc4ee33faed7ff28cb,2021-05-21_16h56.05.967,Simcolourproject_2stim_asymm_v5,2020.2.10,Win32,60,60a5f9bf14d0aa2821c4bb84,,,,,2984,-211,-63,1,0,0,response5disk,,1,-10,23,1,0,0,rectangle,-10,23,1,0,0,2,"[237,321,218,34,81,157,256,219,163,148,120,202,144,77,38,217,254,165,68,223]",-10,23,1,0,0,1,25,186,70,1,,,
,,,,,,,,,,,,,FF,,,,,,,,2.05779,,,,,,,,,,,,,,,,,,,,,,,5ed77f0ef8efa803b4086a89,60a7d7fc4ee33faed7ff28cb,2021-05-21_16h56.05.967,Simcolourproject_2stim_asymm_v5,2020.2.10,Win32,60,60a5f9bf14d0aa2821c4bb84,,,,,2483,81,-94,1,0,0,response3disk,,4,37,-7,1,0,0,rectangle,37,-7,1,0,0,1,"[237,321,218,34,81,157,256,219,163,148,120,202,144,77,38,217,254,165,68,223]",37,-7,1,0,0,1,26,187,42,1,,,
,,,,,,,,,,,,,FF,,,,,,,,1.13753,,,,,,,,,,,,,,,,,,,,,,,5ed77f0ef8efa803b4086a89,60a7d7fc4ee33faed7ff28cb,2021-05-21_16h56.05.967,Simcolourproject_2stim_asymm_v5,2020.2.10,Win32,60,60a5f9bf14d0aa2821c4bb84,,,,,340,-99,-170,1,0,0,response5disk,,3,-17,2,1,0,0,rectangle,-17,2,1,0,0,4,"[237,321,218,34,81,157,256,219,163,148,120,202,144,77,38,217,254,165,68,223]",-17,2,1,0,0,1,27,188,59,1,,,
,,,,,,,,,,,,,FF,,,,,,,,1.668295,,,,,,,,,,,,,,,,,,,,,,,5ed77f0ef8efa803b4086a89,60a7d7fc4ee33faed7ff28cb,2021-05-21_16h56.05.967,Simcolourproject_2stim_asymm_v5,2020.2.10,Win32,60,60a5f9bf14d0aa2821c4bb84,,,,,3004,71,-146,1,0,0,response3disk,,4,31,2,1,0,0,rectangle,31,2,1,0,0,0,"[237,321,218,34,81,157,256,219,163,148,120,202,144,77,38,217,254,165,68,223]",31,2,1,0,0,1,28,189,86,1,,,
,,,,,,,,,,,,,FF,,,,,,,,1.184085,,,,,,,,,,,,,,,,,,,,,,,5ed77f0ef8efa803b4086a89,60a7d7fc4ee33faed7ff28cb,2021-05-21_16h56.05.967,Simcolourproject_2stim_asymm_v5,2020.2.10,Win32,60,60a5f9bf14d0aa2821c4bb84,,,,,3392,-161,63,1,0,0,response7disk,,1,-27,-2,1,0,0,rectangle,-27,-2,1,0,0,5,"[237,321,218,34,81,157,256,219,163,148,120,202,144,77,38,217,254,165,68,223]",-27,-2,1,0,0,1,29,190,13,1,,,
,,,,,,,,,,,,,FF,,,,,,,,1.16795,,,,,,,,,,,,,,,,,,,,,,,5ed77f0ef8efa803b4086a89,60a7d7fc4ee33faed7ff28cb,2021-05-21_16h56.05.967,Simcolourproject_2stim_asymm_v5,2020.2.10,Win32,60,60a5f9bf14d0aa2821c4bb84,,,,,3037,-196,56,1,0,0,response7disk,,1,26,6,1,0,0,rectangle,26,6,1,0,0,5,"[237,321,218,34,81,157,256,219,163,148,120,202,144,77,38,217,254,165,68,223]",26,6,1,0,0,1,30,191,99,1,,,
,,,,,,,,,,,,,FF,,,,,,,,1.99387,,,,,,,,,,,,,,,,,,,,,,,5ed77f0ef8efa803b4086a89,60a7d7fc4ee33faed7ff28cb,2021-05-21_16h56.05.967,Simcolourproject_2stim_asymm_v5,2020.2.10,Win32,60,60a5f9bf14d0aa2821c4bb84,,,,,2970,96,-169,1,0,0,response3disk,,4,-38,-16,1,0,0,rectangle,-38,-16,1,0,0,2,"[237,321,218,34,81,157,256,219,163,148,120,202,144,77,38,217,254,165,68,223]",-38,-16,1,0,0,1,31,192,64,1,,,
,,,,,,,,,,,,,FF,,,,,,,,1.275915,,,,,,,,,,,,,,,,,,,,,,,5ed77f0ef8efa803b4086a89,60a7d7fc4ee33faed7ff28cb,2021-05-21_16h56.05.967,Simcolourproject_2stim_asymm_v5,2020.2.10,Win32,60,60a5f9bf14d0aa2821c4bb84,,,,,988,-196,-167,1,0,0,response5disk,,4,-31,-22,1,0,0,rectangle,-31,-22,1,0,0,1,"[237,321,218,34,81,157,256,219,163,148,120,202,144,77,38,217,254,165,68,223]",-31,-22,1,0,0,1,32,193,73,1,,,
,,,,,,,,,,,,,FF,,,,,,,,1.16195,,,,,,,,,,,,,,,,,,,,,,,5ed77f0ef8efa803b4086a89,60a7d7fc4ee33faed7ff28cb,2021-05-21_16h56.05.967,Simcolourproject_2stim_asymm_v5,2020.2.10,Win32,60,60a5f9bf14d0aa2821c4bb84,,,,,95,-155,74,1,0,0,response7disk,,1,-29,4,1,0,0,rectangle,-29,4,1,0,0,7,"[237,321,218,34,81,157,256,219,163,148,120,202,144,77,38,217,254,165,68,223]",-29,4,1,0,0,1,33,194,122,1,,,
,,,,,,,,,,,,,FF,,,,,,,,0.984215,,,,,,,,,,,,,,,,,,,,,,,5ed77f0ef8efa803b4086a89,60a7d7fc4ee33faed7ff28cb,2021-05-21_16h56.05.967,Simcolourproject_2stim_asymm_v5,2020.2.10,Win32,60,60a5f9bf14d0aa2821c4bb84,,,,,1279,212,-154,1,0,0,response3disk,,5,-11,-2,1,0,0,rectangle,-11,-2,1,0,0,6,"[237,321,218,34,81,157,256,219,163,148,120,202,144,77,38,217,254,165,68,223]",-11,-2,1,0,0,1,34,195,132,1,,,
,,,,,,,,,,,,,FF,,,,,,,,2.059465,,,,,,,,,,,,,,,,,,,,,,,5ed77f0ef8efa803b4086a89,60a7d7fc4ee33faed7ff28cb,2021-05-21_16h56.05.967,Simcolourproject_2stim_asymm_v5,2020.2.10,Win32,60,60a5f9bf14d0aa2821c4bb84,,,,,3549,70,-187,1,0,0,response3disk,,4,24,9,1,0,0,rectangle,24,9,1,0,0,0,"[237,321,218,34,81,157,256,219,163,148,120,202,144,77,38,217,254,165,68,223]",24,9,1,0,0,1,35,196,9,1,,,
,,,,,,,,,,,,,FF,,,,,,,,1.65078,,,,,,,,,,,,,,,,,,,,,,,5ed77f0ef8efa803b4086a89,60a7d7fc4ee33faed7ff28cb,2021-05-21_16h56.05.967,Simcolourproject_2stim_asymm_v5,2020.2.10,Win32,60,60a5f9bf14d0aa2821c4bb84,,,,,1565,73,-151,1,0,0,response3disk,,4,33,-10,1,0,0,rectangle,33,-10,1,0,0,1,"[237,321,218,34,81,157,256,219,163,148,120,202,144,77,38,217,254,165,68,223]",33,-10,1,0,0,1,36,197,21,1,,,
,,,,,,,,,,,,,FF,,,,,,,,1.7016,,,,,,,,,,,,,,,,,,,,,,,5ed77f0ef8efa803b4086a89,60a7d7fc4ee33faed7ff28cb,2021-05-21_16h56.05.967,Simcolourproject_2stim_asymm_v5,2020.2.10,Win32,60,60a5f9bf14d0aa2821c4bb84,,,,,3806,-90,-155,1,0,0,response5disk,,3,-37,23,1,0,0,rectangle,-37,23,1,0,0,2,"[237,321,218,34,81,157,256,219,163,148,120,202,144,77,38,217,254,165,68,223]",-37,23,1,0,0,1,37,198,141,1,,,
,,,,,,,,,,,,,FF,,,,,,,,2.532975,,,,,,,,,,,,,,,,,,,,,,,5ed77f0ef8efa803b4086a89,60a7d7fc4ee33faed7ff28cb,2021-05-21_16h56.05.967,Simcolourproject_2stim_asymm_v5,2020.2.10,Win32,60,60a5f9bf14d0aa2821c4bb84,,,,,4338,81,-178,1,0,0,response3disk,,4,-47,11,1,0,0,rectangle,-47,11,1,0,0,5,"[237,321,218,34,81,157,256,219,163,148,120,202,144,77,38,217,254,165,68,223]",-47,11,1,0,0,1,38,199,88,1,,,
,,,,,,,,,,,,,FF,,,,,,,,1.35179,,,,,,,,,,,,,,,,,,,,,,,5ed77f0ef8efa803b4086a89,60a7d7fc4ee33faed7ff28cb,2021-05-21_16h56.05.967,Simcolourproject_2stim_asymm_v5,2020.2.10,Win32,60,60a5f9bf14d0aa2821c4bb84,,,,,205,-156,-79,1,0,0,response5disk,,4,45,-12,1,0,0,rectangle,45,-12,1,0,0,7,"[237,321,218,34,81,157,256,219,163,148,120,202,144,77,38,217,254,165,68,223]",45,-12,1,0,0,1,39,200,148,1,,,
,,,,,,,,,,,,,FF,,,,,,,,1.471645,,,,,,,,,,,,,,,,,,,,,,,5ed77f0ef8efa803b4086a89,60a7d7fc4ee33faed7ff28cb,2021-05-21_16h56.05.967,Simcolourproject_2stim_asymm_v5,2020.2.10,Win32,60,60a5f9bf14d0aa2821c4bb84,,,,,744,-101,-207,1,0,0,response5disk,,3,7,4,1,0,0,rectangle,54,-196,1,0,0,4,"[237,321,218,34,81,157,256,219,163,148,120,202,144,77,38,217,254,165,68,223]",24,9,1,0,0,1,40,201,16,1,,response3disk_3,rectangle
,,,,,,,,,,,,,FF,,,,,,,,1.45044,,,,,,,,,,,,,,,,,,,,,,,5ed77f0ef8efa803b4086a89,60a7d7fc4ee33faed7ff28cb,2021-05-21_16h56.05.967,Simcolourproject_2stim_asymm_v5,2020.2.10,Win32,60,60a5f9bf14d0aa2821c4bb84,,,,,2627,145,-67,1,0,0,response3disk,,5,-7,-16,1,0,0,rectangle,-7,-16,1,0,0,5,"[237,321,218,34,81,157,256,219,163,148,120,202,144,77,38,217,254,165,68,223]",-7,-16,1,0,0,1,41,202,65,1,,,
,,,,,,,,,,,,,FF,,,,,,,,0.85052,,,,,,,,,,,,,,,,,,,,,,,5ed77f0ef8efa803b4086a89,60a7d7fc4ee33faed7ff28cb,2021-05-21_16h56.05.967,Simcolourproject_2stim_asymm_v5,2020.2.10,Win32,60,60a5f9bf14d0aa2821c4bb84,,,,,1781,-74,-165,1,0,0,response5disk,,3,18,-13,1,0,0,rectangle,18,-13,1,0,0,5,"[237,321,218,34,81,157,256,219,163,148,120,202,144,77,38,217,254,165,68,223]",18,-13,1,0,0,1,42,203,63,1,,,
,,,,,,,,,,,,,FF,,,,,,,,2.75271,,,,,,,,,,,,,,,,,,,,,,,5ed77f0ef8efa803b4086a89,60a7d7fc4ee33faed7ff28cb,2021-05-21_16h56.05.967,Simcolourproject_2stim_asymm_v5,2020.2.10,Win32,60,60a5f9bf14d0aa2821c4bb84,,,,,4348,112,43,1,0,0,response1disk,,6,6,5,1,0,0,rectangle,6,5,1,0,0,1,"[237,321,218,34,81,157,256,219,163,148,120,202,144,77,38,217,254,165,68,223]",6,5,1,0,0,1,43,204,94,1,,,
,,,,,,,,,,,,,FF,,,,,,,,1.019995,,,,,,,,,,,,,,,,,,,,,,,5ed77f0ef8efa803b4086a89,60a7d7fc4ee33faed7ff28cb,2021-05-21_16h56.05.967,Simcolourproject_2stim_asymm_v5,2020.2.10,Win32,60,60a5f9bf14d0aa2821c4bb84,,,,,2888,-141,-81,1,0,0,response5disk,,6,-14,-25,1,0,0,rectangle,-14,-25,1,0,0,0,"[237,321,218,34,81,157,256,219,163,148,120,202,144,77,38,217,254,165,68,223]",-14,-25,1,0,0,1,44,205,124,1,,,
,,,,,,,,,,,,,FF,,,,,,,,1.084465,,,,,,,,,,,,,,,,,,,,,,,5ed77f0ef8efa803b4086a89,60a7d7fc4ee33faed7ff28cb,2021-05-21_16h56.05.967,Simcolourproject_2stim_asymm_v5,2020.2.10,Win32,60,60a5f9bf14d0aa2821c4bb84,,,,,3848,-88,-125,1,0,0,response5disk,,3,-7,-12,1,0,0,rectangle,-7,-12,1,0,0,2,"[237,321,218,34,81,157,256,219,163,148,120,202,144,77,38,217,254,165,68,223]",-7,-12,1,0,0,1,45,206,51,1,,,
,,,,,,,,,,,,,FF,,,,,,,,0.767215,,,,,,,,,,,,,,,,,,,,,,,5ed77f0ef8efa803b4086a89,60a7d7fc4ee33faed7ff28cb,2021-05-21_16h56.05.967,Simcolourproject_2stim_asymm_v5,2020.2.10,Win32,60,60a5f9bf14d0aa2821c4bb84,,,,,1554,-134,-66,1,0,0,response5disk,,3,-26,7,1,0,0,rectangle,-26,7,1,0,0,5,"[237,321,218,34,81,157,256,219,163,148,120,202,144,77,38,217,254,165,68,223]",-26,7,1,0,0,1,46,207,157,1,,,
,,,,,,,,,,,,,FF,,,,,,,,1.8343,,,,,,,,,,,,,,,,,,,,,,,5ed77f0ef8efa803b4086a89,60a7d7fc4ee33faed7ff28cb,2021-05-21_16h56.05.967,Simcolourproject_2stim_asymm_v5,2020.2.10,Win32,60,60a5f9bf14d0aa2821c4bb84,,,,,3312,128,56,1,0,0,response1disk,,6,-27,-6,1,0,0,rectangle,-27,-6,1,0,0,7,"[237,321,218,34,81,157,256,219,163,148,120,202,144,77,38,217,254,165,68,223]",-27,-6,1,0,0,1,47,208,133,1,,,
,,,,,,,,,,,,,FF,,,,,,,,0.83396,,,,,,,,,,,,,,,,,,,,,,,5ed77f0ef8efa803b4086a89,60a7d7fc4ee33faed7ff28cb,2021-05-21_16h56.05.967,Simcolourproject_2stim_asymm_v5,2020.2.10,Win32,60,60a5f9bf14d0aa2821c4bb84,,,,,2840,-139,-44,1,0,0,response5disk,,6,-27,-20,1,0,0,rectangle,-27,-20,1,0,0,4,"[237,321,218,34,81,157,256,219,163,148,120,202,144,77,38,217,254,165,68,223]",-27,-20,1,0,0,1,48,209,104,1,,,
,,,,,,,,,,,,,FF,,,,,,,,0.950165,,,,,,,,,,,,,,,,,,,,,,,5ed77f0ef8efa803b4086a89,60a7d7fc4ee33faed7ff28cb,2021-05-21_16h56.05.967,Simcolourproject_2stim_asymm_v5,2020.2.10,Win32,60,60a5f9bf14d0aa2821c4bb84,,,,,1315,40,-168,1,0,0,response3disk,,4,31,-8,1,0,0,rectangle,31,-8,1,0,0,7,"[237,321,218,34,81,157,256,219,163,148,120,202,144,77,38,217,254,165,68,223]",31,-8,1,0,0,1,49,210,82,1,,,
,,,,,,,,,,,,,FF,,,,,,,,1.271825,,,,,,,,,,,,,,,,,,,,,,,5ed77f0ef8efa803b4086a89,60a7d7fc4ee33faed7ff28cb,2021-05-21_16h56.05.967,Simcolourproject_2stim_asymm_v5,2020.2.10,Win32,60,60a5f9bf14d0aa2821c4bb84,,,,,792,175,-89,1,0,0,response3disk,,5,-7,23,1,0,0,rectangle,-7,23,1,0,0,4,"[237,321,218,34,81,157,256,219,163,148,120,202,144,77,38,217,254,165,68,223]",-7,23,1,0,0,1,50,211,123,1,,,
,,,,,,,,,,,,,FF,,,,,,,,0.664155,,,,,,,,,,,,,,,,,,,,,,,5ed77f0ef8efa803b4086a89,60a7d7fc4ee33faed7ff28cb,2021-05-21_16h56.05.967,Simcolourproject_2stim_asymm_v5,2020.2.10,Win32,60,60a5f9bf14d0aa2821c4bb84,,,,,3801,131,65,1,0,0,response1disk,,6,13,13,1,0,0,rectangle,13,13,1,0,0,1,"[237,321,218,34,81,157,256,219,163,148,120,202,144,77,38,217,254,165,68,223]",13,13,1,0,0,1,51,212,36,1,,,
,,,,,,,,,,,,,FF,,,,,,,,1.314175,,,,,,,,,,,,,,,,,,,,,,,5ed77f0ef8efa803b4086a89,60a7d7fc4ee33faed7ff28cb,2021-05-21_16h56.05.967,Simcolourproject_2stim_asymm_v5,2020.2.10,Win32,60,60a5f9bf14d0aa2821c4bb84,,,,,2003,-108,-140,1,0,0,response5disk,,3,-7,1,1,0,0,rectangle,-7,1,1,0,0,5,"[237,321,218,34,81,157,256,219,163,148,120,202,144,77,38,217,254,165,68,223]",-7,1,1,0,0,1,52,213,60,1,,,
,,,,,,,,,,,,,FF,,,,,,,,1.351045,,,,,,,,,,,,,,,,,,,,,,,5ed77f0ef8efa803b4086a89,60a7d7fc4ee33faed7ff28cb,2021-05-21_16h56.05.967,Simcolourproject_2stim_asymm_v5,2020.2.10,Win32,60,60a5f9bf14d0aa2821c4bb84,,,,,679,68,-180,1,0,0,response3disk,,4,-42,4,1,0,0,rectangle,-42,4,1,0,0,0,"[237,321,218,34,81,157,256,219,163,148,120,202,144,77,38,217,254,165,68,223]",-42,4,1,0,0,1,53,214,71,1,,,
,,,,,,,,,,,,,FF,,,,,,,,0.816875,,,,,,,,,,,,,,,,,,,,,,,5ed77f0ef8efa803b4086a89,60a7d7fc4ee33faed7ff28cb,2021-05-21_16h56.05.967,Simcolourproject_2stim_asymm_v5,2020.2.10,Win32,60,60a5f9bf14d0aa2821c4bb84,,,,,2462,136,-91,1,0,0,response3disk,,5,-37,4,1,0,0,rectangle,-37,4,1,0,0,2,"[237,321,218,34,81,157,256,219,163,148,120,202,144,77,38,217,254,165,68,223]",-37,4,1,0,0,1,54,215,75,1,,,
,,,,,,,,,,,,,FF,,,,,,,,1.185385,,,,,,,,,,,,,,,,,,,,,,,5ed77f0ef8efa803b4086a89,60a7d7fc4ee33faed7ff28cb,2021-05-21_16h56.05.967,Simcolourproject_2stim_asymm_v5,2020.2.10,Win32,60,60a5f9bf14d0aa2821c4bb84,,,,,4114,-94,-146,1,0,0,response5disk,,3,4,-2,1,0,0,rectangle,206,96,1,0,0,6,"[237,321,218,34,81,157,256,219,163,148,120,202,144,77,38,217,254,165,68,223]",30,-28,1,0,0,1,55,216,103,1,,response1disk_3,rectangle
,,,,,,,,,,,,,FF,,,,,,,,1.417515,,,,,,,,,,,,,,,,,,,,,,,5ed77f0ef8efa803b4086a89,60a7d7fc4ee33faed7ff28cb,2021-05-21_16h56.05.967,Simcolourproject_2stim_asymm_v5,2020.2.10,Win32,60,60a5f9bf14d0aa2821c4bb84,,,,,3459,106,119,1,0,0,response1disk,,7,-15,-1,1,0,0,rectangle,130,-64,1,0,0,5,"[237,321,218,34,81,157,256,219,163,148,120,202,144,77,38,217,254,165,68,223]",-5,5,1,0,0,1,56,217,140,1,,response3disk_3,rectangle
,,,,,,,,,,,,,FF,,,,,,,,1.851155,,,,,,,,,,,,,,,,,,,,,,,5ed77f0ef8efa803b4086a89,60a7d7fc4ee33faed7ff28cb,2021-05-21_16h56.05.967,Simcolourproject_2stim_asymm_v5,2020.2.10,Win32,60,60a5f9bf14d0aa2821c4bb84,,,,,1487,-55,-143,1,0,0,response5disk,,3,24,13,1,0,0,rectangle,64,132,1,0,0,7,"[237,321,218,34,81,157,256,219,163,148,120,202,144,77,38,217,254,165,68,223]",-10,-12,1,0,0,1,57,218,119,1,,response1disk_3,rectangle
,,,,,,,,,,,,,FF,,,,,,,,2.31837,,,,,,,,,,,,,,,,,,,,,,,5ed77f0ef8efa803b4086a89,60a7d7fc4ee33faed7ff28cb,2021-05-21_16h56.05.967,Simcolourproject_2stim_asymm_v5,2020.2.10,Win32,60,60a5f9bf14d0aa2821c4bb84,,,,,2552,-75,-203,1,0,0,response5disk,,3,-12,-6,1,0,0,rectangle,-12,-6,1,0,0,2,"[237,321,218,34,81,157,256,219,163,148,120,202,144,77,38,217,254,165,68,223]",-12,-6,1,0,0,1,58,219,151,1,,,
,,,,,,,,,,,,,FF,,,,,,,,1.602005,,,,,,,,,,,,,,,,,,,,,,,5ed77f0ef8efa803b4086a89,60a7d7fc4ee33faed7ff28cb,2021-05-21_16h56.05.967,Simcolourproject_2stim_asymm_v5,2020.2.10,Win32,60,60a5f9bf14d0aa2821c4bb84,,,,,97,-127,-77,1,0,0,response5disk,,3,-41,-11,1,0,0,rectangle,-41,-11,1,0,0,0,"[237,321,218,34,81,157,256,219,163,148,120,202,144,77,38,217,254,165,68,223]",-41,-11,1,0,0,1,59,220,158,1,,,
,,,,,,,,,,,,,FF,,,,,,,,4.2845,,,,,,,,,,,,,,,,,,,,,,,5ed77f0ef8efa803b4086a89,60a7d7fc4ee33faed7ff28cb,2021-05-21_16h56.05.967,Simcolourproject_2stim_asymm_v5,2020.2.10,Win32,60,60a5f9bf14d0aa2821c4bb84,,,,,776,82,-135,1,0,0,response3disk,,4,37,-17,1,0,0,rectangle,37,-17,1,0,0,1,"[237,321,218,34,81,157,256,219,163,148,120,202,144,77,38,217,254,165,68,223]",37,-17,1,0,0,1,60,221,14,1,,,
,,,,,,,,,,,,,FF,,,,,,,,0.768415,,,,,,,,,,,,,,,,,,,,,,,5ed77f0ef8efa803b4086a89,60a7d7fc4ee33faed7ff28cb,2021-05-21_16h56.05.967,Simcolourproject_2stim_asymm_v5,2020.2.10,Win32,60,60a5f9bf14d0aa2821c4bb84,,,,,2660,-54,160,1,0,0,response7disk,,0,-18,17,1,0,0,rectangle,184,86,1,0,0,6,"[237,321,218,34,81,157,256,219,163,148,120,202,144,77,38,217,254,165,68,223]",12,-13,1,0,0,1,61,222,61,1,,response1disk_3,rectangle
,,,,,,,,,,,,,FF,,,,,,,,1.434125,,,,,,,,,,,,,,,,,,,,,,,5ed77f0ef8efa803b4086a89,60a7d7fc4ee33faed7ff28cb,2021-05-21_16h56.05.967,Simcolourproject_2stim_asymm_v5,2020.2.10,Win32,60,60a5f9bf14d0aa2821c4bb84,,,,,4179,139,-89,1,0,0,response3disk,,5,9,3,1,0,0,rectangle,9,3,1,0,0,7,"[237,321,218,34,81,157,256,219,163,148,120,202,144,77,38,217,254,165,68,223]",9,3,1,0,0,1,62,223,156,1,,,
,,,,,,,,,,,,,FF,,,,,,,,2.26657,,,,,,,,,,,,,,,,,,,,,,,5ed77f0ef8efa803b4086a89,60a7d7fc4ee33faed7ff28cb,2021-05-21_16h56.05.967,Simcolourproject_2stim_asymm_v5,2020.2.10,Win32,60,60a5f9bf14d0aa2821c4bb84,,,,,844,-119,-83,1,0,0,response5disk,,5,21,-1,1,0,0,rectangle,21,-1,1,0,0,5,"[237,321,218,34,81,157,256,219,163,148,120,202,144,77,38,217,254,165,68,223]",21,-1,1,0,0,1,63,224,45,1,,,
,,,,,,,,,,,,,FF,,,,,,,,1.203585,,,,,,,,,,,,,,,,,,,,,,,5ed77f0ef8efa803b4086a89,60a7d7fc4ee33faed7ff28cb,2021-05-21_16h56.05.967,Simcolourproject_2stim_asymm_v5,2020.2.10,Win32,60,60a5f9bf14d0aa2821c4bb84,,,,,2242,-125,-67,1,0,0,response5disk,,5,17,-5,1,0,0,rectangle,17,-5,1,0,0,7,"[237,321,218,34,81,157,256,219,163,148,120,202,144,77,38,217,254,165,68,223]",17,-5,1,0,0,1,64,225,32,1,,,
,,,,,,,,,,,,,FF,,,,,,,,1.2206,,,,,,,,,,,,,,,,,,,,,,,5ed77f0ef8efa803b4086a89,60a7d7fc4ee33faed7ff28cb,2021-05-21_16h56.05.967,Simcolourproject_2stim_asymm_v5,2020.2.10,Win32,60,60a5f9bf14d0aa2821c4bb84,,,,,3552,-148,72,1,0,0,response7disk,,1,-10,-1,1,0,0,rectangle,-10,-1,1,0,0,6,"[237,321,218,34,81,157,256,219,163,148,120,202,144,77,38,217,254,165,68,223]",-10,-1,1,0,0,1,65,226,129,1,,,
,,,,,,,,,,,,,FF,,,,,,,,2.051365,,,,,,,,,,,,,,,,,,,,,,,5ed77f0ef8efa803b4086a89,60a7d7fc4ee33faed7ff28cb,2021-05-21_16h56.05.967,Simcolourproject_2stim_asymm_v5,2020.2.10,Win32,60,60a5f9bf14d0aa2821c4bb84,,,,,1814,-103,-155,1,0,0,response5disk,,3,14,1,1,0,0,rectangle,14,1,1,0,0,1,"[237,321,218,34,81,157,256,219,163,148,120,202,144,77,38,217,254,165,68,223]",14,1,1,0,0,1,66,227,85,1,,,
,,,,,,,,,,,,,FF,,,,,,,,0.96776,,,,,,,,,,,,,,,,,,,,,,,5ed77f0ef8efa803b4086a89,60a7d7fc4ee33faed7ff28cb,2021-05-21_16h56.05.967,Simcolourproject_2stim_asymm_v5,2020.2.10,Win32,60,60a5f9bf14d0aa2821c4bb84,,,,,4005,36,-132,1,0,0,response3disk,,4,17,10,1,0,0,rectangle,17,10,1,0,0,7,"[237,321,218,34,81,157,256,219,163,148,120,202,144,77,38,217,254,165,68,223]",17,10,1,0,0,1,67,228,153,1,,,
,,,,,,,,,,,,,FF,,,,,,,,1.384735,,,,,,,,,,,,,,,,,,,,,,,5ed77f0ef8efa803b4086a89,60a7d7fc4ee33faed7ff28cb,2021-05-21_16h56.05.967,Simcolourproject_2stim_asymm_v5,2020.2.10,Win32,60,60a5f9bf14d0aa2821c4bb84,,,,,715,155,48,1,0,0,response1disk,,6,-20,-1,1,0,0,rectangle,-20,-1,1,0,0,4,"[237,321,218,34,81,157,256,219,163,148,120,202,144,77,38,217,254,165,68,223]",-20,-1,1,0,0,1,68,229,10,1,,,
,,,,,,,,,,,,,FF,,,,,,,,1.584495,,,,,,,,,,,,,,,,,,,,,,,5ed77f0ef8efa803b4086a89,60a7d7fc4ee33faed7ff28cb,2021-05-21_16h56.05.967,Simcolourproject_2stim_asymm_v5,2020.2.10,Win32,60,60a5f9bf14d0aa2821c4bb84,,,,,2014,-155,53,1,0,0,response7disk,,1,-53,5,1,0,0,rectangle,-53,5,1,0,0,1,"[237,321,218,34,81,157,256,219,163,148,120,202,144,77,38,217,254,165,68,223]",-53,5,1,0,0,1,69,230,40,1,,,
,,,,,,,,,,,,,FF,,,,,,,,0.8842,,,,,,,,,,,,,,,,,,,,,,,5ed77f0ef8efa803b4086a89,60a7d7fc4ee33faed7ff28cb,2021-05-21_16h56.05.967,Simcolourproject_2stim_asymm_v5,2020.2.10,Win32,60,60a5f9bf14d0aa2821c4bb84,,,,,4237,-171,52,1,0,0,response7disk,,1,-39,-8,1,0,0,rectangle,-39,-8,1,0,0,7,"[237,321,218,34,81,157,256,219,163,148,120,202,144,77,38,217,254,165,68,223]",-39,-8,1,0,0,1,70,231,105,1,,,
,,,,,,,,,,,,,FF,,,,,,,,1.16807,,,,,,,,,,,,,,,,,,,,,,,5ed77f0ef8efa803b4086a89,60a7d7fc4ee33faed7ff28cb,2021-05-21_16h56.05.967,Simcolourproject_2stim_asymm_v5,2020.2.10,Win32,60,60a5f9bf14d0aa2821c4bb84,,,,,1566,58,-156,1,0,0,response3disk,,4,31,1,1,0,0,rectangle,31,1,1,0,0,5,"[237,321,218,34,81,157,256,219,163,148,120,202,144,77,38,217,254,165,68,223]",31,1,1,0,0,1,71,232,114,1,,,
,,,,,,,,,,,,,FF,,,,,,,,2.235185,,,,,,,,,,,,,,,,,,,,,,,5ed77f0ef8efa803b4086a89,60a7d7fc4ee33faed7ff28cb,2021-05-21_16h56.05.967,Simcolourproject_2stim_asymm_v5,2020.2.10,Win32,60,60a5f9bf14d0aa2821c4bb84,,,,,2148,55,-197,1,0,0,response3disk,,4,28,-12,1,0,0,rectangle,28,-12,1,0,0,2,"[237,321,218,34,81,157,256,219,163,148,120,202,144,77,38,217,254,165,68,223]",28,-12,1,0,0,1,72,233,56,1,,,
,,,,,,,,,,,,,FF,,,,,,,,1.25203,,,,,,,,,,,,,,,,,,,,,,,5ed77f0ef8efa803b4086a89,60a7d7fc4ee33faed7ff28cb,2021-05-21_16h56.05.967,Simcolourproject_2stim_asymm_v5,2020.2.10,Win32,60,60a5f9bf14d0aa2821c4bb84,,,,,787,170,-68,1,0,0,response3disk,,5,-40,-6,1,0,0,rectangle,-40,-6,1,0,0,4,"[237,321,218,34,81,157,256,219,163,148,120,202,144,77,38,217,254,165,68,223]",-40,-6,1,0,0,1,73,234,4,1,,,
,,,,,,,,,,,,,FF,,,,,,,,0.801365,,,,,,,,,,,,,,,,,,,,,,,5ed77f0ef8efa803b4086a89,60a7d7fc4ee33faed7ff28cb,2021-05-21_16h56.05.967,Simcolourproject_2stim_asymm_v5,2020.2.10,Win32,60,60a5f9bf14d0aa2821c4bb84,,,,,2585,187,44,1,0,0,response1disk,,6,21,-6,1,0,0,rectangle,21,-6,1,0,0,7,"[237,321,218,34,81,157,256,219,163,148,120,202,144,77,38,217,254,165,68,223]",21,-6,1,0,0,1,74,235,139,1,,,
,,,,,,,,,,,,,FF,,,,,,,,1.78425,,,,,,,,,,,,,,,,,,,,,,,5ed77f0ef8efa803b4086a89,60a7d7fc4ee33faed7ff28cb,2021-05-21_16h56.05.967,Simcolourproject_2stim_asymm_v5,2020.2.10,Win32,60,60a5f9bf14d0aa2821c4bb84,,,,,2230,89,-199,1,0,0,response3disk,,4,-31,4,1,0,0,rectangle,-175,86,1,0,0,1,"[237,321,218,34,81,157,256,219,163,148,120,202,144,77,38,217,254,165,68,223]",22,2,1,0,0,1,75,236,143,1,,response7disk_3,rectangle
,,,,,,,,,,,,,FF,,,,,,,,1.41776,,,,,,,,,,,,,,,,,,,,,,,5ed77f0ef8efa803b4086a89,60a7d7fc4ee33faed7ff28cb,2021-05-21_16h56.05.967,Simcolourproject_2stim_asymm_v5,2020.2.10,Win32,60,60a5f9bf14d0aa2821c4bb84,,,,,4144,-69,-176,1,0,0,response5disk,,3,11,27,1,0,0,rectangle,11,27,1,0,0,1,"[237,321,218,34,81,157,256,219,163,148,120,202,144,77,38,217,254,165,68,223]",11,27,1,0,0,1,76,237,90,1,,,
,,,,,,,,,,,,,FF,,,,,,,,1.617695,,,,,,,,,,,,,,,,,,,,,,,5ed77f0ef8efa803b4086a89,60a7d7fc4ee33faed7ff28cb,2021-05-21_16h56.05.967,Simcolourproject_2stim_asymm_v5,2020.2.10,Win32,60,60a5f9bf14d0aa2821c4bb84,,,,,1741,150,41,1,0,0,response1disk,,6,-17,-9,1,0,0,rectangle,-17,-9,1,0,0,6,"[237,321,218,34,81,157,256,219,163,148,120,202,144,77,38,217,254,165,68,223]",-17,-9,1,0,0,1,77,238,93,1,,,
,,,,,,,,,,,,,FF,,,,,,,,1.30066,,,,,,,,,,,,,,,,,,,,,,,5ed77f0ef8efa803b4086a89,60a7d7fc4ee33faed7ff28cb,2021-05-21_16h56.05.967,Simcolourproject_2stim_asymm_v5,2020.2.10,Win32,60,60a5f9bf14d0aa2821c4bb84,,,,,3618,69,-190,1,0,0,response3disk,,4,-21,9,1,0,0,rectangle,-21,9,1,0,0,5,"[237,321,218,34,81,157,256,219,163,148,120,202,144,77,38,217,254,165,68,223]",-21,9,1,0,0,1,78,239,39,1,,,
,,,,,,,,,,,,,FF,,,,,,,,2.50132,,,,,,,,,,,,,,,,,,,,,,,5ed77f0ef8efa803b4086a89,60a7d7fc4ee33faed7ff28cb,2021-05-21_16h56.05.967,Simcolourproject_2stim_asymm_v5,2020.2.10,Win32,60,60a5f9bf14d0aa2821c4bb84,,,,,2765,140,-114,1,0,0,response3disk,,5,-59,16,1,0,0,rectangle,-59,16,1,0,0,6,"[237,321,218,34,81,157,256,219,163,148,120,202,144,77,38,217,254,165,68,223]",-59,16,1,0,0,1,79,240,95,1,,,
,,,,,,,,,,,,,FF,,,,,,,,2.487895,,,,,,,,,,,,,,,,,,,,,,,5ed77f0ef8efa803b4086a89,60a7d7fc4ee33faed7ff28cb,2021-05-21_16h56.05.967,Simcolourproject_2stim_asymm_v5,2020.2.10,Win32,60,60a5f9bf14d0aa2821c4bb84,,,,,1450,-191,-63,1,0,0,response5disk,,5,2,27,1,0,0,rectangle,2,27,1,0,0,0,"[237,321,218,34,81,157,256,219,163,148,120,202,144,77,38,217,254,165,68,223]",2,27,1,0,0,1,80,241,91,1,,,
,,,,,,,,,,,,,FF,,,,,,,,2.100365,,,,,,,,,,,,,,,,,,,,,,,5ed77f0ef8efa803b4086a89,60a7d7fc4ee33faed7ff28cb,2021-05-21_16h56.05.967,Simcolourproject_2stim_asymm_v5,2020.2.10,Win32,60,60a5f9bf14d0aa2821c4bb84,,,,,4329,147,38,1,0,0,response1disk,,6,22,-20,1,0,0,rectangle,22,-20,1,0,0,7,"[237,321,218,34,81,157,256,219,163,148,120,202,144,77,38,217,254,165,68,223]",22,-20,1,0,0,1,81,242,2,1,,,
,,,,,,,,,,,,,FF,,,,,,,,2.01858,,,,,,,,,,,,,,,,,,,,,,,5ed77f0ef8efa803b4086a89,60a7d7fc4ee33faed7ff28cb,2021-05-21_16h56.05.967,Simcolourproject_2stim_asymm_v5,2020.2.10,Win32,60,60a5f9bf14d0aa2821c4bb84,,,,,2945,56,-196,1,0,0,response3disk,,4,-1,22,1,0,0,rectangle,-1,22,1,0,0,3,"[237,321,218,34,81,157,256,219,163,148,120,202,144,77,38,217,254,165,68,223]",-1,22,1,0,0,1,82,243,66,1,,,
,,,,,,,,,,,,,FF,,,,,,,,1.051215,,,,,,,,,,,,,,,,,,,,,,,5ed77f0ef8efa803b4086a89,60a7d7fc4ee33faed7ff28cb,2021-05-21_16h56.05.967,Simcolourproject_2stim_asymm_v5,2020.2.10,Win32,60,60a5f9bf14d0aa2821c4bb84,,,,,2968,-46,-143,1,0,0,response5disk,,3,1,16,1,0,0,rectangle,1,16,1,0,0,7,"[237,321,218,34,81,157,256,219,163,148,120,202,144,77,38,217,254,165,68,223]",1,16,1,0,0,1,83,244,25,1,,,
,,,,,,,,,,,,,FF,,,,,,,,2.25097,,,,,,,,,,,,,,,,,,,,,,,5ed77f0ef8efa803b4086a89,60a7d7fc4ee33faed7ff28cb,2021-05-21_16h56.05.967,Simcolourproject_2stim_asymm_v5,2020.2.10,Win32,60,60a5f9bf14d0aa2821c4bb84,,,,,1192,-44,-109,1,0,0,response5disk,,3,42,24,1,0,0,rectangle,42,24,1,0,0,6,"[237,321,218,34,81,157,256,219,163,148,120,202,144,77,38,217,254,165,68,223]",42,24,1,0,0,1,84,245,46,1,,,
