key_resp.keys,key_resp.rt,key_resp_14.keys,key_resp_14.rt,key_resp_15.keys,key_resp_15.rt,key_resp_17.keys,key_resp_17.rt,key_resp_9.keys,key_resp_9.rt,key_resp_10.keys,key_resp_10.rt,practice_comparison,Ecc,mouse_5.x,mouse_5.y,mouse_5.leftButton,mouse_5.midButton,mouse_5.rightButton,mouse_5.clicked_name,pracsimilarity,response_time,mouse_10.x,mouse_10.y,mouse_10.leftButton,mouse_10.midButton,mouse_10.rightButton,mouse_10.clicked_name,mouse_7.x,mouse_7.y,mouse_7.leftButton,mouse_7.midButton,mouse_7.rightButton,mouse_7.clicked_name,catchnumberprac,mouse_6.x,mouse_6.y,mouse_6.leftButton,mouse_6.midButton,mouse_6.rightButton,mouse_6.clicked_name,duringprac.thisRepN,duringprac.thisTrialN,duringprac.thisN,duringprac.thisIndex,duringprac.ran,participant,session,date,expName,psychopyVersion,OS,frameRate,study_id,key_resp_22.keys,key_resp_22.rt,realcomparison,mouse.x,mouse.y,mouse.leftButton,mouse.midButton,mouse.rightButton,mouse.clicked_name,Colour2,similarity,mouse_2.x,mouse_2.y,mouse_2.leftButton,mouse_2.midButton,mouse_2.rightButton,mouse_2.clicked_name,mouse_3.x,mouse_3.y,mouse_3.leftButton,mouse_3.midButton,mouse_3.rightButton,catchnumber,catchtrialorder,mouse_11.x,mouse_11.y,mouse_11.leftButton,mouse_11.midButton,mouse_11.rightButton,trials_2.thisRepN,trials_2.thisTrialN,trials_2.thisN,trials_2.thisIndex,trials_2.ran,Colour1,mouse_3.clicked_name,mouse_11.clicked_name
space,1.516735,space,51.60818,space,70.203705,space,14.82889,space,9.588985,space,51.873595,5,FF,-46.39994042,-84.00000769,1,0,0,response5disk_5,3,6.44719,3.200011492,4.799993634,1,0,0,rectangle_8,45.60006095,98.39999503,1,0,0,response1disk_7,7,0.800011456,-5.600006521,1,0,0,rectangle_4,0,0,0,5,1,5eff559f6fc177000b4cbfa6,60a7d7fa223a2bf3800940ac,2021-05-21_16h56.02.109,Simcolourproject_2stim_asymm_v5,2020.2.10,Win32,60,60a5f9bf14d0aa2821c4bb84,,,,,,,,,,,,,,,,,,,,,,,,,,,,,,,,,,,,,
,,,,,,,,,,,,145,PF,114.4000131,-32.00000691,1,0,0,response3disk_5,5,11.07802,0.800011456,-2.400006473,1,0,0,rectangle_8,0.800011456,-2.400006473,1,0,0,,7,0.800011456,-2.400006473,1,0,0,,0,1,1,1,1,5eff559f6fc177000b4cbfa6,60a7d7fa223a2bf3800940ac,2021-05-21_16h56.02.109,Simcolourproject_2stim_asymm_v5,2020.2.10,Win32,60,60a5f9bf14d0aa2821c4bb84,,,,,,,,,,,,,,,,,,,,,,,,,,,,,,,,,,,,,
,,,,,,,,,,,,22,PF,100.0000129,32.79999405,1,0,0,response1disk_5,6,3.032595,-0.799988568,1.599993587,1,0,0,rectangle_8,-0.799988568,1.599993587,1,0,0,,7,-0.799988568,1.599993587,1,0,0,,0,2,2,2,1,5eff559f6fc177000b4cbfa6,60a7d7fa223a2bf3800940ac,2021-05-21_16h56.02.109,Simcolourproject_2stim_asymm_v5,2020.2.10,Win32,60,60a5f9bf14d0aa2821c4bb84,,,,,,,,,,,,,,,,,,,,,,,,,,,,,,,,,,,,,
,,,,,,,,,,,,49,PF,93.60001284,31.19996961,1,0,0,response1disk_5,6,1.166325,7.200011551,0.799993575,1,0,0,rectangle_8,7.200011551,0.799993575,1,0,0,,7,7.200011551,0.799993575,1,0,0,,0,3,3,4,1,5eff559f6fc177000b4cbfa6,60a7d7fa223a2bf3800940ac,2021-05-21_16h56.02.109,Simcolourproject_2stim_asymm_v5,2020.2.10,Win32,60,60a5f9bf14d0aa2821c4bb84,,,,,,,,,,,,,,,,,,,,,,,,,,,,,,,,,,,,,
,,,,,,,,,,,,76,FF,-103.1999901,-51.2000072,1,0,0,response5disk_5,6,3.39848,-2.399939764,2.399993598,1,0,0,rectangle_8,45.60006095,99.99999505,1,0,0,response1disk_7,7,1.14441E-05,-4.800006509,1,0,0,rectangle_4,0,4,4,3,1,5eff559f6fc177000b4cbfa6,60a7d7fa223a2bf3800940ac,2021-05-21_16h56.02.109,Simcolourproject_2stim_asymm_v5,2020.2.10,Win32,60,60a5f9bf14d0aa2821c4bb84,,,,,,,,,,,,,,,,,,,,,,,,,,,,,,,,,,,,,
,,,,,,,,,,,,128,PF,112.0000131,27.99999398,1,0,0,response1disk_5,6,4.86464,-11.19998872,-4.000006497,1,0,0,rectangle_8,-11.19998872,-4.000006497,1,0,0,,7,-11.19998872,-4.000006497,1,0,0,,0,5,5,6,1,5eff559f6fc177000b4cbfa6,60a7d7fa223a2bf3800940ac,2021-05-21_16h56.02.109,Simcolourproject_2stim_asymm_v5,2020.2.10,Win32,60,60a5f9bf14d0aa2821c4bb84,,,,,,,,,,,,,,,,,,,,,,,,,,,,,,,,,,,,,
,,,,,,,,,,,,15,FF,77.6000126,-40.00000703,1,0,0,response3disk_5,5,2.86555,1.14441E-05,-4.000006497,1,0,0,rectangle_8,1.14441E-05,-4.000006497,1,0,0,,7,1.14441E-05,-4.000006497,1,0,0,,0,6,6,0,1,5eff559f6fc177000b4cbfa6,60a7d7fa223a2bf3800940ac,2021-05-21_16h56.02.109,Simcolourproject_2stim_asymm_v5,2020.2.10,Win32,60,60a5f9bf14d0aa2821c4bb84,,,,,,,,,,,,,,,,,,,,,,,,,,,,,,,,,,,,,
,,,,,,,,,,,,,FF,,,,,,,,2.548365,,,,,,,,,,,,,,,,,,,,,,,,,5eff559f6fc177000b4cbfa6,60a7d7fa223a2bf3800940ac,2021-05-21_16h56.02.109,Simcolourproject_2stim_asymm_v5,2020.2.10,Win32,60,60a5f9bf14d0aa2821c4bb84,space,4.77229,1609,-71.99998963,103.1999707,1,0,0,response7disk,,0,-3.999988616,-2.400006473,1,0,0,rectangle,-3.999988616,-2.400006473,1,0,0,1,"[285,210,33,37,131,164,183,167,320,309,103,170,251,101,100,76,224,130,185,123]",-3.999988616,-2.400006473,1,0,0,0,0,0,126,1,,,
,,,,,,,,,,,,,FF,,,,,,,,1.917805,,,,,,,,,,,,,,,,,,,,,,,,,5eff559f6fc177000b4cbfa6,60a7d7fa223a2bf3800940ac,2021-05-21_16h56.02.109,Simcolourproject_2stim_asymm_v5,2020.2.10,Win32,60,60a5f9bf14d0aa2821c4bb84,,,896,-40.79998916,-72.00000751,1,0,0,response5disk,,3,-0.799988568,-3.200006485,1,0,0,rectangle,-0.799988568,-3.200006485,1,0,0,3,"[285,210,33,37,131,164,183,167,320,309,103,170,251,101,100,76,224,130,185,123]",-0.799988568,-3.200006485,1,0,0,0,1,1,149,1,,,
,,,,,,,,,,,,,FF,,,,,,,,1.816085,,,,,,,,,,,,,,,,,,,,,,,,,5eff559f6fc177000b4cbfa6,60a7d7fa223a2bf3800940ac,2021-05-21_16h56.02.109,Simcolourproject_2stim_asymm_v5,2020.2.10,Win32,60,60a5f9bf14d0aa2821c4bb84,,,2763,119.2000132,35.9999941,1,0,0,response1disk,,6,-3.999988616,5.599993646,1,0,0,rectangle,-3.999988616,5.599993646,1,0,0,4,"[285,210,33,37,131,164,183,167,320,309,103,170,251,101,100,76,224,130,185,123]",-3.999988616,5.599993646,1,0,0,0,2,2,71,1,,,
,,,,,,,,,,,,,FF,,,,,,,,1.166065,,,,,,,,,,,,,,,,,,,,,,,,,5eff559f6fc177000b4cbfa6,60a7d7fa223a2bf3800940ac,2021-05-21_16h56.02.109,Simcolourproject_2stim_asymm_v5,2020.2.10,Win32,60,60a5f9bf14d0aa2821c4bb84,,,397,94.40001285,28.79999399,1,0,0,response1disk,,6,-10.39993988,3.999993622,1,0,0,rectangle,-10.39993988,3.999993622,1,0,0,7,"[285,210,33,37,131,164,183,167,320,309,103,170,251,101,100,76,224,130,185,123]",-10.39993988,3.999993622,1,0,0,0,3,3,141,1,,,
,,,,,,,,,,,,,FF,,,,,,,,1.21623,,,,,,,,,,,,,,,,,,,,,,,,,5eff559f6fc177000b4cbfa6,60a7d7fa223a2bf3800940ac,2021-05-21_16h56.02.109,Simcolourproject_2stim_asymm_v5,2020.2.10,Win32,60,60a5f9bf14d0aa2821c4bb84,,,2514,40.00001204,-90.40000778,1,0,0,response3disk,,4,11.20001161,-8.000006557,1,0,0,rectangle,11.20001161,-8.000006557,1,0,0,6,"[285,210,33,37,131,164,183,167,320,309,103,170,251,101,100,76,224,130,185,123]",11.20001161,-8.000006557,1,0,0,0,4,4,105,1,,,
,,,,,,,,,,,,,FF,,,,,,,,2.065655,,,,,,,,,,,,,,,,,,,,,,,,,5eff559f6fc177000b4cbfa6,60a7d7fa223a2bf3800940ac,2021-05-21_16h56.02.109,Simcolourproject_2stim_asymm_v5,2020.2.10,Win32,60,60a5f9bf14d0aa2821c4bb84,,,2192,95.20001286,30.39999402,1,0,0,response1disk,,6,1.600060296,-2.400006473,1,0,0,rectangle,1.600060296,-2.400006473,1,0,0,7,"[285,210,33,37,131,164,183,167,320,309,103,170,251,101,100,76,224,130,185,123]",1.600060296,-2.400006473,1,0,0,0,5,5,133,1,,,
,,,,,,,,,,,,,FF,,,,,,,,1.7993,,,,,,,,,,,,,,,,,,,,,,,,,5eff559f6fc177000b4cbfa6,60a7d7fa223a2bf3800940ac,2021-05-21_16h56.02.109,Simcolourproject_2stim_asymm_v5,2020.2.10,Win32,60,60a5f9bf14d0aa2821c4bb84,,,4104,-66.39994072,-27.20000684,1,0,0,response5disk,,6,-4.799988627,0.799993575,1,0,0,rectangle,-4.799988627,0.799993575,1,0,0,7,"[285,210,33,37,131,164,183,167,320,309,103,170,251,101,100,76,224,130,185,123]",-4.799988627,0.799993575,1,0,0,0,6,6,62,1,,,
,,,,,,,,,,,,,FF,,,,,,,,1.615665,,,,,,,,,,,,,,,,,,,,,,,,,5eff559f6fc177000b4cbfa6,60a7d7fa223a2bf3800940ac,2021-05-21_16h56.02.109,Simcolourproject_2stim_asymm_v5,2020.2.10,Win32,60,60a5f9bf14d0aa2821c4bb84,,,1255,30.4000119,-71.2000075,1,0,0,response3disk,,4,7.200011551,-15.20000666,1,0,0,rectangle,7.200011551,-15.20000666,1,0,0,0,"[285,210,33,37,131,164,183,167,320,309,103,170,251,101,100,76,224,130,185,123]",7.200011551,-15.20000666,1,0,0,0,7,7,113,1,,,
,,,,,,,,,,,,,FF,,,,,,,,1.482565,,,,,,,,,,,,,,,,,,,,,,,,,5eff559f6fc177000b4cbfa6,60a7d7fa223a2bf3800940ac,2021-05-21_16h56.02.109,Simcolourproject_2stim_asymm_v5,2020.2.10,Win32,60,60a5f9bf14d0aa2821c4bb84,,,3986,89.60001278,-31.2000069,1,0,0,response3disk,,5,-10.39993988,-3.200006485,1,0,0,rectangle,-10.39993988,-3.200006485,1,0,0,2,"[285,210,33,37,131,164,183,167,320,309,103,170,251,101,100,76,224,130,185,123]",-10.39993988,-3.200006485,1,0,0,0,8,8,60,1,,,
,,,,,,,,,,,,,FF,,,,,,,,1.38326,,,,,,,,,,,,,,,,,,,,,,,,,5eff559f6fc177000b4cbfa6,60a7d7fa223a2bf3800940ac,2021-05-21_16h56.02.109,Simcolourproject_2stim_asymm_v5,2020.2.10,Win32,60,60a5f9bf14d0aa2821c4bb84,,,2413,40.00001204,-94.40000784,1,0,0,response3disk,,4,8.800011575,-7.200006545,1,0,0,rectangle,8.800011575,-7.200006545,1,0,0,3,"[285,210,33,37,131,164,183,167,320,309,103,170,251,101,100,76,224,130,185,123]",8.800011575,-7.200006545,1,0,0,0,9,9,139,1,,,
,,,,,,,,,,,,,FF,,,,,,,,1.34955,,,,,,,,,,,,,,,,,,,,,,,,,5eff559f6fc177000b4cbfa6,60a7d7fa223a2bf3800940ac,2021-05-21_16h56.02.109,Simcolourproject_2stim_asymm_v5,2020.2.10,Win32,60,60a5f9bf14d0aa2821c4bb84,,,3189,-78.3999409,-38.40000701,1,0,0,response5disk,,4,4.000011504,1.599993587,1,0,0,rectangle,4.000011504,1.599993587,1,0,0,3,"[285,210,33,37,131,164,183,167,320,309,103,170,251,101,100,76,224,130,185,123]",4.000011504,1.599993587,1,0,0,0,10,10,123,1,,,
,,,,,,,,,,,,,FF,,,,,,,,2.58236,,,,,,,,,,,,,,,,,,,,,,,,,5eff559f6fc177000b4cbfa6,60a7d7fa223a2bf3800940ac,2021-05-21_16h56.02.109,Simcolourproject_2stim_asymm_v5,2020.2.10,Win32,60,60a5f9bf14d0aa2821c4bb84,,,2402,79.20001262,-44.8000071,1,0,0,response3disk,,5,-12.79998875,3.999993622,1,0,0,rectangle,-12.79998875,3.999993622,1,0,0,7,"[285,210,33,37,131,164,183,167,320,309,103,170,251,101,100,76,224,130,185,123]",-12.79998875,3.999993622,1,0,0,0,11,11,140,1,,,
,,,,,,,,,,,,,FF,,,,,,,,2.34887,,,,,,,,,,,,,,,,,,,,,,,,,5eff559f6fc177000b4cbfa6,60a7d7fa223a2bf3800940ac,2021-05-21_16h56.02.109,Simcolourproject_2stim_asymm_v5,2020.2.10,Win32,60,60a5f9bf14d0aa2821c4bb84,,,3404,34.40001196,-101.6000568,1,0,0,response3disk,,4,4.000011504,4.799993634,1,0,0,rectangle,4.000011504,4.799993634,1,0,0,0,"[285,210,33,37,131,164,183,167,320,309,103,170,251,101,100,76,224,130,185,123]",4.000011504,4.799993634,1,0,0,0,12,12,74,1,,,
,,,,,,,,,,,,,FF,,,,,,,,1.582905,,,,,,,,,,,,,,,,,,,,,,,,,5eff559f6fc177000b4cbfa6,60a7d7fa223a2bf3800940ac,2021-05-21_16h56.02.109,Simcolourproject_2stim_asymm_v5,2020.2.10,Win32,60,60a5f9bf14d0aa2821c4bb84,,,870,-46.39994042,-77.60000759,1,0,0,response5disk,,3,1.600060296,-8.000006557,1,0,0,rectangle,1.600060296,-8.000006557,1,0,0,3,"[285,210,33,37,131,164,183,167,320,309,103,170,251,101,100,76,224,130,185,123]",1.600060296,-8.000006557,1,0,0,0,13,13,49,1,,,
,,,,,,,,,,,,,FF,,,,,,,,1.43278,,,,,,,,,,,,,,,,,,,,,,,,,5eff559f6fc177000b4cbfa6,60a7d7fa223a2bf3800940ac,2021-05-21_16h56.02.109,Simcolourproject_2stim_asymm_v5,2020.2.10,Win32,60,60a5f9bf14d0aa2821c4bb84,,,2535,-47.99998927,-85.60005654,1,0,0,response5disk,,3,-3.999988616,6.399993658,1,0,0,rectangle,-3.999988616,6.399993658,1,0,0,6,"[285,210,33,37,131,164,183,167,320,309,103,170,251,101,100,76,224,130,185,123]",-3.999988616,6.399993658,1,0,0,0,14,14,116,1,,,
,,,,,,,,,,,,,FF,,,,,,,,1.566025,,,,,,,,,,,,,,,,,,,,,,,,,5eff559f6fc177000b4cbfa6,60a7d7fa223a2bf3800940ac,2021-05-21_16h56.02.109,Simcolourproject_2stim_asymm_v5,2020.2.10,Win32,60,60a5f9bf14d0aa2821c4bb84,,,2383,-72.79998964,-45.60000712,1,0,0,response5disk,,3,27.20001185,-7.200006545,1,0,0,rectangle,27.20001185,-7.200006545,1,0,0,1,"[285,210,33,37,131,164,183,167,320,309,103,170,251,101,100,76,224,130,185,123]",27.20001185,-7.200006545,1,0,0,0,15,15,97,1,,,
,,,,,,,,,,,,,FF,,,,,,,,0.96569,,,,,,,,,,,,,,,,,,,,,,,,,5eff559f6fc177000b4cbfa6,60a7d7fa223a2bf3800940ac,2021-05-21_16h56.02.109,Simcolourproject_2stim_asymm_v5,2020.2.10,Win32,60,60a5f9bf14d0aa2821c4bb84,,,1529,-68.79998958,-28.00000685,1,0,0,response5disk,,3,-0.799988568,2.399993598,1,0,0,rectangle,-0.799988568,2.399993598,1,0,0,3,"[285,210,33,37,131,164,183,167,320,309,103,170,251,101,100,76,224,130,185,123]",-0.799988568,2.399993598,1,0,0,0,16,16,41,1,,,
,,,,,,,,,,,,,FF,,,,,,,,1.499635,,,,,,,,,,,,,,,,,,,,,,,,,5eff559f6fc177000b4cbfa6,60a7d7fa223a2bf3800940ac,2021-05-21_16h56.02.109,Simcolourproject_2stim_asymm_v5,2020.2.10,Win32,60,60a5f9bf14d0aa2821c4bb84,,,3293,-83.99998981,-35.20000696,1,0,0,response5disk,,3,8.000011563,4.799993634,1,0,0,rectangle,8.000011563,4.799993634,1,0,0,1,"[285,210,33,37,131,164,183,167,320,309,103,170,251,101,100,76,224,130,185,123]",8.000011563,4.799993634,1,0,0,0,17,17,115,1,,,
,,,,,,,,,,,,,FF,,,,,,,,1.33545,,,,,,,,,,,,,,,,,,,,,,,,,5eff559f6fc177000b4cbfa6,60a7d7fa223a2bf3800940ac,2021-05-21_16h56.02.109,Simcolourproject_2stim_asymm_v5,2020.2.10,Win32,60,60a5f9bf14d0aa2821c4bb84,,,3870,25.60006065,-87.20000774,1,0,0,response3disk,,4,-1.59998858,-4.000006497,1,0,0,rectangle,-1.59998858,-4.000006497,1,0,0,5,"[285,210,33,37,131,164,183,167,320,309,103,170,251,101,100,76,224,130,185,123]",-1.59998858,-4.000006497,1,0,0,0,18,18,77,1,,,
,,,,,,,,,,,,,FF,,,,,,,,1.349185,,,,,,,,,,,,,,,,,,,,,,,,,5eff559f6fc177000b4cbfa6,60a7d7fa223a2bf3800940ac,2021-05-21_16h56.02.109,Simcolourproject_2stim_asymm_v5,2020.2.10,Win32,60,60a5f9bf14d0aa2821c4bb84,,,2968,92.00001281,-35.20000696,1,0,0,response3disk,,5,3.200011492,6.399993658,1,0,0,rectangle,3.200011492,6.399993658,1,0,0,0,"[285,210,33,37,131,164,183,167,320,309,103,170,251,101,100,76,224,130,185,123]",3.200011492,6.399993658,1,0,0,0,19,19,142,1,,,
,,,,,,,,,,,,,FF,,,,,,,,2.28244,,,,,,,,,,,,,,,,,,,,,,,,,5eff559f6fc177000b4cbfa6,60a7d7fa223a2bf3800940ac,2021-05-21_16h56.02.109,Simcolourproject_2stim_asymm_v5,2020.2.10,Win32,60,60a5f9bf14d0aa2821c4bb84,,,1372,-35.99998909,-75.20000756,1,0,0,response5disk,,3,1.600060296,-0.800006449,1,0,0,rectangle,1.600060296,-0.800006449,1,0,0,0,"[285,210,33,37,131,164,183,167,320,309,103,170,251,101,100,76,224,130,185,123]",1.600060296,-0.800006449,1,0,0,0,20,20,29,1,,,
,,,,,,,,,,,,,FF,,,,,,,,1.48257,,,,,,,,,,,,,,,,,,,,,,,,,5eff559f6fc177000b4cbfa6,60a7d7fa223a2bf3800940ac,2021-05-21_16h56.02.109,Simcolourproject_2stim_asymm_v5,2020.2.10,Win32,60,60a5f9bf14d0aa2821c4bb84,,,3661,-35.99998909,-80.00000763,1,0,0,response5disk,,3,-12.79998875,-0.800006449,1,0,0,rectangle,-12.79998875,-0.800006449,1,0,0,1,"[285,210,33,37,131,164,183,167,320,309,103,170,251,101,100,76,224,130,185,123]",-12.79998875,-0.800006449,1,0,0,0,21,21,130,1,,,
,,,,,,,,,,,,,FF,,,,,,,,1.74876,,,,,,,,,,,,,,,,,,,,,,,,,5eff559f6fc177000b4cbfa6,60a7d7fa223a2bf3800940ac,2021-05-21_16h56.02.109,Simcolourproject_2stim_asymm_v5,2020.2.10,Win32,60,60a5f9bf14d0aa2821c4bb84,,,2085,31.20001191,-101.6000568,1,0,0,response3disk,,4,-1.59998858,-1.600006461,1,0,0,rectangle,-1.59998858,-1.600006461,1,0,0,3,"[285,210,33,37,131,164,183,167,320,309,103,170,251,101,100,76,224,130,185,123]",-1.59998858,-1.600006461,1,0,0,0,22,22,59,1,,,
,,,,,,,,,,,,,FF,,,,,,,,1.397705,,,,,,,,,,,,,,,,,,,,,,,,,5eff559f6fc177000b4cbfa6,60a7d7fa223a2bf3800940ac,2021-05-21_16h56.02.109,Simcolourproject_2stim_asymm_v5,2020.2.10,Win32,60,60a5f9bf14d0aa2821c4bb84,,,2068,89.60001278,-31.2000069,1,0,0,response3disk,,5,12.00001162,6.399993658,1,0,0,rectangle,12.00001162,6.399993658,1,0,0,6,"[285,210,33,37,131,164,183,167,320,309,103,170,251,101,100,76,224,130,185,123]",12.00001162,6.399993658,1,0,0,0,23,23,98,1,,,
,,,,,,,,,,,,,FF,,,,,,,,2.08239,,,,,,,,,,,,,,,,,,,,,,,,,5eff559f6fc177000b4cbfa6,60a7d7fa223a2bf3800940ac,2021-05-21_16h56.02.109,Simcolourproject_2stim_asymm_v5,2020.2.10,Win32,60,60a5f9bf14d0aa2821c4bb84,,,1243,96.80001289,-42.40000707,1,0,0,response3disk,,5,-8.799988687,2.399993598,1,0,0,rectangle,-8.799988687,2.399993598,1,0,0,0,"[285,210,33,37,131,164,183,167,320,309,103,170,251,101,100,76,224,130,185,123]",-8.799988687,2.399993598,1,0,0,0,24,24,92,1,,,
,,,,,,,,,,,,,FF,,,,,,,,2.098355,,,,,,,,,,,,,,,,,,,,,,,,,5eff559f6fc177000b4cbfa6,60a7d7fa223a2bf3800940ac,2021-05-21_16h56.02.109,Simcolourproject_2stim_asymm_v5,2020.2.10,Win32,60,60a5f9bf14d0aa2821c4bb84,,,3483,65.60001242,-104.000008,1,0,0,response3disk,,4,1.14441E-05,-3.200006485,1,0,0,rectangle,1.14441E-05,-3.200006485,1,0,0,3,"[285,210,33,37,131,164,183,167,320,309,103,170,251,101,100,76,224,130,185,123]",1.14441E-05,-3.200006485,1,0,0,0,25,25,109,1,,,
,,,,,,,,,,,,,FF,,,,,,,,1.23219,,,,,,,,,,,,,,,,,,,,,,,,,5eff559f6fc177000b4cbfa6,60a7d7fa223a2bf3800940ac,2021-05-21_16h56.02.109,Simcolourproject_2stim_asymm_v5,2020.2.10,Win32,60,60a5f9bf14d0aa2821c4bb84,,,1378,-42.39994036,-97.60005672,1,0,0,response5disk,,3,-4.799988627,-11.2000066,1,0,0,rectangle,-4.799988627,-11.2000066,1,0,0,0,"[285,210,33,37,131,164,183,167,320,309,103,170,251,101,100,76,224,130,185,123]",-4.799988627,-11.2000066,1,0,0,0,26,26,148,1,,,
,,,,,,,,,,,,,FF,,,,,,,,2.198665,,,,,,,,,,,,,,,,,,,,,,,,,5eff559f6fc177000b4cbfa6,60a7d7fa223a2bf3800940ac,2021-05-21_16h56.02.109,Simcolourproject_2stim_asymm_v5,2020.2.10,Win32,60,60a5f9bf14d0aa2821c4bb84,,,3792,105.600013,-42.40000707,1,0,0,response3disk,,5,11.20001161,0.799993575,1,0,0,rectangle,11.20001161,0.799993575,1,0,0,3,"[285,210,33,37,131,164,183,167,320,309,103,170,251,101,100,76,224,130,185,123]",11.20001161,0.799993575,1,0,0,0,27,27,135,1,,,
,,,,,,,,,,,,,FF,,,,,,,,1.399175,,,,,,,,,,,,,,,,,,,,,,,,,5eff559f6fc177000b4cbfa6,60a7d7fa223a2bf3800940ac,2021-05-21_16h56.02.109,Simcolourproject_2stim_asymm_v5,2020.2.10,Win32,60,60a5f9bf14d0aa2821c4bb84,,,3951,60.00001234,-87.20000774,1,0,0,response3disk,,4,-2.399939764,-9.60000658,1,0,0,rectangle,-2.399939764,-9.60000658,1,0,0,1,"[285,210,33,37,131,164,183,167,320,309,103,170,251,101,100,76,224,130,185,123]",-2.399939764,-9.60000658,1,0,0,0,28,28,144,1,,,
,,,,,,,,,,,,,FF,,,,,,,,1.33261,,,,,,,,,,,,,,,,,,,,,,,,,5eff559f6fc177000b4cbfa6,60a7d7fa223a2bf3800940ac,2021-05-21_16h56.02.109,Simcolourproject_2stim_asymm_v5,2020.2.10,Win32,60,60a5f9bf14d0aa2821c4bb84,,,3477,-55.99998939,-92.00000781,1,0,0,response5disk,,3,-3.999988616,-12.80000663,1,0,0,rectangle,-3.999988616,-12.80000663,1,0,0,3,"[285,210,33,37,131,164,183,167,320,309,103,170,251,101,100,76,224,130,185,123]",-3.999988616,-12.80000663,1,0,0,0,29,29,94,1,,,
,,,,,,,,,,,,,FF,,,,,,,,1.399105,,,,,,,,,,,,,,,,,,,,,,,,,5eff559f6fc177000b4cbfa6,60a7d7fa223a2bf3800940ac,2021-05-21_16h56.02.109,Simcolourproject_2stim_asymm_v5,2020.2.10,Win32,60,60a5f9bf14d0aa2821c4bb84,,,1967,-38.3999403,-85.60005654,1,0,0,response5disk,,3,1.600060296,-8.000006557,1,0,0,rectangle,1.600060296,-8.000006557,1,0,0,5,"[285,210,33,37,131,164,183,167,320,309,103,170,251,101,100,76,224,130,185,123]",1.600060296,-8.000006557,1,0,0,0,30,30,91,1,,,
,,,,,,,,,,,,,FF,,,,,,,,1.335385,,,,,,,,,,,,,,,,,,,,,,,,,5eff559f6fc177000b4cbfa6,60a7d7fa223a2bf3800940ac,2021-05-21_16h56.02.109,Simcolourproject_2stim_asymm_v5,2020.2.10,Win32,60,60a5f9bf14d0aa2821c4bb84,,,1431,-35.99998909,-89.6000566,1,0,0,response5disk,,3,3.200011492,2.399993598,1,0,0,rectangle,3.200011492,2.399993598,1,0,0,5,"[285,210,33,37,131,164,183,167,320,309,103,170,251,101,100,76,224,130,185,123]",3.200011492,2.399993598,1,0,0,0,31,31,63,1,,,
,,,,,,,,,,,,,FF,,,,,,,,0.868855,,,,,,,,,,,,,,,,,,,,,,,,,5eff559f6fc177000b4cbfa6,60a7d7fa223a2bf3800940ac,2021-05-21_16h56.02.109,Simcolourproject_2stim_asymm_v5,2020.2.10,Win32,60,60a5f9bf14d0aa2821c4bb84,,,2783,-90.39994107,-41.60000706,1,0,0,response5disk,,3,2.40001148,-0.800006449,1,0,0,rectangle,96.00001287,31.19996961,1,0,0,6,"[285,210,33,37,131,164,183,167,320,309,103,170,251,101,100,76,224,130,185,123]",-4.799988627,-3.200006485,1,0,0,0,32,32,119,1,,response1disk_3,rectangle
,,,,,,,,,,,,,FF,,,,,,,,1.649495,,,,,,,,,,,,,,,,,,,,,,,,,5eff559f6fc177000b4cbfa6,60a7d7fa223a2bf3800940ac,2021-05-21_16h56.02.109,Simcolourproject_2stim_asymm_v5,2020.2.10,Win32,60,60a5f9bf14d0aa2821c4bb84,,,69,-48.79998928,-86.40000772,1,0,0,response5disk,,3,4.000011504,2.399993598,1,0,0,rectangle,4.000011504,2.399993598,1,0,0,7,"[285,210,33,37,131,164,183,167,320,309,103,170,251,101,100,76,224,130,185,123]",4.000011504,2.399993598,1,0,0,0,33,33,23,1,,,
,,,,,,,,,,,,,FF,,,,,,,,1.349535,,,,,,,,,,,,,,,,,,,,,,,,,5eff559f6fc177000b4cbfa6,60a7d7fa223a2bf3800940ac,2021-05-21_16h56.02.109,Simcolourproject_2stim_asymm_v5,2020.2.10,Win32,60,60a5f9bf14d0aa2821c4bb84,,,1643,94.40001285,26.39999396,1,0,0,response1disk,,6,-11.19998872,-1.600006461,1,0,0,rectangle,-11.19998872,-1.600006461,1,0,0,0,"[285,210,33,37,131,164,183,167,320,309,103,170,251,101,100,76,224,130,185,123]",-11.19998872,-1.600006461,1,0,0,0,34,34,61,1,,,
,,,,,,,,,,,,,FF,,,,,,,,1.33507,,,,,,,,,,,,,,,,,,,,,,,,,5eff559f6fc177000b4cbfa6,60a7d7fa223a2bf3800940ac,2021-05-21_16h56.02.109,Simcolourproject_2stim_asymm_v5,2020.2.10,Win32,60,60a5f9bf14d0aa2821c4bb84,,,2803,82.40001267,40.79999417,1,0,0,response1disk,,6,-0.799988568,2.399993598,1,0,0,rectangle,-0.799988568,2.399993598,1,0,0,6,"[285,210,33,37,131,164,183,167,320,309,103,170,251,101,100,76,224,130,185,123]",-0.799988568,2.399993598,1,0,0,0,35,35,20,1,,,
,,,,,,,,,,,,,FF,,,,,,,,1.432945,,,,,,,,,,,,,,,,,,,,,,,,,5eff559f6fc177000b4cbfa6,60a7d7fa223a2bf3800940ac,2021-05-21_16h56.02.109,Simcolourproject_2stim_asymm_v5,2020.2.10,Win32,60,60a5f9bf14d0aa2821c4bb84,,,4356,-79.19998974,-35.20000696,1,0,0,response5disk,,6,7.200011551,7.999993682,1,0,0,rectangle,84.0000127,-41.60000706,1,0,0,5,"[285,210,33,37,131,164,183,167,320,309,103,170,251,101,100,76,224,130,185,123]",-2.399939764,-3.200006485,1,0,0,0,36,36,160,1,,response3disk_3,rectangle
,,,,,,,,,,,,,FF,,,,,,,,1.41587,,,,,,,,,,,,,,,,,,,,,,,,,5eff559f6fc177000b4cbfa6,60a7d7fa223a2bf3800940ac,2021-05-21_16h56.02.109,Simcolourproject_2stim_asymm_v5,2020.2.10,Win32,60,60a5f9bf14d0aa2821c4bb84,,,3353,100.0000129,35.9999941,1,0,0,response1disk,,6,8.000011563,-7.200006545,1,0,0,rectangle,8.000011563,-7.200006545,1,0,0,2,"[285,210,33,37,131,164,183,167,320,309,103,170,251,101,100,76,224,130,185,123]",8.000011563,-7.200006545,1,0,0,0,37,37,118,1,,,
,,,,,,,,,,,,,FF,,,,,,,,2.06536,,,,,,,,,,,,,,,,,,,,,,,,,5eff559f6fc177000b4cbfa6,60a7d7fa223a2bf3800940ac,2021-05-21_16h56.02.109,Simcolourproject_2stim_asymm_v5,2020.2.10,Win32,60,60a5f9bf14d0aa2821c4bb84,,,2434,86.40001273,30.39999402,1,0,0,response1disk,,6,0.800011456,-1.600006461,1,0,0,rectangle,0.800011456,-1.600006461,1,0,0,7,"[285,210,33,37,131,164,183,167,320,309,103,170,251,101,100,76,224,130,185,123]",0.800011456,-1.600006461,1,0,0,0,38,38,22,1,,,
,,,,,,,,,,,,,FF,,,,,,,,0.932705,,,,,,,,,,,,,,,,,,,,,,,,,5eff559f6fc177000b4cbfa6,60a7d7fa223a2bf3800940ac,2021-05-21_16h56.02.109,Simcolourproject_2stim_asymm_v5,2020.2.10,Win32,60,60a5f9bf14d0aa2821c4bb84,,,1102,45.60006095,62.39999449,1,0,0,response1disk,,7,1.14441E-05,-14.40000665,1,0,0,rectangle,1.14441E-05,-14.40000665,1,0,0,2,"[285,210,33,37,131,164,183,167,320,309,103,170,251,101,100,76,224,130,185,123]",1.14441E-05,-14.40000665,1,0,0,0,39,39,16,1,,,
,,,,,,,,,,,,,FF,,,,,,,,1.032815,,,,,,,,,,,,,,,,,,,,,,,,,5eff559f6fc177000b4cbfa6,60a7d7fa223a2bf3800940ac,2021-05-21_16h56.02.109,Simcolourproject_2stim_asymm_v5,2020.2.10,Win32,60,60a5f9bf14d0aa2821c4bb84,,,2223,44.0000121,107.1999707,1,0,0,response1disk,,7,0.800011456,-8.800006568,1,0,0,rectangle,0.800011456,-8.800006568,1,0,0,5,"[285,210,33,37,131,164,183,167,320,309,103,170,251,101,100,76,224,130,185,123]",0.800011456,-8.800006568,1,0,0,0,40,40,90,1,,,
,,,,,,,,,,,,,FF,,,,,,,,1.732445,,,,,,,,,,,,,,,,,,,,,,,,,5eff559f6fc177000b4cbfa6,60a7d7fa223a2bf3800940ac,2021-05-21_16h56.02.109,Simcolourproject_2stim_asymm_v5,2020.2.10,Win32,60,60a5f9bf14d0aa2821c4bb84,,,999,87.20001274,31.99999404,1,0,0,response1disk,,6,-4.799988627,2.399993598,1,0,0,rectangle,-4.799988627,2.399993598,1,0,0,0,"[285,210,33,37,131,164,183,167,320,309,103,170,251,101,100,76,224,130,185,123]",-4.799988627,2.399993598,1,0,0,0,41,41,132,1,,,
,,,,,,,,,,,,,FF,,,,,,,,1.98196,,,,,,,,,,,,,,,,,,,,,,,,,5eff559f6fc177000b4cbfa6,60a7d7fa223a2bf3800940ac,2021-05-21_16h56.02.109,Simcolourproject_2stim_asymm_v5,2020.2.10,Win32,60,60a5f9bf14d0aa2821c4bb84,,,3165,110.4000131,52.79999435,1,0,0,response1disk,,6,13.60006047,-5.600006521,1,0,0,rectangle,13.60006047,-5.600006521,1,0,0,3,"[285,210,33,37,131,164,183,167,320,309,103,170,251,101,100,76,224,130,185,123]",13.60006047,-5.600006521,1,0,0,0,42,42,9,1,,,
,,,,,,,,,,,,,FF,,,,,,,,0.897665,,,,,,,,,,,,,,,,,,,,,,,,,5eff559f6fc177000b4cbfa6,60a7d7fa223a2bf3800940ac,2021-05-21_16h56.02.109,Simcolourproject_2stim_asymm_v5,2020.2.10,Win32,60,60a5f9bf14d0aa2821c4bb84,,,2023,82.40001267,-31.2000069,1,0,0,response3disk,,5,3.200011492,-0.800006449,1,0,0,rectangle,3.200011492,-0.800006449,1,0,0,6,"[285,210,33,37,131,164,183,167,320,309,103,170,251,101,100,76,224,130,185,123]",3.200011492,-0.800006449,1,0,0,0,43,43,67,1,,,
,,,,,,,,,,,,,FF,,,,,,,,1.21416,,,,,,,,,,,,,,,,,,,,,,,,,5eff559f6fc177000b4cbfa6,60a7d7fa223a2bf3800940ac,2021-05-21_16h56.02.109,Simcolourproject_2stim_asymm_v5,2020.2.10,Win32,60,60a5f9bf14d0aa2821c4bb84,,,3511,-43.99998921,-73.60000753,1,0,0,response5disk,,3,6.400011539,-5.600006521,1,0,0,rectangle,6.400011539,-5.600006521,1,0,0,5,"[285,210,33,37,131,164,183,167,320,309,103,170,251,101,100,76,224,130,185,123]",6.400011539,-5.600006521,1,0,0,0,44,44,54,1,,,
,,,,,,,,,,,,,FF,,,,,,,,1.147885,,,,,,,,,,,,,,,,,,,,,,,,,5eff559f6fc177000b4cbfa6,60a7d7fa223a2bf3800940ac,2021-05-21_16h56.02.109,Simcolourproject_2stim_asymm_v5,2020.2.10,Win32,60,60a5f9bf14d0aa2821c4bb84,,,867,-36.7999891,-78.40000761,1,0,0,response5disk,,3,-1.59998858,-6.4373E-06,1,0,0,rectangle,-1.59998858,-6.4373E-06,1,0,0,0,"[285,210,33,37,131,164,183,167,320,309,103,170,251,101,100,76,224,130,185,123]",-1.59998858,-6.4373E-06,1,0,0,0,45,45,154,1,,,
,,,,,,,,,,,,,FF,,,,,,,,1.01013,,,,,,,,,,,,,,,,,,,,,,,,,5eff559f6fc177000b4cbfa6,60a7d7fa223a2bf3800940ac,2021-05-21_16h56.02.109,Simcolourproject_2stim_asymm_v5,2020.2.10,Win32,60,60a5f9bf14d0aa2821c4bb84,,,309,84.0000127,51.19996991,1,0,0,response1disk,,6,-4.799988627,-6.4373E-06,1,0,0,rectangle,-4.799988627,-6.4373E-06,1,0,0,4,"[285,210,33,37,131,164,183,167,320,309,103,170,251,101,100,76,224,130,185,123]",-4.799988627,-6.4373E-06,1,0,0,0,46,46,39,1,,,
,,,,,,,,,,,,,FF,,,,,,,,1.64899,,,,,,,,,,,,,,,,,,,,,,,,,5eff559f6fc177000b4cbfa6,60a7d7fa223a2bf3800940ac,2021-05-21_16h56.02.109,Simcolourproject_2stim_asymm_v5,2020.2.10,Win32,60,60a5f9bf14d0aa2821c4bb84,,,1968,117.6000132,-54.40000725,1,0,0,response3disk,,5,11.20001161,-8.000006557,1,0,0,rectangle,11.20001161,-8.000006557,1,0,0,2,"[285,210,33,37,131,164,183,167,320,309,103,170,251,101,100,76,224,130,185,123]",11.20001161,-8.000006557,1,0,0,0,47,47,57,1,,,
,,,,,,,,,,,,,FF,,,,,,,,1.232855,,,,,,,,,,,,,,,,,,,,,,,,,5eff559f6fc177000b4cbfa6,60a7d7fa223a2bf3800940ac,2021-05-21_16h56.02.109,Simcolourproject_2stim_asymm_v5,2020.2.10,Win32,60,60a5f9bf14d0aa2821c4bb84,,,649,98.40001291,-28.00000685,1,0,0,response3disk,,5,1.600060296,-3.200006485,1,0,0,rectangle,1.600060296,-3.200006485,1,0,0,0,"[285,210,33,37,131,164,183,167,320,309,103,170,251,101,100,76,224,130,185,123]",1.600060296,-3.200006485,1,0,0,0,48,48,68,1,,,
,,,,,,,,,,,,,FF,,,,,,,,1.033055,,,,,,,,,,,,,,,,,,,,,,,,,5eff559f6fc177000b4cbfa6,60a7d7fa223a2bf3800940ac,2021-05-21_16h56.02.109,Simcolourproject_2stim_asymm_v5,2020.2.10,Win32,60,60a5f9bf14d0aa2821c4bb84,,,3327,53.60001224,72.79999465,1,0,0,response1disk,,7,-3.999988616,-9.60000658,1,0,0,rectangle,-3.999988616,-9.60000658,1,0,0,5,"[285,210,33,37,131,164,183,167,320,309,103,170,251,101,100,76,224,130,185,123]",-3.999988616,-9.60000658,1,0,0,0,49,49,138,1,,,
,,,,,,,,,,,,,FF,,,,,,,,1.315765,,,,,,,,,,,,,,,,,,,,,,,,,5eff559f6fc177000b4cbfa6,60a7d7fa223a2bf3800940ac,2021-05-21_16h56.02.109,Simcolourproject_2stim_asymm_v5,2020.2.10,Win32,60,60a5f9bf14d0aa2821c4bb84,,,2034,-95.19998997,-40.80000705,1,0,0,response5disk,,7,7.200011551,-1.600006461,1,0,0,rectangle,7.200011551,-1.600006461,1,0,0,7,"[285,210,33,37,131,164,183,167,320,309,103,170,251,101,100,76,224,130,185,123]",7.200011551,-1.600006461,1,0,0,0,50,50,50,1,,,
,,,,,,,,,,,,,FF,,,,,,,,1.466135,,,,,,,,,,,,,,,,,,,,,,,,,5eff559f6fc177000b4cbfa6,60a7d7fa223a2bf3800940ac,2021-05-21_16h56.02.109,Simcolourproject_2stim_asymm_v5,2020.2.10,Win32,60,60a5f9bf14d0aa2821c4bb84,,,1821,-31.99998903,-80.00000763,1,0,0,response5disk,,3,-10.39993988,-4.800006509,1,0,0,rectangle,-10.39993988,-4.800006509,1,0,0,7,"[285,210,33,37,131,164,183,167,320,309,103,170,251,101,100,76,224,130,185,123]",-10.39993988,-4.800006509,1,0,0,0,51,51,112,1,,,
,,,,,,,,,,,,,FF,,,,,,,,1.41394,,,,,,,,,,,,,,,,,,,,,,,,,5eff559f6fc177000b4cbfa6,60a7d7fa223a2bf3800940ac,2021-05-21_16h56.02.109,Simcolourproject_2stim_asymm_v5,2020.2.10,Win32,60,60a5f9bf14d0aa2821c4bb84,,,1814,40.00001204,-92.00000781,1,0,0,response3disk,,4,11.20001161,-4.000006497,1,0,0,rectangle,11.20001161,-4.000006497,1,0,0,5,"[285,210,33,37,131,164,183,167,320,309,103,170,251,101,100,76,224,130,185,123]",11.20001161,-4.000006497,1,0,0,0,52,52,158,1,,,
,,,,,,,,,,,,,FF,,,,,,,,1.896635,,,,,,,,,,,,,,,,,,,,,,,,,5eff559f6fc177000b4cbfa6,60a7d7fa223a2bf3800940ac,2021-05-21_16h56.02.109,Simcolourproject_2stim_asymm_v5,2020.2.10,Win32,60,60a5f9bf14d0aa2821c4bb84,,,2529,77.6000126,50.39999431,1,0,0,response1disk,,6,-11.19998872,-3.200006485,1,0,0,rectangle,-11.19998872,-3.200006485,1,0,0,6,"[285,210,33,37,131,164,183,167,320,309,103,170,251,101,100,76,224,130,185,123]",-11.19998872,-3.200006485,1,0,0,0,53,53,117,1,,,
,,,,,,,,,,,,,FF,,,,,,,,0.8328,,,,,,,,,,,,,,,,,,,,,,,,,5eff559f6fc177000b4cbfa6,60a7d7fa223a2bf3800940ac,2021-05-21_16h56.02.109,Simcolourproject_2stim_asymm_v5,2020.2.10,Win32,60,60a5f9bf14d0aa2821c4bb84,,,137,45.60006095,86.39999485,1,0,0,response1disk,,7,1.600060296,-9.60000658,1,0,0,rectangle,1.600060296,-9.60000658,1,0,0,0,"[285,210,33,37,131,164,183,167,320,309,103,170,251,101,100,76,224,130,185,123]",1.600060296,-9.60000658,1,0,0,0,54,54,107,1,,,
,,,,,,,,,,,,,FF,,,,,,,,2.165805,,,,,,,,,,,,,,,,,,,,,,,,,5eff559f6fc177000b4cbfa6,60a7d7fa223a2bf3800940ac,2021-05-21_16h56.02.109,Simcolourproject_2stim_asymm_v5,2020.2.10,Win32,60,60a5f9bf14d0aa2821c4bb84,,,4327,-83.99998981,39.99999416,1,0,0,response7disk,,1,18.40001172,0.799993575,1,0,0,rectangle,18.40001172,0.799993575,1,0,0,4,"[285,210,33,37,131,164,183,167,320,309,103,170,251,101,100,76,224,130,185,123]",18.40001172,0.799993575,1,0,0,0,55,55,31,1,,,
,,,,,,,,,,,,,FF,,,,,,,,1.932175,,,,,,,,,,,,,,,,,,,,,,,,,5eff559f6fc177000b4cbfa6,60a7d7fa223a2bf3800940ac,2021-05-21_16h56.02.109,Simcolourproject_2stim_asymm_v5,2020.2.10,Win32,60,60a5f9bf14d0aa2821c4bb84,,,749,41.60006089,-71.2000075,1,0,0,response3disk,,4,-4.799988627,14.39999378,1,0,0,rectangle,-4.799988627,14.39999378,1,0,0,4,"[285,210,33,37,131,164,183,167,320,309,103,170,251,101,100,76,224,130,185,123]",-4.799988627,14.39999378,1,0,0,0,56,56,28,1,,,
,,,,,,,,,,,,,FF,,,,,,,,1.03523,,,,,,,,,,,,,,,,,,,,,,,,,5eff559f6fc177000b4cbfa6,60a7d7fa223a2bf3800940ac,2021-05-21_16h56.02.109,Simcolourproject_2stim_asymm_v5,2020.2.10,Win32,60,60a5f9bf14d0aa2821c4bb84,,,4344,-95.19998997,-21.60000676,1,0,0,response5disk,,4,1.14441E-05,-1.600006461,1,0,0,rectangle,1.14441E-05,-1.600006461,1,0,0,2,"[285,210,33,37,131,164,183,167,320,309,103,170,251,101,100,76,224,130,185,123]",1.14441E-05,-1.600006461,1,0,0,0,57,57,106,1,,,
,,,,,,,,,,,,,FF,,,,,,,,1.38264,,,,,,,,,,,,,,,,,,,,,,,,,5eff559f6fc177000b4cbfa6,60a7d7fa223a2bf3800940ac,2021-05-21_16h56.02.109,Simcolourproject_2stim_asymm_v5,2020.2.10,Win32,60,60a5f9bf14d0aa2821c4bb84,,,3828,56.80001229,67.19997015,1,0,0,response1disk,,7,20.00001174,-3.200006485,1,0,0,rectangle,20.00001174,-3.200006485,1,0,0,3,"[285,210,33,37,131,164,183,167,320,309,103,170,251,101,100,76,224,130,185,123]",20.00001174,-3.200006485,1,0,0,0,58,58,103,1,,,
,,,,,,,,,,,,,FF,,,,,,,,0.832765,,,,,,,,,,,,,,,,,,,,,,,,,5eff559f6fc177000b4cbfa6,60a7d7fa223a2bf3800940ac,2021-05-21_16h56.02.109,Simcolourproject_2stim_asymm_v5,2020.2.10,Win32,60,60a5f9bf14d0aa2821c4bb84,,,2516,44.0000121,82.39999479,1,0,0,response1disk,,7,1.600060296,-3.200006485,1,0,0,rectangle,1.600060296,-3.200006485,1,0,0,5,"[285,210,33,37,131,164,183,167,320,309,103,170,251,101,100,76,224,130,185,123]",1.600060296,-3.200006485,1,0,0,0,59,59,65,1,,,
,,,,,,,,,,,,,FF,,,,,,,,0.849525,,,,,,,,,,,,,,,,,,,,,,,,,5eff559f6fc177000b4cbfa6,60a7d7fa223a2bf3800940ac,2021-05-21_16h56.02.109,Simcolourproject_2stim_asymm_v5,2020.2.10,Win32,60,60a5f9bf14d0aa2821c4bb84,,,3153,-35.19998908,-61.60000736,1,0,0,response5disk,,3,6.400011539,0.799993575,1,0,0,rectangle,6.400011539,0.799993575,1,0,0,6,"[285,210,33,37,131,164,183,167,320,309,103,170,251,101,100,76,224,130,185,123]",6.400011539,0.799993575,1,0,0,0,60,60,137,1,,,
,,,,,,,,,,,,,FF,,,,,,,,1.08301,,,,,,,,,,,,,,,,,,,,,,,,,5eff559f6fc177000b4cbfa6,60a7d7fa223a2bf3800940ac,2021-05-21_16h56.02.109,Simcolourproject_2stim_asymm_v5,2020.2.10,Win32,60,60a5f9bf14d0aa2821c4bb84,,,581,90.40001279,70.39999461,1,0,0,response1disk,,6,13.60006047,9.599993706,1,0,0,rectangle,13.60006047,9.599993706,1,0,0,5,"[285,210,33,37,131,164,183,167,320,309,103,170,251,101,100,76,224,130,185,123]",13.60006047,9.599993706,1,0,0,0,61,61,143,1,,,
,,,,,,,,,,,,,FF,,,,,,,,0.833235,,,,,,,,,,,,,,,,,,,,,,,,,5eff559f6fc177000b4cbfa6,60a7d7fa223a2bf3800940ac,2021-05-21_16h56.02.109,Simcolourproject_2stim_asymm_v5,2020.2.10,Win32,60,60a5f9bf14d0aa2821c4bb84,,,3351,41.60006089,74.39999467,1,0,0,response1disk,,7,4.000011504,-3.200006485,1,0,0,rectangle,4.000011504,-3.200006485,1,0,0,1,"[285,210,33,37,131,164,183,167,320,309,103,170,251,101,100,76,224,130,185,123]",4.000011504,-3.200006485,1,0,0,0,62,62,40,1,,,
,,,,,,,,,,,,,FF,,,,,,,,1.09943,,,,,,,,,,,,,,,,,,,,,,,,,5eff559f6fc177000b4cbfa6,60a7d7fa223a2bf3800940ac,2021-05-21_16h56.02.109,Simcolourproject_2stim_asymm_v5,2020.2.10,Win32,60,60a5f9bf14d0aa2821c4bb84,,,2645,46.40001214,67.99999458,1,0,0,response1disk,,7,1.600060296,-8.000006557,1,0,0,rectangle,1.600060296,-8.000006557,1,0,0,3,"[285,210,33,37,131,164,183,167,320,309,103,170,251,101,100,76,224,130,185,123]",1.600060296,-8.000006557,1,0,0,0,63,63,83,1,,,
,,,,,,,,,,,,,FF,,,,,,,,1.18311,,,,,,,,,,,,,,,,,,,,,,,,,5eff559f6fc177000b4cbfa6,60a7d7fa223a2bf3800940ac,2021-05-21_16h56.02.109,Simcolourproject_2stim_asymm_v5,2020.2.10,Win32,60,60a5f9bf14d0aa2821c4bb84,,,1381,41.60006089,-87.20000774,1,0,0,response3disk,,4,12.80001163,-3.200006485,1,0,0,rectangle,12.80001163,-3.200006485,1,0,0,7,"[285,210,33,37,131,164,183,167,320,309,103,170,251,101,100,76,224,130,185,123]",12.80001163,-3.200006485,1,0,0,0,64,64,159,1,,,
,,,,,,,,,,,,,FF,,,,,,,,0.91593,,,,,,,,,,,,,,,,,,,,,,,,,5eff559f6fc177000b4cbfa6,60a7d7fa223a2bf3800940ac,2021-05-21_16h56.02.109,Simcolourproject_2stim_asymm_v5,2020.2.10,Win32,60,60a5f9bf14d0aa2821c4bb84,,,1864,87.20001274,46.39999425,1,0,0,response1disk,,6,8.000011563,-2.400006473,1,0,0,rectangle,8.000011563,-2.400006473,1,0,0,4,"[285,210,33,37,131,164,183,167,320,309,103,170,251,101,100,76,224,130,185,123]",8.000011563,-2.400006473,1,0,0,0,65,65,7,1,,,
,,,,,,,,,,,,,FF,,,,,,,,2.348995,,,,,,,,,,,,,,,,,,,,,,,,,5eff559f6fc177000b4cbfa6,60a7d7fa223a2bf3800940ac,2021-05-21_16h56.02.109,Simcolourproject_2stim_asymm_v5,2020.2.10,Win32,60,60a5f9bf14d0aa2821c4bb84,,,586,49.60006101,75.9999947,1,0,0,response1disk,,7,13.60006047,-4.000006497,1,0,0,rectangle,13.60006047,-4.000006497,1,0,0,7,"[285,210,33,37,131,164,183,167,320,309,103,170,251,101,100,76,224,130,185,123]",13.60006047,-4.000006497,1,0,0,0,66,66,86,1,,,
,,,,,,,,,,,,,FF,,,,,,,,0.933155,,,,,,,,,,,,,,,,,,,,,,,,,5eff559f6fc177000b4cbfa6,60a7d7fa223a2bf3800940ac,2021-05-21_16h56.02.109,Simcolourproject_2stim_asymm_v5,2020.2.10,Win32,60,60a5f9bf14d0aa2821c4bb84,,,1550,77.6000126,44.79999423,1,0,0,response1disk,,6,16.00001168,-3.200006485,1,0,0,rectangle,16.00001168,-3.200006485,1,0,0,4,"[285,210,33,37,131,164,183,167,320,309,103,170,251,101,100,76,224,130,185,123]",16.00001168,-3.200006485,1,0,0,0,67,67,15,1,,,
,,,,,,,,,,,,,FF,,,,,,,,1.682705,,,,,,,,,,,,,,,,,,,,,,,,,5eff559f6fc177000b4cbfa6,60a7d7fa223a2bf3800940ac,2021-05-21_16h56.02.109,Simcolourproject_2stim_asymm_v5,2020.2.10,Win32,60,60a5f9bf14d0aa2821c4bb84,,,2949,78.40001261,32.79999405,1,0,0,response1disk,,6,8.000011563,-6.400006533,1,0,0,rectangle,8.000011563,-6.400006533,1,0,0,1,"[285,210,33,37,131,164,183,167,320,309,103,170,251,101,100,76,224,130,185,123]",8.000011563,-6.400006533,1,0,0,0,68,68,82,1,,,
,,,,,,,,,,,,,FF,,,,,,,,0.98121,,,,,,,,,,,,,,,,,,,,,,,,,5eff559f6fc177000b4cbfa6,60a7d7fa223a2bf3800940ac,2021-05-21_16h56.02.109,Simcolourproject_2stim_asymm_v5,2020.2.10,Win32,60,60a5f9bf14d0aa2821c4bb84,,,1899,-75.99998969,-34.40000695,1,0,0,response5disk,,6,12.00001162,-7.200006545,1,0,0,rectangle,12.00001162,-7.200006545,1,0,0,2,"[285,210,33,37,131,164,183,167,320,309,103,170,251,101,100,76,224,130,185,123]",12.00001162,-7.200006545,1,0,0,0,69,69,157,1,,,
,,,,,,,,,,,,,FF,,,,,,,,2.76531,,,,,,,,,,,,,,,,,,,,,,,,,5eff559f6fc177000b4cbfa6,60a7d7fa223a2bf3800940ac,2021-05-21_16h56.02.109,Simcolourproject_2stim_asymm_v5,2020.2.10,Win32,60,60a5f9bf14d0aa2821c4bb84,,,1526,40.00001204,-89.6000566,1,0,0,response3disk,,4,1.14441E-05,-7.200006545,1,0,0,rectangle,1.14441E-05,-7.200006545,1,0,0,2,"[285,210,33,37,131,164,183,167,320,309,103,170,251,101,100,76,224,130,185,123]",1.14441E-05,-7.200006545,1,0,0,0,70,70,32,1,,,
,,,,,,,,,,,,,FF,,,,,,,,0.89993,,,,,,,,,,,,,,,,,,,,,,,,,5eff559f6fc177000b4cbfa6,60a7d7fa223a2bf3800940ac,2021-05-21_16h56.02.109,Simcolourproject_2stim_asymm_v5,2020.2.10,Win32,60,60a5f9bf14d0aa2821c4bb84,,,3071,81.60001266,39.99999416,1,0,0,response1disk,,6,12.80001163,-8.000006557,1,0,0,rectangle,12.80001163,-8.000006557,1,0,0,6,"[285,210,33,37,131,164,183,167,320,309,103,170,251,101,100,76,224,130,185,123]",12.80001163,-8.000006557,1,0,0,0,71,71,146,1,,,
,,,,,,,,,,,,,FF,,,,,,,,2.298755,,,,,,,,,,,,,,,,,,,,,,,,,5eff559f6fc177000b4cbfa6,60a7d7fa223a2bf3800940ac,2021-05-21_16h56.02.109,Simcolourproject_2stim_asymm_v5,2020.2.10,Win32,60,60a5f9bf14d0aa2821c4bb84,,,1106,81.60001266,-42.40000707,1,0,0,response3disk,,5,8.800011575,-6.4373E-06,1,0,0,rectangle,8.800011575,-6.4373E-06,1,0,0,4,"[285,210,33,37,131,164,183,167,320,309,103,170,251,101,100,76,224,130,185,123]",8.800011575,-6.4373E-06,1,0,0,0,72,72,111,1,,,
,,,,,,,,,,,,,FF,,,,,,,,2.082395,,,,,,,,,,,,,,,,,,,,,,,,,5eff559f6fc177000b4cbfa6,60a7d7fa223a2bf3800940ac,2021-05-21_16h56.02.109,Simcolourproject_2stim_asymm_v5,2020.2.10,Win32,60,60a5f9bf14d0aa2821c4bb84,,,2865,73.60001254,44.79999423,1,0,0,response1disk,,6,12.00001162,-11.2000066,1,0,0,rectangle,12.00001162,-11.2000066,1,0,0,4,"[285,210,33,37,131,164,183,167,320,309,103,170,251,101,100,76,224,130,185,123]",12.00001162,-11.2000066,1,0,0,0,73,73,17,1,,,
,,,,,,,,,,,,,FF,,,,,,,,1.865455,,,,,,,,,,,,,,,,,,,,,,,,,5eff559f6fc177000b4cbfa6,60a7d7fa223a2bf3800940ac,2021-05-21_16h56.02.109,Simcolourproject_2stim_asymm_v5,2020.2.10,Win32,60,60a5f9bf14d0aa2821c4bb84,,,3131,46.40001214,96.79999501,1,0,0,response1disk,,7,12.00001162,-7.200006545,1,0,0,rectangle,12.00001162,-7.200006545,1,0,0,4,"[285,210,33,37,131,164,183,167,320,309,103,170,251,101,100,76,224,130,185,123]",12.00001162,-7.200006545,1,0,0,0,74,74,35,1,,,
,,,,,,,,,,,,,FF,,,,,,,,1.06601,,,,,,,,,,,,,,,,,,,,,,,,,5eff559f6fc177000b4cbfa6,60a7d7fa223a2bf3800940ac,2021-05-21_16h56.02.109,Simcolourproject_2stim_asymm_v5,2020.2.10,Win32,60,60a5f9bf14d0aa2821c4bb84,,,1362,31.20001191,-78.40000761,1,0,0,response3disk,,4,11.20001161,-0.800006449,1,0,0,rectangle,79.20001262,-34.40000695,1,0,0,5,"[285,210,33,37,131,164,183,167,320,309,103,170,251,101,100,76,224,130,185,123]",12.00001162,-1.600006461,1,0,0,0,75,75,85,1,,response3disk_3,rectangle
,,,,,,,,,,,,,FF,,,,,,,,1.06595,,,,,,,,,,,,,,,,,,,,,,,,,5eff559f6fc177000b4cbfa6,60a7d7fa223a2bf3800940ac,2021-05-21_16h56.02.109,Simcolourproject_2stim_asymm_v5,2020.2.10,Win32,60,60a5f9bf14d0aa2821c4bb84,,,785,-30.39994018,-75.20000756,1,0,0,response5disk,,3,4.000011504,-4.000006497,1,0,0,rectangle,4.000011504,-4.000006497,1,0,0,0,"[285,210,33,37,131,164,183,167,320,309,103,170,251,101,100,76,224,130,185,123]",4.000011504,-4.000006497,1,0,0,0,76,76,73,1,,,
,,,,,,,,,,,,,FF,,,,,,,,1.01633,,,,,,,,,,,,,,,,,,,,,,,,,5eff559f6fc177000b4cbfa6,60a7d7fa223a2bf3800940ac,2021-05-21_16h56.02.109,Simcolourproject_2stim_asymm_v5,2020.2.10,Win32,60,60a5f9bf14d0aa2821c4bb84,,,4292,72.00001252,39.19996973,1,0,0,response1disk,,6,7.200011551,-6.4373E-06,1,0,0,rectangle,7.200011551,-6.4373E-06,1,0,0,3,"[285,210,33,37,131,164,183,167,320,309,103,170,251,101,100,76,224,130,185,123]",7.200011551,-6.4373E-06,1,0,0,0,77,77,24,1,,,
,,,,,,,,,,,,,FF,,,,,,,,0.89966,,,,,,,,,,,,,,,,,,,,,,,,,5eff559f6fc177000b4cbfa6,60a7d7fa223a2bf3800940ac,2021-05-21_16h56.02.109,Simcolourproject_2stim_asymm_v5,2020.2.10,Win32,60,60a5f9bf14d0aa2821c4bb84,,,2938,80.00001264,39.99999416,1,0,0,response1disk,,6,4.000011504,-6.4373E-06,1,0,0,rectangle,4.000011504,-6.4373E-06,1,0,0,6,"[285,210,33,37,131,164,183,167,320,309,103,170,251,101,100,76,224,130,185,123]",4.000011504,-6.4373E-06,1,0,0,0,78,78,93,1,,,
,,,,,,,,,,,,,FF,,,,,,,,2.130145,,,,,,,,,,,,,,,,,,,,,,,,,5eff559f6fc177000b4cbfa6,60a7d7fa223a2bf3800940ac,2021-05-21_16h56.02.109,Simcolourproject_2stim_asymm_v5,2020.2.10,Win32,60,60a5f9bf14d0aa2821c4bb84,,,263,-35.19998908,-89.6000566,1,0,0,response5disk,,3,-1.59998858,4.799993634,1,0,0,rectangle,-1.59998858,4.799993634,1,0,0,4,"[285,210,33,37,131,164,183,167,320,309,103,170,251,101,100,76,224,130,185,123]",-1.59998858,4.799993634,1,0,0,0,79,79,6,1,,,
,,,,,,,,,,,,,FF,,,,,,,,1.382825,,,,,,,,,,,,,,,,,,,,,,,,,5eff559f6fc177000b4cbfa6,60a7d7fa223a2bf3800940ac,2021-05-21_16h56.02.109,Simcolourproject_2stim_asymm_v5,2020.2.10,Win32,60,60a5f9bf14d0aa2821c4bb84,,,1884,70.40001249,34.39999408,1,0,0,response1disk,,6,9.600060415,-2.400006473,1,0,0,rectangle,9.600060415,-2.400006473,1,0,0,0,"[285,210,33,37,131,164,183,167,320,309,103,170,251,101,100,76,224,130,185,123]",9.600060415,-2.400006473,1,0,0,0,80,80,124,1,,,
,,,,,,,,,,,,,FF,,,,,,,,1.215705,,,,,,,,,,,,,,,,,,,,,,,,,5eff559f6fc177000b4cbfa6,60a7d7fa223a2bf3800940ac,2021-05-21_16h56.02.109,Simcolourproject_2stim_asymm_v5,2020.2.10,Win32,60,60a5f9bf14d0aa2821c4bb84,,,3286,82.40001267,40.79999417,1,0,0,response1disk,,6,-0.799988568,-4.000006497,1,0,0,rectangle,-0.799988568,-4.000006497,1,0,0,1,"[285,210,33,37,131,164,183,167,320,309,103,170,251,101,100,76,224,130,185,123]",-0.799988568,-4.000006497,1,0,0,0,81,81,26,1,,,
,,,,,,,,,,,,,FF,,,,,,,,0.74959,,,,,,,,,,,,,,,,,,,,,,,,,5eff559f6fc177000b4cbfa6,60a7d7fa223a2bf3800940ac,2021-05-21_16h56.02.109,Simcolourproject_2stim_asymm_v5,2020.2.10,Win32,60,60a5f9bf14d0aa2821c4bb84,,,2925,82.40001267,35.19996967,1,0,0,response1disk,,6,0.800011456,-6.400006533,1,0,0,rectangle,0.800011456,-6.400006533,1,0,0,7,"[285,210,33,37,131,164,183,167,320,309,103,170,251,101,100,76,224,130,185,123]",0.800011456,-6.400006533,1,0,0,0,82,82,125,1,,,
,,,,,,,,,,,,,FF,,,,,,,,1.182735,,,,,,,,,,,,,,,,,,,,,,,,,5eff559f6fc177000b4cbfa6,60a7d7fa223a2bf3800940ac,2021-05-21_16h56.02.109,Simcolourproject_2stim_asymm_v5,2020.2.10,Win32,60,60a5f9bf14d0aa2821c4bb84,,,4302,52.80001223,82.39999479,1,0,0,response1disk,,7,12.80001163,-1.600006461,1,0,0,rectangle,12.80001163,-1.600006461,1,0,0,4,"[285,210,33,37,131,164,183,167,320,309,103,170,251,101,100,76,224,130,185,123]",12.80001163,-1.600006461,1,0,0,0,83,83,122,1,,,
,,,,,,,,,,,,,FF,,,,,,,,0.74943,,,,,,,,,,,,,,,,,,,,,,,,,5eff559f6fc177000b4cbfa6,60a7d7fa223a2bf3800940ac,2021-05-21_16h56.02.109,Simcolourproject_2stim_asymm_v5,2020.2.10,Win32,60,60a5f9bf14d0aa2821c4bb84,,,27,29.60006071,83.19997039,1,0,0,response1disk,,7,15.20001167,-10.40000659,1,0,0,rectangle,15.20001167,-10.40000659,1,0,0,0,"[285,210,33,37,131,164,183,167,320,309,103,170,251,101,100,76,224,130,185,123]",15.20001167,-10.40000659,1,0,0,0,84,84,95,1,,,
,,,,,,,,,,,,,FF,,,,,,,,3.215245,,,,,,,,,,,,,,,,,,,,,,,,,5eff559f6fc177000b4cbfa6,60a7d7fa223a2bf3800940ac,2021-05-21_16h56.02.109,Simcolourproject_2stim_asymm_v5,2020.2.10,Win32,60,60a5f9bf14d0aa2821c4bb84,,,2424,86.40001273,-35.20000696,1,0,0,response3disk,,5,5.600060356,-1.600006461,1,0,0,rectangle,5.600060356,-1.600006461,1,0,0,0,"[285,210,33,37,131,164,183,167,320,309,103,170,251,101,100,76,224,130,185,123]",5.600060356,-1.600006461,1,0,0,0,85,85,104,1,,,
,,,,,,,,,,,,,FF,,,,,,,,0.88315,,,,,,,,,,,,,,,,,,,,,,,,,5eff559f6fc177000b4cbfa6,60a7d7fa223a2bf3800940ac,2021-05-21_16h56.02.109,Simcolourproject_2stim_asymm_v5,2020.2.10,Win32,60,60a5f9bf14d0aa2821c4bb84,,,818,32.00001192,-67.20000744,1,0,0,response3disk,,4,6.400011539,6.399993658,1,0,0,rectangle,6.400011539,6.399993658,1,0,0,2,"[285,210,33,37,131,164,183,167,320,309,103,170,251,101,100,76,224,130,185,123]",6.400011539,6.399993658,1,0,0,0,86,86,11,1,,,
,,,,,,,,,,,,,FF,,,,,,,,2.01294,,,,,,,,,,,,,,,,,,,,,,,,,5eff559f6fc177000b4cbfa6,60a7d7fa223a2bf3800940ac,2021-05-21_16h56.02.109,Simcolourproject_2stim_asymm_v5,2020.2.10,Win32,60,60a5f9bf14d0aa2821c4bb84,,,1726,-42.39994036,-74.40000755,1,0,0,response5disk,,3,-3.999988616,-1.600006461,1,0,0,rectangle,-3.999988616,-1.600006461,1,0,0,5,"[285,210,33,37,131,164,183,167,320,309,103,170,251,101,100,76,224,130,185,123]",-3.999988616,-1.600006461,1,0,0,0,87,87,89,1,,,
,,,,,,,,,,,,,FF,,,,,,,,1.81395,,,,,,,,,,,,,,,,,,,,,,,,,5eff559f6fc177000b4cbfa6,60a7d7fa223a2bf3800940ac,2021-05-21_16h56.02.109,Simcolourproject_2stim_asymm_v5,2020.2.10,Win32,60,60a5f9bf14d0aa2821c4bb84,,,2150,82.40001267,-32.00000691,1,0,0,response3disk,,5,1.600060296,4.799993634,1,0,0,rectangle,1.600060296,4.799993634,1,0,0,2,"[285,210,33,37,131,164,183,167,320,309,103,170,251,101,100,76,224,130,185,123]",1.600060296,4.799993634,1,0,0,0,88,88,45,1,,,
,,,,,,,,,,,,,FF,,,,,,,,0.93297,,,,,,,,,,,,,,,,,,,,,,,,,5eff559f6fc177000b4cbfa6,60a7d7fa223a2bf3800940ac,2021-05-21_16h56.02.109,Simcolourproject_2stim_asymm_v5,2020.2.10,Win32,60,60a5f9bf14d0aa2821c4bb84,,,2899,83.20001268,34.39999408,1,0,0,response1disk,,6,24.80001181,-5.600006521,1,0,0,rectangle,24.80001181,-5.600006521,1,0,0,3,"[285,210,33,37,131,164,183,167,320,309,103,170,251,101,100,76,224,130,185,123]",24.80001181,-5.600006521,1,0,0,0,89,89,34,1,,,
,,,,,,,,,,,,,FF,,,,,,,,1.14717,,,,,,,,,,,,,,,,,,,,,,,,,5eff559f6fc177000b4cbfa6,60a7d7fa223a2bf3800940ac,2021-05-21_16h56.02.109,Simcolourproject_2stim_asymm_v5,2020.2.10,Win32,60,60a5f9bf14d0aa2821c4bb84,,,1162,73.60001254,48.79999429,1,0,0,response1disk,,6,16.00001168,-3.200006485,1,0,0,rectangle,16.00001168,-3.200006485,1,0,0,0,"[285,210,33,37,131,164,183,167,320,309,103,170,251,101,100,76,224,130,185,123]",16.00001168,-3.200006485,1,0,0,0,90,90,0,1,,,
,,,,,,,,,,,,,FF,,,,,,,,2.281565,,,,,,,,,,,,,,,,,,,,,,,,,5eff559f6fc177000b4cbfa6,60a7d7fa223a2bf3800940ac,2021-05-21_16h56.02.109,Simcolourproject_2stim_asymm_v5,2020.2.10,Win32,60,60a5f9bf14d0aa2821c4bb84,,,2962,45.60006095,-74.40000755,1,0,0,response3disk,,4,18.40001172,7.999993682,1,0,0,rectangle,18.40001172,7.999993682,1,0,0,6,"[285,210,33,37,131,164,183,167,320,309,103,170,251,101,100,76,224,130,185,123]",18.40001172,7.999993682,1,0,0,0,91,91,44,1,,,
,,,,,,,,,,,,,FF,,,,,,,,1.26592,,,,,,,,,,,,,,,,,,,,,,,,,5eff559f6fc177000b4cbfa6,60a7d7fa223a2bf3800940ac,2021-05-21_16h56.02.109,Simcolourproject_2stim_asymm_v5,2020.2.10,Win32,60,60a5f9bf14d0aa2821c4bb84,,,1647,79.20001262,42.39999419,1,0,0,response1disk,,6,4.000011504,-1.600006461,1,0,0,rectangle,4.000011504,-1.600006461,1,0,0,3,"[285,210,33,37,131,164,183,167,320,309,103,170,251,101,100,76,224,130,185,123]",4.000011504,-1.600006461,1,0,0,0,92,92,8,1,,,
,,,,,,,,,,,,,FF,,,,,,,,1.69933,,,,,,,,,,,,,,,,,,,,,,,,,5eff559f6fc177000b4cbfa6,60a7d7fa223a2bf3800940ac,2021-05-21_16h56.02.109,Simcolourproject_2stim_asymm_v5,2020.2.10,Win32,60,60a5f9bf14d0aa2821c4bb84,,,515,23.20001179,-88.00000775,1,0,0,response3disk,,4,-7.199988663,11.19999373,1,0,0,rectangle,-7.199988663,11.19999373,1,0,0,0,"[285,210,33,37,131,164,183,167,320,309,103,170,251,101,100,76,224,130,185,123]",-7.199988663,11.19999373,1,0,0,0,93,93,51,1,,,
,,,,,,,,,,,,,FF,,,,,,,,2.196345,,,,,,,,,,,,,,,,,,,,,,,,,5eff559f6fc177000b4cbfa6,60a7d7fa223a2bf3800940ac,2021-05-21_16h56.02.109,Simcolourproject_2stim_asymm_v5,2020.2.10,Win32,60,60a5f9bf14d0aa2821c4bb84,,,2001,33.60006077,-76.00000757,1,0,0,response3disk,,4,3.200011492,-9.60000658,1,0,0,rectangle,3.200011492,-9.60000658,1,0,0,0,"[285,210,33,37,131,164,183,167,320,309,103,170,251,101,100,76,224,130,185,123]",3.200011492,-9.60000658,1,0,0,0,94,94,100,1,,,
,,,,,,,,,,,,,FF,,,,,,,,1.263925,,,,,,,,,,,,,,,,,,,,,,,,,5eff559f6fc177000b4cbfa6,60a7d7fa223a2bf3800940ac,2021-05-21_16h56.02.109,Simcolourproject_2stim_asymm_v5,2020.2.10,Win32,60,60a5f9bf14d0aa2821c4bb84,,,3572,46.40001214,-93.60005666,1,0,0,response3disk,,4,-1.59998858,-0.800006449,1,0,0,rectangle,-1.59998858,-0.800006449,1,0,0,4,"[285,210,33,37,131,164,183,167,320,309,103,170,251,101,100,76,224,130,185,123]",-1.59998858,-0.800006449,1,0,0,0,95,95,155,1,,,
,,,,,,,,,,,,,FF,,,,,,,,1.58054,,,,,,,,,,,,,,,,,,,,,,,,,5eff559f6fc177000b4cbfa6,60a7d7fa223a2bf3800940ac,2021-05-21_16h56.02.109,Simcolourproject_2stim_asymm_v5,2020.2.10,Win32,60,60a5f9bf14d0aa2821c4bb84,,,1860,96.00001287,-44.8000071,1,0,0,response3disk,,5,19.20001173,0.799993575,1,0,0,rectangle,19.20001173,0.799993575,1,0,0,2,"[285,210,33,37,131,164,183,167,320,309,103,170,251,101,100,76,224,130,185,123]",19.20001173,0.799993575,1,0,0,0,96,96,25,1,,,
,,,,,,,,,,,,,FF,,,,,,,,1.73078,,,,,,,,,,,,,,,,,,,,,,,,,5eff559f6fc177000b4cbfa6,60a7d7fa223a2bf3800940ac,2021-05-21_16h56.02.109,Simcolourproject_2stim_asymm_v5,2020.2.10,Win32,60,60a5f9bf14d0aa2821c4bb84,,,3082,88.00001276,31.99999404,1,0,0,response1disk,,6,11.20001161,3.999993622,1,0,0,rectangle,11.20001161,3.999993622,1,0,0,4,"[285,210,33,37,131,164,183,167,320,309,103,170,251,101,100,76,224,130,185,123]",11.20001161,3.999993622,1,0,0,0,97,97,18,1,,,
,,,,,,,,,,,,,FF,,,,,,,,0.71626,,,,,,,,,,,,,,,,,,,,,,,,,5eff559f6fc177000b4cbfa6,60a7d7fa223a2bf3800940ac,2021-05-21_16h56.02.109,Simcolourproject_2stim_asymm_v5,2020.2.10,Win32,60,60a5f9bf14d0aa2821c4bb84,,,2116,92.00001281,43.19996979,1,0,0,response1disk,,6,8.000011563,-6.4373E-06,1,0,0,rectangle,8.000011563,-6.4373E-06,1,0,0,0,"[285,210,33,37,131,164,183,167,320,309,103,170,251,101,100,76,224,130,185,123]",8.000011563,-6.4373E-06,1,0,0,0,98,98,151,1,,,
,,,,,,,,,,,,,FF,,,,,,,,0.84983,,,,,,,,,,,,,,,,,,,,,,,,,5eff559f6fc177000b4cbfa6,60a7d7fa223a2bf3800940ac,2021-05-21_16h56.02.109,Simcolourproject_2stim_asymm_v5,2020.2.10,Win32,60,60a5f9bf14d0aa2821c4bb84,,,3927,51.20001221,92.79999495,1,0,0,response1disk,,7,8.000011563,-13.60000664,1,0,0,rectangle,96.00001287,-46.40000713,1,0,0,5,"[285,210,33,37,131,164,183,167,320,309,103,170,251,101,100,76,224,130,185,123]",5.600060356,-4.000006497,1,0,0,0,99,99,64,1,,response3disk_3,rectangle
,,,,,,,,,,,,,FF,,,,,,,,2.74846,,,,,,,,,,,,,,,,,,,,,,,,,5eff559f6fc177000b4cbfa6,60a7d7fa223a2bf3800940ac,2021-05-21_16h56.02.109,Simcolourproject_2stim_asymm_v5,2020.2.10,Win32,60,60a5f9bf14d0aa2821c4bb84,,,144,72.00001252,-51.2000072,1,0,0,response3disk,,5,18.40001172,-5.600006521,1,0,0,rectangle,-43.99998921,96.79999501,1,0,0,0,"[285,210,33,37,131,164,183,167,320,309,103,170,251,101,100,76,224,130,185,123]",-0.799988568,-2.400006473,1,0,0,0,100,100,14,1,,response7disk_3,rectangle
,,,,,,,,,,,,,FF,,,,,,,,2.86546,,,,,,,,,,,,,,,,,,,,,,,,,5eff559f6fc177000b4cbfa6,60a7d7fa223a2bf3800940ac,2021-05-21_16h56.02.109,Simcolourproject_2stim_asymm_v5,2020.2.10,Win32,60,60a5f9bf14d0aa2821c4bb84,,,429,100.0000129,-48.00000715,1,0,0,response3disk,,5,3.200011492,3.19999361,1,0,0,rectangle,3.200011492,3.19999361,1,0,0,7,"[285,210,33,37,131,164,183,167,320,309,103,170,251,101,100,76,224,130,185,123]",3.200011492,3.19999361,1,0,0,0,101,101,114,1,,,
,,,,,,,,,,,,,FF,,,,,,,,1.68558,,,,,,,,,,,,,,,,,,,,,,,,,5eff559f6fc177000b4cbfa6,60a7d7fa223a2bf3800940ac,2021-05-21_16h56.02.109,Simcolourproject_2stim_asymm_v5,2020.2.10,Win32,60,60a5f9bf14d0aa2821c4bb84,,,2375,79.20001262,-29.60000688,1,0,0,response3disk,,5,1.14441E-05,4.799993634,1,0,0,rectangle,-91.99998993,-57.6000073,1,0,0,2,"[285,210,33,37,131,164,183,167,320,309,103,170,251,101,100,76,224,130,185,123]",-7.199988663,-4.000006497,1,0,0,0,102,102,10,1,,response5disk_3,rectangle
,,,,,,,,,,,,,FF,,,,,,,,1.01386,,,,,,,,,,,,,,,,,,,,,,,,,5eff559f6fc177000b4cbfa6,60a7d7fa223a2bf3800940ac,2021-05-21_16h56.02.109,Simcolourproject_2stim_asymm_v5,2020.2.10,Win32,60,60a5f9bf14d0aa2821c4bb84,,,1764,-102.3999413,-48.00000715,1,0,0,response5disk,,5,4.000011504,-4.000006497,1,0,0,rectangle,4.000011504,-4.000006497,1,0,0,1,"[285,210,33,37,131,164,183,167,320,309,103,170,251,101,100,76,224,130,185,123]",4.000011504,-4.000006497,1,0,0,0,103,103,13,1,,,
,,,,,,,,,,,,,FF,,,,,,,,0.91639,,,,,,,,,,,,,,,,,,,,,,,,,5eff559f6fc177000b4cbfa6,60a7d7fa223a2bf3800940ac,2021-05-21_16h56.02.109,Simcolourproject_2stim_asymm_v5,2020.2.10,Win32,60,60a5f9bf14d0aa2821c4bb84,,,2066,95.20001286,32.79999405,1,0,0,response1disk,,6,-0.799988568,-1.600006461,1,0,0,rectangle,-0.799988568,-1.600006461,1,0,0,0,"[285,210,33,37,131,164,183,167,320,309,103,170,251,101,100,76,224,130,185,123]",-0.799988568,-1.600006461,1,0,0,0,104,104,19,1,,,
,,,,,,,,,,,,,FF,,,,,,,,0.933315,,,,,,,,,,,,,,,,,,,,,,,,,5eff559f6fc177000b4cbfa6,60a7d7fa223a2bf3800940ac,2021-05-21_16h56.02.109,Simcolourproject_2stim_asymm_v5,2020.2.10,Win32,60,60a5f9bf14d0aa2821c4bb84,,,1589,-32.79998904,-90.40000778,1,0,0,response5disk,,3,-3.999988616,-5.600006521,1,0,0,rectangle,-3.999988616,-5.600006521,1,0,0,1,"[285,210,33,37,131,164,183,167,320,309,103,170,251,101,100,76,224,130,185,123]",-3.999988616,-5.600006521,1,0,0,0,105,105,47,1,,,
,,,,,,,,,,,,,FF,,,,,,,,0.997345,,,,,,,,,,,,,,,,,,,,,,,,,5eff559f6fc177000b4cbfa6,60a7d7fa223a2bf3800940ac,2021-05-21_16h56.02.109,Simcolourproject_2stim_asymm_v5,2020.2.10,Win32,60,60a5f9bf14d0aa2821c4bb84,,,2755,90.40001279,31.99999404,1,0,0,response1disk,,6,17.60006053,-9.60000658,1,0,0,rectangle,17.60006053,-9.60000658,1,0,0,7,"[285,210,33,37,131,164,183,167,320,309,103,170,251,101,100,76,224,130,185,123]",17.60006053,-9.60000658,1,0,0,0,106,106,30,1,,,
,,,,,,,,,,,,,FF,,,,,,,,2.66333,,,,,,,,,,,,,,,,,,,,,,,,,5eff559f6fc177000b4cbfa6,60a7d7fa223a2bf3800940ac,2021-05-21_16h56.02.109,Simcolourproject_2stim_asymm_v5,2020.2.10,Win32,60,60a5f9bf14d0aa2821c4bb84,,,2141,72.00001252,-30.40000689,1,0,0,response3disk,,5,11.20001161,-8.800006568,1,0,0,rectangle,11.20001161,-8.800006568,1,0,0,3,"[285,210,33,37,131,164,183,167,320,309,103,170,251,101,100,76,224,130,185,123]",11.20001161,-8.800006568,1,0,0,0,107,107,101,1,,,
,,,,,,,,,,,,,FF,,,,,,,,2.12999,,,,,,,,,,,,,,,,,,,,,,,,,5eff559f6fc177000b4cbfa6,60a7d7fa223a2bf3800940ac,2021-05-21_16h56.02.109,Simcolourproject_2stim_asymm_v5,2020.2.10,Win32,60,60a5f9bf14d0aa2821c4bb84,,,35,32.00001192,-83.20000768,1,0,0,response3disk,,4,1.14441E-05,-5.600006521,1,0,0,rectangle,1.14441E-05,-5.600006521,1,0,0,3,"[285,210,33,37,131,164,183,167,320,309,103,170,251,101,100,76,224,130,185,123]",1.14441E-05,-5.600006521,1,0,0,0,108,108,48,1,,,
,,,,,,,,,,,,,FF,,,,,,,,0.916605,,,,,,,,,,,,,,,,,,,,,,,,,5eff559f6fc177000b4cbfa6,60a7d7fa223a2bf3800940ac,2021-05-21_16h56.02.109,Simcolourproject_2stim_asymm_v5,2020.2.10,Win32,60,60a5f9bf14d0aa2821c4bb84,,,4029,-32.79998904,-91.2000078,1,0,0,response5disk,,3,-3.999988616,-15.20000666,1,0,0,rectangle,-3.999988616,-15.20000666,1,0,0,7,"[285,210,33,37,131,164,183,167,320,309,103,170,251,101,100,76,224,130,185,123]",-3.999988616,-15.20000666,1,0,0,0,109,109,79,1,,,
,,,,,,,,,,,,,FF,,,,,,,,0.832785,,,,,,,,,,,,,,,,,,,,,,,,,5eff559f6fc177000b4cbfa6,60a7d7fa223a2bf3800940ac,2021-05-21_16h56.02.109,Simcolourproject_2stim_asymm_v5,2020.2.10,Win32,60,60a5f9bf14d0aa2821c4bb84,,,80,-35.99998909,-80.00000763,1,0,0,response5disk,,3,1.14441E-05,7.19999367,1,0,0,rectangle,1.14441E-05,7.19999367,1,0,0,2,"[285,210,33,37,131,164,183,167,320,309,103,170,251,101,100,76,224,130,185,123]",1.14441E-05,7.19999367,1,0,0,0,110,110,43,1,,,
,,,,,,,,,,,,,FF,,,,,,,,1.380575,,,,,,,,,,,,,,,,,,,,,,,,,5eff559f6fc177000b4cbfa6,60a7d7fa223a2bf3800940ac,2021-05-21_16h56.02.109,Simcolourproject_2stim_asymm_v5,2020.2.10,Win32,60,60a5f9bf14d0aa2821c4bb84,,,1525,-43.1999892,-98.4000079,1,0,0,response5disk,,3,1.14441E-05,-6.4373E-06,1,0,0,rectangle,1.14441E-05,-6.4373E-06,1,0,0,1,"[285,210,33,37,131,164,183,167,320,309,103,170,251,101,100,76,224,130,185,123]",1.14441E-05,-6.4373E-06,1,0,0,0,111,111,69,1,,,
,,,,,,,,,,,,,FF,,,,,,,,1.249255,,,,,,,,,,,,,,,,,,,,,,,,,5eff559f6fc177000b4cbfa6,60a7d7fa223a2bf3800940ac,2021-05-21_16h56.02.109,Simcolourproject_2stim_asymm_v5,2020.2.10,Win32,60,60a5f9bf14d0aa2821c4bb84,,,1054,-70.39994078,-44.00000709,1,0,0,response5disk,,3,15.20001167,-16.80000669,1,0,0,rectangle,15.20001167,-16.80000669,1,0,0,3,"[285,210,33,37,131,164,183,167,320,309,103,170,251,101,100,76,224,130,185,123]",15.20001167,-16.80000669,1,0,0,0,112,112,36,1,,,
,,,,,,,,,,,,,FF,,,,,,,,1.082825,,,,,,,,,,,,,,,,,,,,,,,,,5eff559f6fc177000b4cbfa6,60a7d7fa223a2bf3800940ac,2021-05-21_16h56.02.109,Simcolourproject_2stim_asymm_v5,2020.2.10,Win32,60,60a5f9bf14d0aa2821c4bb84,,,2370,52.00001222,-91.2000078,1,0,0,response3disk,,4,10.4000116,-3.200006485,1,0,0,rectangle,10.4000116,-3.200006485,1,0,0,2,"[285,210,33,37,131,164,183,167,320,309,103,170,251,101,100,76,224,130,185,123]",10.4000116,-3.200006485,1,0,0,0,113,113,131,1,,,
,,,,,,,,,,,,,FF,,,,,,,,1.25193,,,,,,,,,,,,,,,,,,,,,,,,,5eff559f6fc177000b4cbfa6,60a7d7fa223a2bf3800940ac,2021-05-21_16h56.02.109,Simcolourproject_2stim_asymm_v5,2020.2.10,Win32,60,60a5f9bf14d0aa2821c4bb84,,,2234,-96.79999,26.39999396,1,0,0,response7disk,,1,2.40001148,-3.200006485,1,0,0,rectangle,2.40001148,-3.200006485,1,0,0,4,"[285,210,33,37,131,164,183,167,320,309,103,170,251,101,100,76,224,130,185,123]",2.40001148,-3.200006485,1,0,0,0,114,114,108,1,,,
,,,,,,,,,,,,,FF,,,,,,,,1.53327,,,,,,,,,,,,,,,,,,,,,,,,,5eff559f6fc177000b4cbfa6,60a7d7fa223a2bf3800940ac,2021-05-21_16h56.02.109,Simcolourproject_2stim_asymm_v5,2020.2.10,Win32,60,60a5f9bf14d0aa2821c4bb84,,,2465,81.60001266,-44.00000709,1,0,0,response3disk,,5,7.200011551,-5.600006521,1,0,0,rectangle,7.200011551,-5.600006521,1,0,0,0,"[285,210,33,37,131,164,183,167,320,309,103,170,251,101,100,76,224,130,185,123]",7.200011551,-5.600006521,1,0,0,0,115,115,37,1,,,
,,,,,,,,,,,,,FF,,,,,,,,1.29945,,,,,,,,,,,,,,,,,,,,,,,,,5eff559f6fc177000b4cbfa6,60a7d7fa223a2bf3800940ac,2021-05-21_16h56.02.109,Simcolourproject_2stim_asymm_v5,2020.2.10,Win32,60,60a5f9bf14d0aa2821c4bb84,,,3427,-103.9999901,-51.2000072,1,0,0,response5disk,,5,1.14441E-05,-7.200006545,1,0,0,rectangle,1.14441E-05,-7.200006545,1,0,0,3,"[285,210,33,37,131,164,183,167,320,309,103,170,251,101,100,76,224,130,185,123]",1.14441E-05,-7.200006545,1,0,0,0,116,116,102,1,,,
,,,,,,,,,,,,,FF,,,,,,,,1.16409,,,,,,,,,,,,,,,,,,,,,,,,,5eff559f6fc177000b4cbfa6,60a7d7fa223a2bf3800940ac,2021-05-21_16h56.02.109,Simcolourproject_2stim_asymm_v5,2020.2.10,Win32,60,60a5f9bf14d0aa2821c4bb84,,,369,-42.39994036,-85.60005654,1,0,0,response5disk,,3,1.600060296,-6.4373E-06,1,0,0,rectangle,1.600060296,-6.4373E-06,1,0,0,5,"[285,210,33,37,131,164,183,167,320,309,103,170,251,101,100,76,224,130,185,123]",1.600060296,-6.4373E-06,1,0,0,0,117,117,21,1,,,
,,,,,,,,,,,,,FF,,,,,,,,0.96386,,,,,,,,,,,,,,,,,,,,,,,,,5eff559f6fc177000b4cbfa6,60a7d7fa223a2bf3800940ac,2021-05-21_16h56.02.109,Simcolourproject_2stim_asymm_v5,2020.2.10,Win32,60,60a5f9bf14d0aa2821c4bb84,,,3328,88.00001276,58.39999443,1,0,0,response1disk,,6,12.80001163,-7.200006545,1,0,0,rectangle,12.80001163,-7.200006545,1,0,0,7,"[285,210,33,37,131,164,183,167,320,309,103,170,251,101,100,76,224,130,185,123]",12.80001163,-7.200006545,1,0,0,0,118,118,4,1,,,
,,,,,,,,,,,,,FF,,,,,,,,1.44696,,,,,,,,,,,,,,,,,,,,,,,,,5eff559f6fc177000b4cbfa6,60a7d7fa223a2bf3800940ac,2021-05-21_16h56.02.109,Simcolourproject_2stim_asymm_v5,2020.2.10,Win32,60,60a5f9bf14d0aa2821c4bb84,,,2281,48.80001217,86.39999485,1,0,0,response1disk,,7,1.600060296,-10.40000659,1,0,0,rectangle,1.600060296,-10.40000659,1,0,0,7,"[285,210,33,37,131,164,183,167,320,309,103,170,251,101,100,76,224,130,185,123]",1.600060296,-10.40000659,1,0,0,0,119,119,87,1,,,
,,,,,,,,,,,,,FF,,,,,,,,1.2329,,,,,,,,,,,,,,,,,,,,,,,,,5eff559f6fc177000b4cbfa6,60a7d7fa223a2bf3800940ac,2021-05-21_16h56.02.109,Simcolourproject_2stim_asymm_v5,2020.2.10,Win32,60,60a5f9bf14d0aa2821c4bb84,,,443,-82.39994096,43.99999422,1,0,0,response7disk,,1,-6.399939823,2.399993598,1,0,0,rectangle,-6.399939823,2.399993598,1,0,0,5,"[285,210,33,37,131,164,183,167,320,309,103,170,251,101,100,76,224,130,185,123]",-6.399939823,2.399993598,1,0,0,0,120,120,66,1,,,
,,,,,,,,,,,,,FF,,,,,,,,1.71573,,,,,,,,,,,,,,,,,,,,,,,,,5eff559f6fc177000b4cbfa6,60a7d7fa223a2bf3800940ac,2021-05-21_16h56.02.109,Simcolourproject_2stim_asymm_v5,2020.2.10,Win32,60,60a5f9bf14d0aa2821c4bb84,,,1763,41.60006089,-87.20000774,1,0,0,response3disk,,4,11.20001161,-0.800006449,1,0,0,rectangle,11.20001161,-0.800006449,1,0,0,3,"[285,210,33,37,131,164,183,167,320,309,103,170,251,101,100,76,224,130,185,123]",11.20001161,-0.800006449,1,0,0,0,121,121,145,1,,,
,,,,,,,,,,,,,FF,,,,,,,,0.963695,,,,,,,,,,,,,,,,,,,,,,,,,5eff559f6fc177000b4cbfa6,60a7d7fa223a2bf3800940ac,2021-05-21_16h56.02.109,Simcolourproject_2stim_asymm_v5,2020.2.10,Win32,60,60a5f9bf14d0aa2821c4bb84,,,126,91.2000128,51.19996991,1,0,0,response1disk,,6,19.20001173,-4.000006497,1,0,0,rectangle,-47.19998926,86.39999485,1,0,0,0,"[285,210,33,37,131,164,183,167,320,309,103,170,251,101,100,76,224,130,185,123]",1.600060296,4.799993634,1,0,0,0,122,122,121,1,,response7disk_3,rectangle
,,,,,,,,,,,,,FF,,,,,,,,0.89758,,,,,,,,,,,,,,,,,,,,,,,,,5eff559f6fc177000b4cbfa6,60a7d7fa223a2bf3800940ac,2021-05-21_16h56.02.109,Simcolourproject_2stim_asymm_v5,2020.2.10,Win32,60,60a5f9bf14d0aa2821c4bb84,,,2959,73.60001254,39.99999416,1,0,0,response1disk,,6,7.200011551,-6.400006533,1,0,0,rectangle,7.200011551,-6.400006533,1,0,0,5,"[285,210,33,37,131,164,183,167,320,309,103,170,251,101,100,76,224,130,185,123]",7.200011551,-6.400006533,1,0,0,0,123,123,2,1,,,
,,,,,,,,,,,,,FF,,,,,,,,0.913855,,,,,,,,,,,,,,,,,,,,,,,,,5eff559f6fc177000b4cbfa6,60a7d7fa223a2bf3800940ac,2021-05-21_16h56.02.109,Simcolourproject_2stim_asymm_v5,2020.2.10,Win32,60,60a5f9bf14d0aa2821c4bb84,,,4251,-48.79998928,86.39999485,1,0,0,response7disk,,0,-3.999988616,-13.60000664,1,0,0,rectangle,-3.999988616,-13.60000664,1,0,0,0,"[285,210,33,37,131,164,183,167,320,309,103,170,251,101,100,76,224,130,185,123]",-3.999988616,-13.60000664,1,0,0,0,124,124,136,1,,,
,,,,,,,,,,,,,FF,,,,,,,,1.7797,,,,,,,,,,,,,,,,,,,,,,,,,5eff559f6fc177000b4cbfa6,60a7d7fa223a2bf3800940ac,2021-05-21_16h56.02.109,Simcolourproject_2stim_asymm_v5,2020.2.10,Win32,60,60a5f9bf14d0aa2821c4bb84,,,311,76.00001258,57.59999442,1,0,0,response1disk,,6,8.800011575,-10.40000659,1,0,0,rectangle,8.800011575,-10.40000659,1,0,0,7,"[285,210,33,37,131,164,183,167,320,309,103,170,251,101,100,76,224,130,185,123]",8.800011575,-10.40000659,1,0,0,0,125,125,99,1,,,
,,,,,,,,,,,,,FF,,,,,,,,1.46618,,,,,,,,,,,,,,,,,,,,,,,,,5eff559f6fc177000b4cbfa6,60a7d7fa223a2bf3800940ac,2021-05-21_16h56.02.109,Simcolourproject_2stim_asymm_v5,2020.2.10,Win32,60,60a5f9bf14d0aa2821c4bb84,,,2552,67.20001245,31.99999404,1,0,0,response1disk,,6,11.20001161,-9.60000658,1,0,0,rectangle,11.20001161,-9.60000658,1,0,0,1,"[285,210,33,37,131,164,183,167,320,309,103,170,251,101,100,76,224,130,185,123]",11.20001161,-9.60000658,1,0,0,0,126,126,96,1,,,
,,,,,,,,,,,,,FF,,,,,,,,1.54914,,,,,,,,,,,,,,,,,,,,,,,,,5eff559f6fc177000b4cbfa6,60a7d7fa223a2bf3800940ac,2021-05-21_16h56.02.109,Simcolourproject_2stim_asymm_v5,2020.2.10,Win32,60,60a5f9bf14d0aa2821c4bb84,,,2313,80.00001264,-57.6000073,1,0,0,response3disk,,5,-7.999988675,-5.600006521,1,0,0,rectangle,-7.999988675,-5.600006521,1,0,0,6,"[285,210,33,37,131,164,183,167,320,309,103,170,251,101,100,76,224,130,185,123]",-7.999988675,-5.600006521,1,0,0,0,127,127,3,1,,,
,,,,,,,,,,,,,FF,,,,,,,,1.25967,,,,,,,,,,,,,,,,,,,,,,,,,5eff559f6fc177000b4cbfa6,60a7d7fa223a2bf3800940ac,2021-05-21_16h56.02.109,Simcolourproject_2stim_asymm_v5,2020.2.10,Win32,60,60a5f9bf14d0aa2821c4bb84,,,1206,94.40001285,44.79999423,1,0,0,response1disk,,6,8.800011575,-6.4373E-06,1,0,0,rectangle,8.800011575,-6.4373E-06,1,0,0,2,"[285,210,33,37,131,164,183,167,320,309,103,170,251,101,100,76,224,130,185,123]",8.800011575,-6.4373E-06,1,0,0,0,128,128,76,1,,,
,,,,,,,,,,,,,FF,,,,,,,,1.24678,,,,,,,,,,,,,,,,,,,,,,,,,5eff559f6fc177000b4cbfa6,60a7d7fa223a2bf3800940ac,2021-05-21_16h56.02.109,Simcolourproject_2stim_asymm_v5,2020.2.10,Win32,60,60a5f9bf14d0aa2821c4bb84,,,1736,32.00001192,-95.20000786,1,0,0,response3disk,,4,-4.799988627,2.399993598,1,0,0,rectangle,35.20001197,-97.60005672,1,0,0,4,"[285,210,33,37,131,164,183,167,320,309,103,170,251,101,100,76,224,130,185,123]",3.200011492,-11.2000066,1,0,0,0,129,129,46,1,,response3disk_3,rectangle
,,,,,,,,,,,,,FF,,,,,,,,2.38197,,,,,,,,,,,,,,,,,,,,,,,,,5eff559f6fc177000b4cbfa6,60a7d7fa223a2bf3800940ac,2021-05-21_16h56.02.109,Simcolourproject_2stim_asymm_v5,2020.2.10,Win32,60,60a5f9bf14d0aa2821c4bb84,,,3485,85.60001272,-45.60000712,1,0,0,response3disk,,5,-3.199988604,-0.800006449,1,0,0,rectangle,48.80001217,-106.400008,1,0,0,4,"[285,210,33,37,131,164,183,167,320,309,103,170,251,101,100,76,224,130,185,123]",1.600060296,-16.00000668,1,0,0,0,130,130,12,1,,response3disk_3,rectangle
,,,,,,,,,,,,,FF,,,,,,,,1.003985,,,,,,,,,,,,,,,,,,,,,,,,,5eff559f6fc177000b4cbfa6,60a7d7fa223a2bf3800940ac,2021-05-21_16h56.02.109,Simcolourproject_2stim_asymm_v5,2020.2.10,Win32,60,60a5f9bf14d0aa2821c4bb84,,,2588,88.00001276,47.99999428,1,0,0,response1disk,,6,13.60006047,-1.600006461,1,0,0,rectangle,13.60006047,-1.600006461,1,0,0,2,"[285,210,33,37,131,164,183,167,320,309,103,170,251,101,100,76,224,130,185,123]",13.60006047,-1.600006461,1,0,0,0,131,131,128,1,,,
,,,,,,,,,,,,,FF,,,,,,,,1.06621,,,,,,,,,,,,,,,,,,,,,,,,,5eff559f6fc177000b4cbfa6,60a7d7fa223a2bf3800940ac,2021-05-21_16h56.02.109,Simcolourproject_2stim_asymm_v5,2020.2.10,Win32,60,60a5f9bf14d0aa2821c4bb84,,,2919,79.20001262,-48.00000715,1,0,0,response3disk,,5,8.800011575,-9.60000658,1,0,0,rectangle,8.800011575,-9.60000658,1,0,0,3,"[285,210,33,37,131,164,183,167,320,309,103,170,251,101,100,76,224,130,185,123]",8.800011575,-9.60000658,1,0,0,0,132,132,127,1,,,
,,,,,,,,,,,,,FF,,,,,,,,1.291665,,,,,,,,,,,,,,,,,,,,,,,,,5eff559f6fc177000b4cbfa6,60a7d7fa223a2bf3800940ac,2021-05-21_16h56.02.109,Simcolourproject_2stim_asymm_v5,2020.2.10,Win32,60,60a5f9bf14d0aa2821c4bb84,,,1375,-27.99998897,-86.40000772,1,0,0,response5disk,,3,-0.799988568,8.799993694,1,0,0,rectangle,-0.799988568,8.799993694,1,0,0,2,"[285,210,33,37,131,164,183,167,320,309,103,170,251,101,100,76,224,130,185,123]",-0.799988568,8.799993694,1,0,0,0,133,133,72,1,,,
,,,,,,,,,,,,,FF,,,,,,,,0.949665,,,,,,,,,,,,,,,,,,,,,,,,,5eff559f6fc177000b4cbfa6,60a7d7fa223a2bf3800940ac,2021-05-21_16h56.02.109,Simcolourproject_2stim_asymm_v5,2020.2.10,Win32,60,60a5f9bf14d0aa2821c4bb84,,,4016,75.20001256,44.79999423,1,0,0,response1disk,,6,-3.999988616,2.399993598,1,0,0,rectangle,-3.999988616,2.399993598,1,0,0,6,"[285,210,33,37,131,164,183,167,320,309,103,170,251,101,100,76,224,130,185,123]",-3.999988616,2.399993598,1,0,0,0,134,134,53,1,,,
,,,,,,,,,,,,,FF,,,,,,,,1.497455,,,,,,,,,,,,,,,,,,,,,,,,,5eff559f6fc177000b4cbfa6,60a7d7fa223a2bf3800940ac,2021-05-21_16h56.02.109,Simcolourproject_2stim_asymm_v5,2020.2.10,Win32,60,60a5f9bf14d0aa2821c4bb84,,,1597,-76.7999897,-53.60000724,1,0,0,response5disk,,6,-10.39993988,-8.800006568,1,0,0,rectangle,-10.39993988,-8.800006568,1,0,0,2,"[285,210,33,37,131,164,183,167,320,309,103,170,251,101,100,76,224,130,185,123]",-10.39993988,-8.800006568,1,0,0,0,135,135,150,1,,,
,,,,,,,,,,,,,FF,,,,,,,,1.96613,,,,,,,,,,,,,,,,,,,,,,,,,5eff559f6fc177000b4cbfa6,60a7d7fa223a2bf3800940ac,2021-05-21_16h56.02.109,Simcolourproject_2stim_asymm_v5,2020.2.10,Win32,60,60a5f9bf14d0aa2821c4bb84,,,1317,86.40001273,-36.00000697,1,0,0,response3disk,,5,-8.799988687,-0.800006449,1,0,0,rectangle,-8.799988687,-0.800006449,1,0,0,4,"[285,210,33,37,131,164,183,167,320,309,103,170,251,101,100,76,224,130,185,123]",-8.799988687,-0.800006449,1,0,0,0,136,136,129,1,,,
,,,,,,,,,,,,,FF,,,,,,,,0.96403,,,,,,,,,,,,,,,,,,,,,,,,,5eff559f6fc177000b4cbfa6,60a7d7fa223a2bf3800940ac,2021-05-21_16h56.02.109,Simcolourproject_2stim_asymm_v5,2020.2.10,Win32,60,60a5f9bf14d0aa2821c4bb84,,,1010,82.40001267,-52.00000721,1,0,0,response3disk,,5,1.14441E-05,-4.000006497,1,0,0,rectangle,1.14441E-05,-4.000006497,1,0,0,7,"[285,210,33,37,131,164,183,167,320,309,103,170,251,101,100,76,224,130,185,123]",1.14441E-05,-4.000006497,1,0,0,0,137,137,120,1,,,
,,,,,,,,,,,,,FF,,,,,,,,0.76386,,,,,,,,,,,,,,,,,,,,,,,,,5eff559f6fc177000b4cbfa6,60a7d7fa223a2bf3800940ac,2021-05-21_16h56.02.109,Simcolourproject_2stim_asymm_v5,2020.2.10,Win32,60,60a5f9bf14d0aa2821c4bb84,,,1038,-46.39994042,-81.60005648,1,0,0,response5disk,,3,1.600060296,-5.600006521,1,0,0,rectangle,1.600060296,-5.600006521,1,0,0,6,"[285,210,33,37,131,164,183,167,320,309,103,170,251,101,100,76,224,130,185,123]",1.600060296,-5.600006521,1,0,0,0,138,138,152,1,,,
,,,,,,,,,,,,,FF,,,,,,,,1.01581,,,,,,,,,,,,,,,,,,,,,,,,,5eff559f6fc177000b4cbfa6,60a7d7fa223a2bf3800940ac,2021-05-21_16h56.02.109,Simcolourproject_2stim_asymm_v5,2020.2.10,Win32,60,60a5f9bf14d0aa2821c4bb84,,,2400,92.00001281,-41.60000706,1,0,0,response3disk,,5,16.80001169,-11.2000066,1,0,0,rectangle,16.80001169,-11.2000066,1,0,0,4,"[285,210,33,37,131,164,183,167,320,309,103,170,251,101,100,76,224,130,185,123]",16.80001169,-11.2000066,1,0,0,0,139,139,80,1,,,
,,,,,,,,,,,,,FF,,,,,,,,0.79946,,,,,,,,,,,,,,,,,,,,,,,,,5eff559f6fc177000b4cbfa6,60a7d7fa223a2bf3800940ac,2021-05-21_16h56.02.109,Simcolourproject_2stim_asymm_v5,2020.2.10,Win32,60,60a5f9bf14d0aa2821c4bb84,,,171,-87.99998987,36.79999411,1,0,0,response7disk,,1,1.14441E-05,-6.4373E-06,1,0,0,rectangle,1.14441E-05,-6.4373E-06,1,0,0,1,"[285,210,33,37,131,164,183,167,320,309,103,170,251,101,100,76,224,130,185,123]",1.14441E-05,-6.4373E-06,1,0,0,0,140,140,5,1,,,
,,,,,,,,,,,,,FF,,,,,,,,0.88301,,,,,,,,,,,,,,,,,,,,,,,,,5eff559f6fc177000b4cbfa6,60a7d7fa223a2bf3800940ac,2021-05-21_16h56.02.109,Simcolourproject_2stim_asymm_v5,2020.2.10,Win32,60,60a5f9bf14d0aa2821c4bb84,,,3548,92.00001281,39.19996973,1,0,0,response1disk,,6,8.000011563,-12.00000662,1,0,0,rectangle,8.000011563,-12.00000662,1,0,0,6,"[285,210,33,37,131,164,183,167,320,309,103,170,251,101,100,76,224,130,185,123]",8.000011563,-12.00000662,1,0,0,0,141,141,52,1,,,
,,,,,,,,,,,,,FF,,,,,,,,0.64941,,,,,,,,,,,,,,,,,,,,,,,,,5eff559f6fc177000b4cbfa6,60a7d7fa223a2bf3800940ac,2021-05-21_16h56.02.109,Simcolourproject_2stim_asymm_v5,2020.2.10,Win32,60,60a5f9bf14d0aa2821c4bb84,,,2870,93.60001284,32.79999405,1,0,0,response1disk,,6,7.200011551,-14.40000665,1,0,0,rectangle,7.200011551,-14.40000665,1,0,0,2,"[285,210,33,37,131,164,183,167,320,309,103,170,251,101,100,76,224,130,185,123]",7.200011551,-14.40000665,1,0,0,0,142,142,70,1,,,
,,,,,,,,,,,,,FF,,,,,,,,1.39961,,,,,,,,,,,,,,,,,,,,,,,,,5eff559f6fc177000b4cbfa6,60a7d7fa223a2bf3800940ac,2021-05-21_16h56.02.109,Simcolourproject_2stim_asymm_v5,2020.2.10,Win32,60,60a5f9bf14d0aa2821c4bb84,,,3564,72.00001252,-35.20000696,1,0,0,response3disk,,5,-2.399939764,-5.600006521,1,0,0,rectangle,-2.399939764,-5.600006521,1,0,0,6,"[285,210,33,37,131,164,183,167,320,309,103,170,251,101,100,76,224,130,185,123]",-2.399939764,-5.600006521,1,0,0,0,143,143,33,1,,,
,,,,,,,,,,,,,FF,,,,,,,,1.04939,,,,,,,,,,,,,,,,,,,,,,,,,5eff559f6fc177000b4cbfa6,60a7d7fa223a2bf3800940ac,2021-05-21_16h56.02.109,Simcolourproject_2stim_asymm_v5,2020.2.10,Win32,60,60a5f9bf14d0aa2821c4bb84,,,4180,45.60006095,87.19997045,1,0,0,response1disk,,7,1.600060296,-15.20000666,1,0,0,rectangle,1.600060296,-15.20000666,1,0,0,6,"[285,210,33,37,131,164,183,167,320,309,103,170,251,101,100,76,224,130,185,123]",1.600060296,-15.20000666,1,0,0,0,144,144,110,1,,,
,,,,,,,,,,,,,FF,,,,,,,,1.39717,,,,,,,,,,,,,,,,,,,,,,,,,5eff559f6fc177000b4cbfa6,60a7d7fa223a2bf3800940ac,2021-05-21_16h56.02.109,Simcolourproject_2stim_asymm_v5,2020.2.10,Win32,60,60a5f9bf14d0aa2821c4bb84,,,588,75.20001256,22.3999939,1,0,0,response1disk,,6,-2.399939764,-15.20000666,1,0,0,rectangle,-2.399939764,-15.20000666,1,0,0,3,"[285,210,33,37,131,164,183,167,320,309,103,170,251,101,100,76,224,130,185,123]",-2.399939764,-15.20000666,1,0,0,0,145,145,38,1,,,
,,,,,,,,,,,,,FF,,,,,,,,1.41406,,,,,,,,,,,,,,,,,,,,,,,,,5eff559f6fc177000b4cbfa6,60a7d7fa223a2bf3800940ac,2021-05-21_16h56.02.109,Simcolourproject_2stim_asymm_v5,2020.2.10,Win32,60,60a5f9bf14d0aa2821c4bb84,,,2563,74.40001255,-44.00000709,1,0,0,response3disk,,5,-7.999988675,6.399993658,1,0,0,rectangle,-7.999988675,6.399993658,1,0,0,5,"[285,210,33,37,131,164,183,167,320,309,103,170,251,101,100,76,224,130,185,123]",-7.999988675,6.399993658,1,0,0,0,146,146,55,1,,,
,,,,,,,,,,,,,FF,,,,,,,,0.885085,,,,,,,,,,,,,,,,,,,,,,,,,5eff559f6fc177000b4cbfa6,60a7d7fa223a2bf3800940ac,2021-05-21_16h56.02.109,Simcolourproject_2stim_asymm_v5,2020.2.10,Win32,60,60a5f9bf14d0aa2821c4bb84,,,4020,-91.99998993,36.79999411,1,0,0,response7disk,,1,2.40001148,5.599993646,1,0,0,rectangle,2.40001148,5.599993646,1,0,0,1,"[285,210,33,37,131,164,183,167,320,309,103,170,251,101,100,76,224,130,185,123]",2.40001148,5.599993646,1,0,0,0,147,147,56,1,,,
,,,,,,,,,,,,,FF,,,,,,,,1.896595,,,,,,,,,,,,,,,,,,,,,,,,,5eff559f6fc177000b4cbfa6,60a7d7fa223a2bf3800940ac,2021-05-21_16h56.02.109,Simcolourproject_2stim_asymm_v5,2020.2.10,Win32,60,60a5f9bf14d0aa2821c4bb84,,,1681,-26.39994012,-100.0000079,1,0,0,response5disk,,3,2.40001148,6.399993658,1,0,0,rectangle,2.40001148,6.399993658,1,0,0,1,"[285,210,33,37,131,164,183,167,320,309,103,170,251,101,100,76,224,130,185,123]",2.40001148,6.399993658,1,0,0,0,148,148,1,1,,,
,,,,,,,,,,,,,FF,,,,,,,,0.949425,,,,,,,,,,,,,,,,,,,,,,,,,5eff559f6fc177000b4cbfa6,60a7d7fa223a2bf3800940ac,2021-05-21_16h56.02.109,Simcolourproject_2stim_asymm_v5,2020.2.10,Win32,60,60a5f9bf14d0aa2821c4bb84,,,2137,77.6000126,59.99999446,1,0,0,response1disk,,6,3.200011492,-13.60000664,1,0,0,rectangle,3.200011492,-13.60000664,1,0,0,1,"[285,210,33,37,131,164,183,167,320,309,103,170,251,101,100,76,224,130,185,123]",3.200011492,-13.60000664,1,0,0,0,149,149,58,1,,,
,,,,,,,,,,,,,FF,,,,,,,,1.89912,,,,,,,,,,,,,,,,,,,,,,,,,5eff559f6fc177000b4cbfa6,60a7d7fa223a2bf3800940ac,2021-05-21_16h56.02.109,Simcolourproject_2stim_asymm_v5,2020.2.10,Win32,60,60a5f9bf14d0aa2821c4bb84,,,907,-28.79998899,-96.00000787,1,0,0,response5disk,,3,8.000011563,-12.00000662,1,0,0,rectangle,8.000011563,-12.00000662,1,0,0,1,"[285,210,33,37,131,164,183,167,320,309,103,170,251,101,100,76,224,130,185,123]",8.000011563,-12.00000662,1,0,0,0,150,150,75,1,,,
,,,,,,,,,,,,,FF,,,,,,,,1.16552,,,,,,,,,,,,,,,,,,,,,,,,,5eff559f6fc177000b4cbfa6,60a7d7fa223a2bf3800940ac,2021-05-21_16h56.02.109,Simcolourproject_2stim_asymm_v5,2020.2.10,Win32,60,60a5f9bf14d0aa2821c4bb84,,,2680,84.0000127,55.9999944,1,0,0,response1disk,,6,8.800011575,-4.000006497,1,0,0,rectangle,8.800011575,-4.000006497,1,0,0,3,"[285,210,33,37,131,164,183,167,320,309,103,170,251,101,100,76,224,130,185,123]",8.800011575,-4.000006497,1,0,0,0,151,151,81,1,,,
,,,,,,,,,,,,,FF,,,,,,,,0.782635,,,,,,,,,,,,,,,,,,,,,,,,,5eff559f6fc177000b4cbfa6,60a7d7fa223a2bf3800940ac,2021-05-21_16h56.02.109,Simcolourproject_2stim_asymm_v5,2020.2.10,Win32,60,60a5f9bf14d0aa2821c4bb84,,,2638,40.00001204,83.19997039,1,0,0,response1disk,,7,0.800011456,-16.00000668,1,0,0,rectangle,0.800011456,-16.00000668,1,0,0,6,"[285,210,33,37,131,164,183,167,320,309,103,170,251,101,100,76,224,130,185,123]",0.800011456,-16.00000668,1,0,0,0,152,152,78,1,,,
,,,,,,,,,,,,,FF,,,,,,,,2.262785,,,,,,,,,,,,,,,,,,,,,,,,,5eff559f6fc177000b4cbfa6,60a7d7fa223a2bf3800940ac,2021-05-21_16h56.02.109,Simcolourproject_2stim_asymm_v5,2020.2.10,Win32,60,60a5f9bf14d0aa2821c4bb84,,,1971,82.40001267,-49.60000718,1,0,0,response3disk,,5,3.200011492,-6.4373E-06,1,0,0,rectangle,3.200011492,-6.4373E-06,1,0,0,5,"[285,210,33,37,131,164,183,167,320,309,103,170,251,101,100,76,224,130,185,123]",3.200011492,-6.4373E-06,1,0,0,0,153,153,147,1,,,
,,,,,,,,,,,,,FF,,,,,,,,0.88472,,,,,,,,,,,,,,,,,,,,,,,,,5eff559f6fc177000b4cbfa6,60a7d7fa223a2bf3800940ac,2021-05-21_16h56.02.109,Simcolourproject_2stim_asymm_v5,2020.2.10,Win32,60,60a5f9bf14d0aa2821c4bb84,,,3300,100.0000129,64.79999453,1,0,0,response1disk,,6,9.600060415,-5.600006521,1,0,0,rectangle,9.600060415,-5.600006521,1,0,0,0,"[285,210,33,37,131,164,183,167,320,309,103,170,251,101,100,76,224,130,185,123]",9.600060415,-5.600006521,1,0,0,0,154,154,153,1,,,
,,,,,,,,,,,,,FF,,,,,,,,1.28227,,,,,,,,,,,,,,,,,,,,,,,,,5eff559f6fc177000b4cbfa6,60a7d7fa223a2bf3800940ac,2021-05-21_16h56.02.109,Simcolourproject_2stim_asymm_v5,2020.2.10,Win32,60,60a5f9bf14d0aa2821c4bb84,,,169,-90.39994107,-53.60000724,1,0,0,response5disk,,6,22.40001178,-4.000006497,1,0,0,rectangle,22.40001178,-4.000006497,1,0,0,3,"[285,210,33,37,131,164,183,167,320,309,103,170,251,101,100,76,224,130,185,123]",22.40001178,-4.000006497,1,0,0,0,155,155,42,1,,,
,,,,,,,,,,,,,FF,,,,,,,,1.251935,,,,,,,,,,,,,,,,,,,,,,,,,5eff559f6fc177000b4cbfa6,60a7d7fa223a2bf3800940ac,2021-05-21_16h56.02.109,Simcolourproject_2stim_asymm_v5,2020.2.10,Win32,60,60a5f9bf14d0aa2821c4bb84,,,626,104.800013,54.39999437,1,0,0,response1disk,,6,5.600060356,-1.600006461,1,0,0,rectangle,5.600060356,-1.600006461,1,0,0,1,"[285,210,33,37,131,164,183,167,320,309,103,170,251,101,100,76,224,130,185,123]",5.600060356,-1.600006461,1,0,0,0,156,156,27,1,,,
,,,,,,,,,,,,,FF,,,,,,,,0.880615,,,,,,,,,,,,,,,,,,,,,,,,,5eff559f6fc177000b4cbfa6,60a7d7fa223a2bf3800940ac,2021-05-21_16h56.02.109,Simcolourproject_2stim_asymm_v5,2020.2.10,Win32,60,60a5f9bf14d0aa2821c4bb84,,,2396,41.60006089,71.99999464,1,0,0,response1disk,,7,11.20001161,-12.00000662,1,0,0,rectangle,11.20001161,-12.00000662,1,0,0,6,"[285,210,33,37,131,164,183,167,320,309,103,170,251,101,100,76,224,130,185,123]",11.20001161,-12.00000662,1,0,0,0,157,157,134,1,,,
,,,,,,,,,,,,,FF,,,,,,,,0.764075,,,,,,,,,,,,,,,,,,,,,,,,,5eff559f6fc177000b4cbfa6,60a7d7fa223a2bf3800940ac,2021-05-21_16h56.02.109,Simcolourproject_2stim_asymm_v5,2020.2.10,Win32,60,60a5f9bf14d0aa2821c4bb84,,,1723,48.00001216,82.39999479,1,0,0,response1disk,,7,11.20001161,-5.600006521,1,0,0,rectangle,11.20001161,-5.600006521,1,0,0,5,"[285,210,33,37,131,164,183,167,320,309,103,170,251,101,100,76,224,130,185,123]",11.20001161,-5.600006521,1,0,0,0,158,158,84,1,,,
,,,,,,,,,,,,,FF,,,,,,,,1.59899,,,,,,,,,,,,,,,,,,,,,,,,,5eff559f6fc177000b4cbfa6,60a7d7fa223a2bf3800940ac,2021-05-21_16h56.02.109,Simcolourproject_2stim_asymm_v5,2020.2.10,Win32,60,60a5f9bf14d0aa2821c4bb84,,,3751,-56.7999894,-40.00000703,1,0,0,response5disk,,7,21.60006059,7.999993682,1,0,0,rectangle,21.60006059,7.999993682,1,0,0,4,"[285,210,33,37,131,164,183,167,320,309,103,170,251,101,100,76,224,130,185,123]",21.60006059,7.999993682,1,0,0,0,159,159,88,1,,,
,,,,,,,,,,,,,FF,,,,,,,,1.43259,,,,,,,,,,,,,,,,,,,,,,,,,5eff559f6fc177000b4cbfa6,60a7d7fa223a2bf3800940ac,2021-05-21_16h56.02.109,Simcolourproject_2stim_asymm_v5,2020.2.10,Win32,60,60a5f9bf14d0aa2821c4bb84,,,797,76.00001258,-39.20000702,1,0,0,response3disk,,5,-7.199988663,-4.000006497,1,0,0,rectangle,-7.199988663,-4.000006497,1,0,0,5,"[285,210,33,37,131,164,183,167,320,309,103,170,251,101,100,76,224,130,185,123]",-7.199988663,-4.000006497,1,0,0,0,160,160,156,1,,,
,,,,,,,,,,,,,FF,,,,,,,,1.281085,,,,,,,,,,,,,,,,,,,,,,,,,5eff559f6fc177000b4cbfa6,60a7d7fa223a2bf3800940ac,2021-05-21_16h56.02.109,Simcolourproject_2stim_asymm_v5,2020.2.10,Win32,60,60a5f9bf14d0aa2821c4bb84,,,3587,42.40001208,-84.00000769,1,0,0,response3disk,,4,5.600060356,16.79999381,1,0,0,rectangle,5.600060356,16.79999381,1,0,0,0,"[285,210,33,37,131,164,183,167,320,309,103,170,251,101,100,76,224,130,185,123]",5.600060356,16.79999381,1,0,0,1,0,161,123,1,,,
,,,,,,,,,,,,,FF,,,,,,,,0.79744,,,,,,,,,,,,,,,,,,,,,,,,,5eff559f6fc177000b4cbfa6,60a7d7fa223a2bf3800940ac,2021-05-21_16h56.02.109,Simcolourproject_2stim_asymm_v5,2020.2.10,Win32,60,60a5f9bf14d0aa2821c4bb84,,,4104,-94.39994113,-36.80000699,1,0,0,response5disk,,4,-0.799988568,-1.600006461,1,0,0,rectangle,-0.799988568,-1.600006461,1,0,0,6,"[285,210,33,37,131,164,183,167,320,309,103,170,251,101,100,76,224,130,185,123]",-0.799988568,-1.600006461,1,0,0,1,1,162,6,1,,,
,,,,,,,,,,,,,FF,,,,,,,,1.2305,,,,,,,,,,,,,,,,,,,,,,,,,5eff559f6fc177000b4cbfa6,60a7d7fa223a2bf3800940ac,2021-05-21_16h56.02.109,Simcolourproject_2stim_asymm_v5,2020.2.10,Win32,60,60a5f9bf14d0aa2821c4bb84,,,1206,79.20001262,-44.00000709,1,0,0,response3disk,,5,-10.39993988,-13.60000664,1,0,0,rectangle,98.40001291,46.39999425,1,0,0,6,"[285,210,33,37,131,164,183,167,320,309,103,170,251,101,100,76,224,130,185,123]",21.60006059,-9.60000658,1,0,0,1,2,163,69,1,,response1disk_3,rectangle
,,,,,,,,,,,,,FF,,,,,,,,0.999275,,,,,,,,,,,,,,,,,,,,,,,,,5eff559f6fc177000b4cbfa6,60a7d7fa223a2bf3800940ac,2021-05-21_16h56.02.109,Simcolourproject_2stim_asymm_v5,2020.2.10,Win32,60,60a5f9bf14d0aa2821c4bb84,,,2141,87.20001274,27.19996955,1,0,0,response1disk,,6,15.20001167,-5.600006521,1,0,0,rectangle,15.20001167,-5.600006521,1,0,0,6,"[285,210,33,37,131,164,183,167,320,309,103,170,251,101,100,76,224,130,185,123]",15.20001167,-5.600006521,1,0,0,1,3,164,102,1,,,
,,,,,,,,,,,,,FF,,,,,,,,1.214075,,,,,,,,,,,,,,,,,,,,,,,,,5eff559f6fc177000b4cbfa6,60a7d7fa223a2bf3800940ac,2021-05-21_16h56.02.109,Simcolourproject_2stim_asymm_v5,2020.2.10,Win32,60,60a5f9bf14d0aa2821c4bb84,,,1525,-17.59998882,-74.40000755,1,0,0,response5disk,,3,-9.599988699,-12.80000663,1,0,0,rectangle,-9.599988699,-12.80000663,1,0,0,5,"[285,210,33,37,131,164,183,167,320,309,103,170,251,101,100,76,224,130,185,123]",-9.599988699,-12.80000663,1,0,0,1,4,165,149,1,,,
,,,,,,,,,,,,,FF,,,,,,,,0.967395,,,,,,,,,,,,,,,,,,,,,,,,,5eff559f6fc177000b4cbfa6,60a7d7fa223a2bf3800940ac,2021-05-21_16h56.02.109,Simcolourproject_2stim_asymm_v5,2020.2.10,Win32,60,60a5f9bf14d0aa2821c4bb84,,,3286,28.00001186,-76.00000757,1,0,0,response3disk,,4,-0.799988568,11.99999374,1,0,0,rectangle,83.20001268,44.79999423,1,0,0,6,"[285,210,33,37,131,164,183,167,320,309,103,170,251,101,100,76,224,130,185,123]",-7.199988663,-8.000006557,1,0,0,1,5,166,121,1,,response1disk_3,rectangle
,,,,,,,,,,,,,FF,,,,,,,,1.182435,,,,,,,,,,,,,,,,,,,,,,,,,5eff559f6fc177000b4cbfa6,60a7d7fa223a2bf3800940ac,2021-05-21_16h56.02.109,Simcolourproject_2stim_asymm_v5,2020.2.10,Win32,60,60a5f9bf14d0aa2821c4bb84,,,2803,74.40001255,-44.00000709,1,0,0,response3disk,,5,-3.999988616,-11.2000066,1,0,0,rectangle,-3.999988616,-11.2000066,1,0,0,5,"[285,210,33,37,131,164,183,167,320,309,103,170,251,101,100,76,224,130,185,123]",-3.999988616,-11.2000066,1,0,0,1,6,167,101,1,,,
,,,,,,,,,,,,,FF,,,,,,,,1.01567,,,,,,,,,,,,,,,,,,,,,,,,,5eff559f6fc177000b4cbfa6,60a7d7fa223a2bf3800940ac,2021-05-21_16h56.02.109,Simcolourproject_2stim_asymm_v5,2020.2.10,Win32,60,60a5f9bf14d0aa2821c4bb84,,,3511,-99.99999005,24.79999393,1,0,0,response7disk,,1,6.400011539,-3.200006485,1,0,0,rectangle,6.400011539,-3.200006485,1,0,0,2,"[285,210,33,37,131,164,183,167,320,309,103,170,251,101,100,76,224,130,185,123]",6.400011539,-3.200006485,1,0,0,1,7,168,110,1,,,
,,,,,,,,,,,,,FF,,,,,,,,1.413505,,,,,,,,,,,,,,,,,,,,,,,,,5eff559f6fc177000b4cbfa6,60a7d7fa223a2bf3800940ac,2021-05-21_16h56.02.109,Simcolourproject_2stim_asymm_v5,2020.2.10,Win32,60,60a5f9bf14d0aa2821c4bb84,,,2434,90.40001279,23.19996949,1,0,0,response1disk,,6,15.20001167,-4.000006497,1,0,0,rectangle,-36.7999891,99.19997063,1,0,0,0,"[285,210,33,37,131,164,183,167,320,309,103,170,251,101,100,76,224,130,185,123]",3.200011492,0.799993575,1,0,0,1,8,169,61,1,,response7disk_3,rectangle
,,,,,,,,,,,,,FF,,,,,,,,2.23244,,,,,,,,,,,,,,,,,,,,,,,,,5eff559f6fc177000b4cbfa6,60a7d7fa223a2bf3800940ac,2021-05-21_16h56.02.109,Simcolourproject_2stim_asymm_v5,2020.2.10,Win32,60,60a5f9bf14d0aa2821c4bb84,,,4020,-86.39994102,42.39999419,1,0,0,response7disk,,1,-1.59998858,-6.4373E-06,1,0,0,rectangle,-1.59998858,-6.4373E-06,1,0,0,0,"[285,210,33,37,131,164,183,167,320,309,103,170,251,101,100,76,224,130,185,123]",-1.59998858,-6.4373E-06,1,0,0,1,9,170,137,1,,,
,,,,,,,,,,,,,FF,,,,,,,,2.349015,,,,,,,,,,,,,,,,,,,,,,,,,5eff559f6fc177000b4cbfa6,60a7d7fa223a2bf3800940ac,2021-05-21_16h56.02.109,Simcolourproject_2stim_asymm_v5,2020.2.10,Win32,60,60a5f9bf14d0aa2821c4bb84,,,3751,80.00001264,-35.20000696,1,0,0,response3disk,,5,4.800011516,-8.800006568,1,0,0,rectangle,4.800011516,-8.800006568,1,0,0,3,"[285,210,33,37,131,164,183,167,320,309,103,170,251,101,100,76,224,130,185,123]",4.800011516,-8.800006568,1,0,0,1,10,171,148,1,,,
,,,,,,,,,,,,,FF,,,,,,,,1.013915,,,,,,,,,,,,,,,,,,,,,,,,,5eff559f6fc177000b4cbfa6,60a7d7fa223a2bf3800940ac,2021-05-21_16h56.02.109,Simcolourproject_2stim_asymm_v5,2020.2.10,Win32,60,60a5f9bf14d0aa2821c4bb84,,,1814,-75.99998969,-42.40000707,1,0,0,response5disk,,5,-18.39994,-12.00000662,1,0,0,rectangle,-18.39994,-12.00000662,1,0,0,4,"[285,210,33,37,131,164,183,167,320,309,103,170,251,101,100,76,224,130,185,123]",-18.39994,-12.00000662,1,0,0,1,11,172,122,1,,,
,,,,,,,,,,,,,FF,,,,,,,,0.91822,,,,,,,,,,,,,,,,,,,,,,,,,5eff559f6fc177000b4cbfa6,60a7d7fa223a2bf3800940ac,2021-05-21_16h56.02.109,Simcolourproject_2stim_asymm_v5,2020.2.10,Win32,60,60a5f9bf14d0aa2821c4bb84,,,263,-72.79998964,-47.20000714,1,0,0,response5disk,,5,-2.399939764,4.799993634,1,0,0,rectangle,-2.399939764,4.799993634,1,0,0,7,"[285,210,33,37,131,164,183,167,320,309,103,170,251,101,100,76,224,130,185,123]",-2.399939764,4.799993634,1,0,0,1,12,173,113,1,,,
,,,,,,,,,,,,,FF,,,,,,,,0.91828,,,,,,,,,,,,,,,,,,,,,,,,,5eff559f6fc177000b4cbfa6,60a7d7fa223a2bf3800940ac,2021-05-21_16h56.02.109,Simcolourproject_2stim_asymm_v5,2020.2.10,Win32,60,60a5f9bf14d0aa2821c4bb84,,,2424,-49.5999893,-83.20000768,1,0,0,response5disk,,3,-9.599988699,-3.200006485,1,0,0,rectangle,-9.599988699,-3.200006485,1,0,0,7,"[285,210,33,37,131,164,183,167,320,309,103,170,251,101,100,76,224,130,185,123]",-9.599988699,-3.200006485,1,0,0,1,13,174,136,1,,,
,,,,,,,,,,,,,FF,,,,,,,,0.84709,,,,,,,,,,,,,,,,,,,,,,,,,5eff559f6fc177000b4cbfa6,60a7d7fa223a2bf3800940ac,2021-05-21_16h56.02.109,Simcolourproject_2stim_asymm_v5,2020.2.10,Win32,60,60a5f9bf14d0aa2821c4bb84,,,3927,84.0000127,39.99999416,1,0,0,response1disk,,6,0.800011456,1.599993587,1,0,0,rectangle,0.800011456,1.599993587,1,0,0,4,"[285,210,33,37,131,164,183,167,320,309,103,170,251,101,100,76,224,130,185,123]",0.800011456,1.599993587,1,0,0,1,14,175,157,1,,,
,,,,,,,,,,,,,FF,,,,,,,,1.130485,,,,,,,,,,,,,,,,,,,,,,,,,5eff559f6fc177000b4cbfa6,60a7d7fa223a2bf3800940ac,2021-05-21_16h56.02.109,Simcolourproject_2stim_asymm_v5,2020.2.10,Win32,60,60a5f9bf14d0aa2821c4bb84,,,1550,71.20001251,-40.00000703,1,0,0,response3disk,,5,-3.999988616,-0.800006449,1,0,0,rectangle,-3.999988616,-0.800006449,1,0,0,1,"[285,210,33,37,131,164,183,167,320,309,103,170,251,101,100,76,224,130,185,123]",-3.999988616,-0.800006449,1,0,0,1,15,176,83,1,,,
,,,,,,,,,,,,,FF,,,,,,,,1.013945,,,,,,,,,,,,,,,,,,,,,,,,,5eff559f6fc177000b4cbfa6,60a7d7fa223a2bf3800940ac,2021-05-21_16h56.02.109,Simcolourproject_2stim_asymm_v5,2020.2.10,Win32,60,60a5f9bf14d0aa2821c4bb84,,,2116,76.00001258,42.39999419,1,0,0,response1disk,,6,1.600060296,-6.400006533,1,0,0,rectangle,1.600060296,-6.400006533,1,0,0,6,"[285,210,33,37,131,164,183,167,320,309,103,170,251,101,100,76,224,130,185,123]",1.600060296,-6.400006533,1,0,0,1,16,177,37,1,,,
,,,,,,,,,,,,,FF,,,,,,,,0.63302,,,,,,,,,,,,,,,,,,,,,,,,,5eff559f6fc177000b4cbfa6,60a7d7fa223a2bf3800940ac,2021-05-21_16h56.02.109,Simcolourproject_2stim_asymm_v5,2020.2.10,Win32,60,60a5f9bf14d0aa2821c4bb84,,,2588,28.00001186,84.79999483,1,0,0,response1disk,,7,4.800011516,-11.2000066,1,0,0,rectangle,4.800011516,-11.2000066,1,0,0,2,"[285,210,33,37,131,164,183,167,320,309,103,170,251,101,100,76,224,130,185,123]",4.800011516,-11.2000066,1,0,0,1,17,178,135,1,,,
,,,,,,,,,,,,,FF,,,,,,,,0.64999,,,,,,,,,,,,,,,,,,,,,,,,,5eff559f6fc177000b4cbfa6,60a7d7fa223a2bf3800940ac,2021-05-21_16h56.02.109,Simcolourproject_2stim_asymm_v5,2020.2.10,Win32,60,60a5f9bf14d0aa2821c4bb84,,,586,90.40001279,27.19996955,1,0,0,response1disk,,6,3.200011492,-1.600006461,1,0,0,rectangle,3.200011492,-1.600006461,1,0,0,7,"[285,210,33,37,131,164,183,167,320,309,103,170,251,101,100,76,224,130,185,123]",3.200011492,-1.600006461,1,0,0,1,18,179,45,1,,,
,,,,,,,,,,,,,FF,,,,,,,,0.797675,,,,,,,,,,,,,,,,,,,,,,,,,5eff559f6fc177000b4cbfa6,60a7d7fa223a2bf3800940ac,2021-05-21_16h56.02.109,Simcolourproject_2stim_asymm_v5,2020.2.10,Win32,60,60a5f9bf14d0aa2821c4bb84,,,1375,-91.99998993,-52.00000721,1,0,0,response5disk,,6,21.60006059,3.19999361,1,0,0,rectangle,21.60006059,3.19999361,1,0,0,0,"[285,210,33,37,131,164,183,167,320,309,103,170,251,101,100,76,224,130,185,123]",21.60006059,3.19999361,1,0,0,1,19,180,150,1,,,
,,,,,,,,,,,,,FF,,,,,,,,1.064095,,,,,,,,,,,,,,,,,,,,,,,,,5eff559f6fc177000b4cbfa6,60a7d7fa223a2bf3800940ac,2021-05-21_16h56.02.109,Simcolourproject_2stim_asymm_v5,2020.2.10,Win32,60,60a5f9bf14d0aa2821c4bb84,,,2413,-48.79998928,-86.40000772,1,0,0,response5disk,,3,-18.39994,-9.60000658,1,0,0,rectangle,-18.39994,-9.60000658,1,0,0,3,"[285,210,33,37,131,164,183,167,320,309,103,170,251,101,100,76,224,130,185,123]",-18.39994,-9.60000658,1,0,0,1,20,181,114,1,,,
,,,,,,,,,,,,,FF,,,,,,,,0.83232,,,,,,,,,,,,,,,,,,,,,,,,,5eff559f6fc177000b4cbfa6,60a7d7fa223a2bf3800940ac,2021-05-21_16h56.02.109,Simcolourproject_2stim_asymm_v5,2020.2.10,Win32,60,60a5f9bf14d0aa2821c4bb84,,,2192,94.40001285,52.79999435,1,0,0,response1disk,,6,16.00001168,0.799993575,1,0,0,rectangle,83.20001268,-49.60000718,1,0,0,5,"[285,210,33,37,131,164,183,167,320,309,103,170,251,101,100,76,224,130,185,123]",23.20001179,0.799993575,1,0,0,1,21,182,133,1,,response3disk_3,rectangle
,,,,,,,,,,,,,FF,,,,,,,,1.144515,,,,,,,,,,,,,,,,,,,,,,,,,5eff559f6fc177000b4cbfa6,60a7d7fa223a2bf3800940ac,2021-05-21_16h56.02.109,Simcolourproject_2stim_asymm_v5,2020.2.10,Win32,60,60a5f9bf14d0aa2821c4bb84,,,2959,100.0000129,63.19997009,1,0,0,response1disk,,6,19.20001173,-3.200006485,1,0,0,rectangle,19.20001173,-3.200006485,1,0,0,0,"[285,210,33,37,131,164,183,167,320,309,103,170,251,101,100,76,224,130,185,123]",19.20001173,-3.200006485,1,0,0,1,22,183,116,1,,,
,,,,,,,,,,,,,FF,,,,,,,,0.966075,,,,,,,,,,,,,,,,,,,,,,,,,5eff559f6fc177000b4cbfa6,60a7d7fa223a2bf3800940ac,2021-05-21_16h56.02.109,Simcolourproject_2stim_asymm_v5,2020.2.10,Win32,60,60a5f9bf14d0aa2821c4bb84,,,1821,-99.19999003,-45.60000712,1,0,0,response5disk,,6,3.200011492,-3.200006485,1,0,0,rectangle,-86.39994102,-51.2000072,1,0,0,2,"[285,210,33,37,131,164,183,167,320,309,103,170,251,101,100,76,224,130,185,123]",-7.999988675,-12.80000663,1,0,0,1,23,184,12,1,,response5disk_3,rectangle
,,,,,,,,,,,,,FF,,,,,,,,2.265855,,,,,,,,,,,,,,,,,,,,,,,,,5eff559f6fc177000b4cbfa6,60a7d7fa223a2bf3800940ac,2021-05-21_16h56.02.109,Simcolourproject_2stim_asymm_v5,2020.2.10,Win32,60,60a5f9bf14d0aa2821c4bb84,,,867,-36.7999891,-91.2000078,1,0,0,response5disk,,3,5.600060356,14.39999378,1,0,0,rectangle,5.600060356,14.39999378,1,0,0,6,"[285,210,33,37,131,164,183,167,320,309,103,170,251,101,100,76,224,130,185,123]",5.600060356,14.39999378,1,0,0,1,24,185,97,1,,,
,,,,,,,,,,,,,FF,,,,,,,,1.21642,,,,,,,,,,,,,,,,,,,,,,,,,5eff559f6fc177000b4cbfa6,60a7d7fa223a2bf3800940ac,2021-05-21_16h56.02.109,Simcolourproject_2stim_asymm_v5,2020.2.10,Win32,60,60a5f9bf14d0aa2821c4bb84,,,3661,-55.99998939,-97.60005672,1,0,0,response5disk,,3,6.400011539,-12.00000662,1,0,0,rectangle,6.400011539,-12.00000662,1,0,0,7,"[285,210,33,37,131,164,183,167,320,309,103,170,251,101,100,76,224,130,185,123]",6.400011539,-12.00000662,1,0,0,1,25,186,16,1,,,
,,,,,,,,,,,,,FF,,,,,,,,2.03234,,,,,,,,,,,,,,,,,,,,,,,,,5eff559f6fc177000b4cbfa6,60a7d7fa223a2bf3800940ac,2021-05-21_16h56.02.109,Simcolourproject_2stim_asymm_v5,2020.2.10,Win32,60,60a5f9bf14d0aa2821c4bb84,,,515,76.00001258,-49.60000718,1,0,0,response3disk,,5,-30.39994018,11.19999373,1,0,0,rectangle,-30.39994018,11.19999373,1,0,0,6,"[285,210,33,37,131,164,183,167,320,309,103,170,251,101,100,76,224,130,185,123]",-30.39994018,11.19999373,1,0,0,1,26,187,51,1,,,
,,,,,,,,,,,,,FF,,,,,,,,0.71849,,,,,,,,,,,,,,,,,,,,,,,,,5eff559f6fc177000b4cbfa6,60a7d7fa223a2bf3800940ac,2021-05-21_16h56.02.109,Simcolourproject_2stim_asymm_v5,2020.2.10,Win32,60,60a5f9bf14d0aa2821c4bb84,,,3131,98.40001291,43.99999422,1,0,0,response1disk,,6,1.14441E-05,-16.00000668,1,0,0,rectangle,1.14441E-05,-16.00000668,1,0,0,4,"[285,210,33,37,131,164,183,167,320,309,103,170,251,101,100,76,224,130,185,123]",1.14441E-05,-16.00000668,1,0,0,1,27,188,131,1,,,
,,,,,,,,,,,,,FF,,,,,,,,1.13066,,,,,,,,,,,,,,,,,,,,,,,,,5eff559f6fc177000b4cbfa6,60a7d7fa223a2bf3800940ac,2021-05-21_16h56.02.109,Simcolourproject_2stim_asymm_v5,2020.2.10,Win32,60,60a5f9bf14d0aa2821c4bb84,,,171,-86.39994102,26.39999396,1,0,0,response7disk,,1,1.600060296,11.99999374,1,0,0,rectangle,1.600060296,11.99999374,1,0,0,6,"[285,210,33,37,131,164,183,167,320,309,103,170,251,101,100,76,224,130,185,123]",1.600060296,11.99999374,1,0,0,1,28,189,54,1,,,
,,,,,,,,,,,,,FF,,,,,,,,0.86355,,,,,,,,,,,,,,,,,,,,,,,,,5eff559f6fc177000b4cbfa6,60a7d7fa223a2bf3800940ac,2021-05-21_16h56.02.109,Simcolourproject_2stim_asymm_v5,2020.2.10,Win32,60,60a5f9bf14d0aa2821c4bb84,,,2870,79.20001262,48.79999429,1,0,0,response1disk,,6,1.600060296,-5.600006521,1,0,0,rectangle,1.600060296,-5.600006521,1,0,0,3,"[285,210,33,37,131,164,183,167,320,309,103,170,251,101,100,76,224,130,185,123]",1.600060296,-5.600006521,1,0,0,1,29,190,28,1,,,
,,,,,,,,,,,,,FF,,,,,,,,0.93296,,,,,,,,,,,,,,,,,,,,,,,,,5eff559f6fc177000b4cbfa6,60a7d7fa223a2bf3800940ac,2021-05-21_16h56.02.109,Simcolourproject_2stim_asymm_v5,2020.2.10,Win32,60,60a5f9bf14d0aa2821c4bb84,,,2396,81.60001266,45.59999424,1,0,0,response1disk,,6,19.20001173,5.599993646,1,0,0,rectangle,19.20001173,5.599993646,1,0,0,2,"[285,210,33,37,131,164,183,167,320,309,103,170,251,101,100,76,224,130,185,123]",19.20001173,5.599993646,1,0,0,1,30,191,109,1,,,
,,,,,,,,,,,,,FF,,,,,,,,0.9329,,,,,,,,,,,,,,,,,,,,,,,,,5eff559f6fc177000b4cbfa6,60a7d7fa223a2bf3800940ac,2021-05-21_16h56.02.109,Simcolourproject_2stim_asymm_v5,2020.2.10,Win32,60,60a5f9bf14d0aa2821c4bb84,,,588,40.80001205,83.99999481,1,0,0,response1disk,,7,16.00001168,-1.600006461,1,0,0,rectangle,16.00001168,-1.600006461,1,0,0,4,"[285,210,33,37,131,164,183,167,320,309,103,170,251,101,100,76,224,130,185,123]",16.00001168,-1.600006461,1,0,0,1,31,192,132,1,,,
,,,,,,,,,,,,,FF,,,,,,,,1.26277,,,,,,,,,,,,,,,,,,,,,,,,,5eff559f6fc177000b4cbfa6,60a7d7fa223a2bf3800940ac,2021-05-21_16h56.02.109,Simcolourproject_2stim_asymm_v5,2020.2.10,Win32,60,60a5f9bf14d0aa2821c4bb84,,,2529,71.20001251,-45.60000712,1,0,0,response3disk,,5,0.800011456,-6.4373E-06,1,0,0,rectangle,0.800011456,-6.4373E-06,1,0,0,0,"[285,210,33,37,131,164,183,167,320,309,103,170,251,101,100,76,224,130,185,123]",0.800011456,-6.4373E-06,1,0,0,1,32,193,118,1,,,
,,,,,,,,,,,,,FF,,,,,,,,0.88092,,,,,,,,,,,,,,,,,,,,,,,,,5eff559f6fc177000b4cbfa6,60a7d7fa223a2bf3800940ac,2021-05-21_16h56.02.109,Simcolourproject_2stim_asymm_v5,2020.2.10,Win32,60,60a5f9bf14d0aa2821c4bb84,,,4327,51.20001221,83.99999481,1,0,0,response1disk,,7,-5.599988639,9.599993706,1,0,0,rectangle,-5.599988639,9.599993706,1,0,0,5,"[285,210,33,37,131,164,183,167,320,309,103,170,251,101,100,76,224,130,185,123]",-5.599988639,9.599993706,1,0,0,1,33,194,49,1,,,
,,,,,,,,,,,,,FF,,,,,,,,1.03026,,,,,,,,,,,,,,,,,,,,,,,,,5eff559f6fc177000b4cbfa6,60a7d7fa223a2bf3800940ac,2021-05-21_16h56.02.109,Simcolourproject_2stim_asymm_v5,2020.2.10,Win32,60,60a5f9bf14d0aa2821c4bb84,,,311,78.40001261,40.79999417,1,0,0,response1disk,,6,13.60006047,-6.4373E-06,1,0,0,rectangle,13.60006047,-6.4373E-06,1,0,0,7,"[285,210,33,37,131,164,183,167,320,309,103,170,251,101,100,76,224,130,185,123]",13.60006047,-6.4373E-06,1,0,0,1,34,195,146,1,,,
,,,,,,,,,,,,,FF,,,,,,,,0.828,,,,,,,,,,,,,,,,,,,,,,,,,5eff559f6fc177000b4cbfa6,60a7d7fa223a2bf3800940ac,2021-05-21_16h56.02.109,Simcolourproject_2stim_asymm_v5,2020.2.10,Win32,60,60a5f9bf14d0aa2821c4bb84,,,3572,84.0000127,40.79999417,1,0,0,response1disk,,6,12.00001162,-1.600006461,1,0,0,rectangle,12.00001162,-1.600006461,1,0,0,3,"[285,210,33,37,131,164,183,167,320,309,103,170,251,101,100,76,224,130,185,123]",12.00001162,-1.600006461,1,0,0,1,35,196,23,1,,,
,,,,,,,,,,,,,FF,,,,,,,,0.749885,,,,,,,,,,,,,,,,,,,,,,,,,5eff559f6fc177000b4cbfa6,60a7d7fa223a2bf3800940ac,2021-05-21_16h56.02.109,Simcolourproject_2stim_asymm_v5,2020.2.10,Win32,60,60a5f9bf14d0aa2821c4bb84,,,4292,43.20001209,91.19997051,1,0,0,response1disk,,7,3.200011492,-4.000006497,1,0,0,rectangle,3.200011492,-4.000006497,1,0,0,2,"[285,210,33,37,131,164,183,167,320,309,103,170,251,101,100,76,224,130,185,123]",3.200011492,-4.000006497,1,0,0,1,36,197,85,1,,,
,,,,,,,,,,,,,FF,,,,,,,,2.4321,,,,,,,,,,,,,,,,,,,,,,,,,5eff559f6fc177000b4cbfa6,60a7d7fa223a2bf3800940ac,2021-05-21_16h56.02.109,Simcolourproject_2stim_asymm_v5,2020.2.10,Win32,60,60a5f9bf14d0aa2821c4bb84,,,797,97.6000129,35.9999941,1,0,0,response1disk,,6,25.60006065,-7.200006545,1,0,0,rectangle,25.60006065,-7.200006545,1,0,0,1,"[285,210,33,37,131,164,183,167,320,309,103,170,251,101,100,76,224,130,185,123]",25.60006065,-7.200006545,1,0,0,1,37,198,8,1,,,
,,,,,,,,,,,,,FF,,,,,,,,0.78285,,,,,,,,,,,,,,,,,,,,,,,,,5eff559f6fc177000b4cbfa6,60a7d7fa223a2bf3800940ac,2021-05-21_16h56.02.109,Simcolourproject_2stim_asymm_v5,2020.2.10,Win32,60,60a5f9bf14d0aa2821c4bb84,,,1381,-35.99998909,-61.60000736,1,0,0,response5disk,,3,1.600060296,-6.4373E-06,1,0,0,rectangle,1.600060296,-6.4373E-06,1,0,0,2,"[285,210,33,37,131,164,183,167,320,309,103,170,251,101,100,76,224,130,185,123]",1.600060296,-6.4373E-06,1,0,0,1,38,199,139,1,,,
,,,,,,,,,,,,,FF,,,,,,,,0.799415,,,,,,,,,,,,,,,,,,,,,,,,,5eff559f6fc177000b4cbfa6,60a7d7fa223a2bf3800940ac,2021-05-21_16h56.02.109,Simcolourproject_2stim_asymm_v5,2020.2.10,Win32,60,60a5f9bf14d0aa2821c4bb84,,,2066,76.00001258,44.79999423,1,0,0,response1disk,,6,3.200011492,1.599993587,1,0,0,rectangle,3.200011492,1.599993587,1,0,0,2,"[285,210,33,37,131,164,183,167,320,309,103,170,251,101,100,76,224,130,185,123]",3.200011492,1.599993587,1,0,0,1,39,200,138,1,,,
,,,,,,,,,,,,,FF,,,,,,,,1.065835,,,,,,,,,,,,,,,,,,,,,,,,,5eff559f6fc177000b4cbfa6,60a7d7fa223a2bf3800940ac,2021-05-21_16h56.02.109,Simcolourproject_2stim_asymm_v5,2020.2.10,Win32,60,60a5f9bf14d0aa2821c4bb84,,,3792,44.0000121,67.19997015,1,0,0,response1disk,,7,5.600060356,4.799993634,1,0,0,rectangle,5.600060356,4.799993634,1,0,0,1,"[285,210,33,37,131,164,183,167,320,309,103,170,251,101,100,76,224,130,185,123]",5.600060356,4.799993634,1,0,0,1,40,201,103,1,,,
,,,,,,,,,,,,,FF,,,,,,,,1.297085,,,,,,,,,,,,,,,,,,,,,,,,,5eff559f6fc177000b4cbfa6,60a7d7fa223a2bf3800940ac,2021-05-21_16h56.02.109,Simcolourproject_2stim_asymm_v5,2020.2.10,Win32,60,60a5f9bf14d0aa2821c4bb84,,,2535,-33.59998906,-75.20000756,1,0,0,response5disk,,3,3.200011492,-9.60000658,1,0,0,rectangle,3.200011492,-9.60000658,1,0,0,7,"[285,210,33,37,131,164,183,167,320,309,103,170,251,101,100,76,224,130,185,123]",3.200011492,-9.60000658,1,0,0,1,41,202,55,1,,,
,,,,,,,,,,,,,FF,,,,,,,,1.43282,,,,,,,,,,,,,,,,,,,,,,,,,5eff559f6fc177000b4cbfa6,60a7d7fa223a2bf3800940ac,2021-05-21_16h56.02.109,Simcolourproject_2stim_asymm_v5,2020.2.10,Win32,60,60a5f9bf14d0aa2821c4bb84,,,2375,99.20001292,26.39999396,1,0,0,response1disk,,6,16.80001169,-6.4373E-06,1,0,0,rectangle,16.80001169,-6.4373E-06,1,0,0,4,"[285,210,33,37,131,164,183,167,320,309,103,170,251,101,100,76,224,130,185,123]",16.80001169,-6.4373E-06,1,0,0,1,42,203,40,1,,,
,,,,,,,,,,,,,FF,,,,,,,,0.754035,,,,,,,,,,,,,,,,,,,,,,,,,5eff559f6fc177000b4cbfa6,60a7d7fa223a2bf3800940ac,2021-05-21_16h56.02.109,Simcolourproject_2stim_asymm_v5,2020.2.10,Win32,60,60a5f9bf14d0aa2821c4bb84,,,1526,-44.79998922,-97.60005672,1,0,0,response5disk,,3,-1.59998858,-13.60000664,1,0,0,rectangle,-1.59998858,-13.60000664,1,0,0,2,"[285,210,33,37,131,164,183,167,320,309,103,170,251,101,100,76,224,130,185,123]",-1.59998858,-13.60000664,1,0,0,1,43,204,2,1,,,
,,,,,,,,,,,,,FF,,,,,,,,1.316295,,,,,,,,,,,,,,,,,,,,,,,,,5eff559f6fc177000b4cbfa6,60a7d7fa223a2bf3800940ac,2021-05-21_16h56.02.109,Simcolourproject_2stim_asymm_v5,2020.2.10,Win32,60,60a5f9bf14d0aa2821c4bb84,,,870,-39.99998915,-78.40000761,1,0,0,response5disk,,3,5.600060356,3.19999361,1,0,0,rectangle,5.600060356,3.19999361,1,0,0,0,"[285,210,33,37,131,164,183,167,320,309,103,170,251,101,100,76,224,130,185,123]",5.600060356,3.19999361,1,0,0,1,44,205,10,1,,,
