key_resp.keys,key_resp.rt,key_resp_14.keys,key_resp_14.rt,key_resp_15.keys,key_resp_15.rt,key_resp_17.keys,key_resp_17.rt,key_resp_9.keys,key_resp_9.rt,key_resp_10.keys,key_resp_10.rt,practice_comparison,Ecc,mouse_5.x,mouse_5.y,mouse_5.leftButton,mouse_5.midButton,mouse_5.rightButton,mouse_5.clicked_name,pracsimilarity,response_time,mouse_10.x,mouse_10.y,mouse_10.leftButton,mouse_10.midButton,mouse_10.rightButton,mouse_10.clicked_name,mouse_7.x,mouse_7.y,mouse_7.leftButton,mouse_7.midButton,mouse_7.rightButton,catchnumberprac,mouse_6.x,mouse_6.y,mouse_6.leftButton,mouse_6.midButton,mouse_6.rightButton,duringprac.thisRepN,duringprac.thisTrialN,duringprac.thisN,duringprac.thisIndex,duringprac.ran,participant,session,date,expName,psychopyVersion,OS,frameRate,study_id,mouse_7.clicked_name,mouse_6.clicked_name,key_resp_22.keys,key_resp_22.rt,realcomparison,mouse.x,mouse.y,mouse.leftButton,mouse.midButton,mouse.rightButton,mouse.clicked_name,Colour2,similarity,mouse_2.x,mouse_2.y,mouse_2.leftButton,mouse_2.midButton,mouse_2.rightButton,mouse_2.clicked_name,mouse_3.x,mouse_3.y,mouse_3.leftButton,mouse_3.midButton,mouse_3.rightButton,catchnumber,catchtrialorder,mouse_11.x,mouse_11.y,mouse_11.leftButton,mouse_11.midButton,mouse_11.rightButton,trials_2.thisRepN,trials_2.thisTrialN,trials_2.thisN,trials_2.thisIndex,trials_2.ran,Colour1,mouse_3.clicked_name,mouse_11.clicked_name
space,1.675705,space,12.09844,space,22.457125,space,11.785575,space,1.62693,space,4.07954,2,PF,129,-64,1,0,0,response3disk_5,5,8.892185,-2,-1,1,0,0,rectangle_8,-2,-1,1,0,0,5,-2,-1,1,0,0,0,0,0,6,1,5f00d65cb69f9e20f144e404,60a7d7fc9a1f1edadd4bdff4,2021-05-21_16h57.03.891,Simcolourproject_2stim_asymm_v5,2020.2.10,Win32,60,60a5f9bf14d0aa2821c4bb84,,,,,,,,,,,,,,,,,,,,,,,,,,,,,,,,,,,,,,,
,,,,,,,,,,,,92,FF,100,71,1,0,0,response1disk_5,6,2.81925,-3,7,1,0,0,rectangle_8,-3,7,1,0,0,5,-3,7,1,0,0,0,1,1,3,1,5f00d65cb69f9e20f144e404,60a7d7fc9a1f1edadd4bdff4,2021-05-21_16h57.03.891,Simcolourproject_2stim_asymm_v5,2020.2.10,Win32,60,60a5f9bf14d0aa2821c4bb84,,,,,,,,,,,,,,,,,,,,,,,,,,,,,,,,,,,,,,,
,,,,,,,,,,,,147,FF,86,-54,1,0,0,response3disk_5,5,1.23539,15,3,1,0,0,rectangle_8,123,-77,1,0,0,5,-4,-11,1,0,0,0,2,2,5,1,5f00d65cb69f9e20f144e404,60a7d7fc9a1f1edadd4bdff4,2021-05-21_16h57.03.891,Simcolourproject_2stim_asymm_v5,2020.2.10,Win32,60,60a5f9bf14d0aa2821c4bb84,response3disk_7,rectangle_4,,,,,,,,,,,,,,,,,,,,,,,,,,,,,,,,,,,,,
,,,,,,,,,,,,95,PF,-112,-73,1,0,0,response5disk_5,5,3.62002,-2,1,1,0,0,rectangle_8,-2,1,1,0,0,5,-2,1,1,0,0,0,3,3,1,1,5f00d65cb69f9e20f144e404,60a7d7fc9a1f1edadd4bdff4,2021-05-21_16h57.03.891,Simcolourproject_2stim_asymm_v5,2020.2.10,Win32,60,60a5f9bf14d0aa2821c4bb84,,,,,,,,,,,,,,,,,,,,,,,,,,,,,,,,,,,,,,,
,,,,,,,,,,,,42,PF,99,43,1,0,0,response1disk_5,6,2.402755,-1,10,1,0,0,rectangle_8,-1,10,1,0,0,5,-1,10,1,0,0,0,4,4,4,1,5f00d65cb69f9e20f144e404,60a7d7fc9a1f1edadd4bdff4,2021-05-21_16h57.03.891,Simcolourproject_2stim_asymm_v5,2020.2.10,Win32,60,60a5f9bf14d0aa2821c4bb84,,,,,,,,,,,,,,,,,,,,,,,,,,,,,,,,,,,,,,,
,,,,,,,,,,,,5,FF,97,-60,1,0,0,response3disk_5,5,1.734625,5,4,1,0,0,rectangle_8,5,4,1,0,0,5,5,4,1,0,0,0,5,5,0,1,5f00d65cb69f9e20f144e404,60a7d7fc9a1f1edadd4bdff4,2021-05-21_16h57.03.891,Simcolourproject_2stim_asymm_v5,2020.2.10,Win32,60,60a5f9bf14d0aa2821c4bb84,,,,,,,,,,,,,,,,,,,,,,,,,,,,,,,,,,,,,,,
,,,,,,,,,,,,67,PF,106,-50,1,0,0,response3disk_5,5,2.468695,2,0,1,0,0,rectangle_8,2,0,1,0,0,5,2,0,1,0,0,0,6,6,2,1,5f00d65cb69f9e20f144e404,60a7d7fc9a1f1edadd4bdff4,2021-05-21_16h57.03.891,Simcolourproject_2stim_asymm_v5,2020.2.10,Win32,60,60a5f9bf14d0aa2821c4bb84,,,,,,,,,,,,,,,,,,,,,,,,,,,,,,,,,,,,,,,
,,,,,,,,,,,,,FF,,,,,,,,2.75166,,,,,,,,,,,,,,,,,,,,,,,5f00d65cb69f9e20f144e404,60a7d7fc9a1f1edadd4bdff4,2021-05-21_16h57.03.891,Simcolourproject_2stim_asymm_v5,2020.2.10,Win32,60,60a5f9bf14d0aa2821c4bb84,,,space,2.6686,3441,-40,-127,1,0,0,response5disk,,3,-5,5,1,0,0,rectangle,-5,5,1,0,0,4,"[187,203,155,201,96,150,274,97,307,184,144,25,297,275,87,155,301,227,44,78]",-5,5,1,0,0,0,0,0,133,1,,,
,,,,,,,,,,,,,FF,,,,,,,,1.00127,,,,,,,,,,,,,,,,,,,,,,,5f00d65cb69f9e20f144e404,60a7d7fc9a1f1edadd4bdff4,2021-05-21_16h57.03.891,Simcolourproject_2stim_asymm_v5,2020.2.10,Win32,60,60a5f9bf14d0aa2821c4bb84,,,,,2776,-101,-34,1,0,0,response5disk,,3,-5,4,1,0,0,rectangle,-5,4,1,0,0,3,"[187,203,155,201,96,150,274,97,307,184,144,25,297,275,87,155,301,227,44,78]",-5,4,1,0,0,0,1,1,30,1,,,
,,,,,,,,,,,,,FF,,,,,,,,1.584505,,,,,,,,,,,,,,,,,,,,,,,5f00d65cb69f9e20f144e404,60a7d7fc9a1f1edadd4bdff4,2021-05-21_16h57.03.891,Simcolourproject_2stim_asymm_v5,2020.2.10,Win32,60,60a5f9bf14d0aa2821c4bb84,,,,,2188,89,-57,1,0,0,response3disk,,5,1,-21,1,0,0,rectangle,1,-21,1,0,0,1,"[187,203,155,201,96,150,274,97,307,184,144,25,297,275,87,155,301,227,44,78]",1,-21,1,0,0,0,2,2,115,1,,,
,,,,,,,,,,,,,FF,,,,,,,,2.4187,,,,,,,,,,,,,,,,,,,,,,,5f00d65cb69f9e20f144e404,60a7d7fc9a1f1edadd4bdff4,2021-05-21_16h57.03.891,Simcolourproject_2stim_asymm_v5,2020.2.10,Win32,60,60a5f9bf14d0aa2821c4bb84,,,,,2926,102,-47,1,0,0,response3disk,,5,13,4,1,0,0,rectangle,13,4,1,0,0,7,"[187,203,155,201,96,150,274,97,307,184,144,25,297,275,87,155,301,227,44,78]",13,4,1,0,0,0,3,3,81,1,,,
,,,,,,,,,,,,,FF,,,,,,,,2.853075,,,,,,,,,,,,,,,,,,,,,,,5f00d65cb69f9e20f144e404,60a7d7fc9a1f1edadd4bdff4,2021-05-21_16h57.03.891,Simcolourproject_2stim_asymm_v5,2020.2.10,Win32,60,60a5f9bf14d0aa2821c4bb84,,,,,622,-121,-47,1,0,0,response5disk,,5,-2,4,1,0,0,rectangle,-2,4,1,0,0,7,"[187,203,155,201,96,150,274,97,307,184,144,25,297,275,87,155,301,227,44,78]",-2,4,1,0,0,0,4,4,49,1,,,
,,,,,,,,,,,,,FF,,,,,,,,1.234595,,,,,,,,,,,,,,,,,,,,,,,5f00d65cb69f9e20f144e404,60a7d7fc9a1f1edadd4bdff4,2021-05-21_16h57.03.891,Simcolourproject_2stim_asymm_v5,2020.2.10,Win32,60,60a5f9bf14d0aa2821c4bb84,,,,,866,56,-70,1,0,0,response3disk,,4,0,4,1,0,0,rectangle,0,4,1,0,0,6,"[187,203,155,201,96,150,274,97,307,184,144,25,297,275,87,155,301,227,44,78]",0,4,1,0,0,0,5,5,83,1,,,
,,,,,,,,,,,,,FF,,,,,,,,1.36755,,,,,,,,,,,,,,,,,,,,,,,5f00d65cb69f9e20f144e404,60a7d7fc9a1f1edadd4bdff4,2021-05-21_16h57.03.891,Simcolourproject_2stim_asymm_v5,2020.2.10,Win32,60,60a5f9bf14d0aa2821c4bb84,,,,,4245,78,106,1,0,0,response1disk,,7,-12,13,1,0,0,rectangle,-12,13,1,0,0,0,"[187,203,155,201,96,150,274,97,307,184,144,25,297,275,87,155,301,227,44,78]",-12,13,1,0,0,0,6,6,26,1,,,
,,,,,,,,,,,,,FF,,,,,,,,1.0009,,,,,,,,,,,,,,,,,,,,,,,5f00d65cb69f9e20f144e404,60a7d7fc9a1f1edadd4bdff4,2021-05-21_16h57.03.891,Simcolourproject_2stim_asymm_v5,2020.2.10,Win32,60,60a5f9bf14d0aa2821c4bb84,,,,,3982,-43,-88,1,0,0,response5disk,,3,-12,8,1,0,0,rectangle,-12,8,1,0,0,0,"[187,203,155,201,96,150,274,97,307,184,144,25,297,275,87,155,301,227,44,78]",-12,8,1,0,0,0,7,7,87,1,,,
,,,,,,,,,,,,,FF,,,,,,,,1.250045,,,,,,,,,,,,,,,,,,,,,,,5f00d65cb69f9e20f144e404,60a7d7fc9a1f1edadd4bdff4,2021-05-21_16h57.03.891,Simcolourproject_2stim_asymm_v5,2020.2.10,Win32,60,60a5f9bf14d0aa2821c4bb84,,,,,3962,42,-95,1,0,0,response3disk,,4,-3,0,1,0,0,rectangle,-3,0,1,0,0,0,"[187,203,155,201,96,150,274,97,307,184,144,25,297,275,87,155,301,227,44,78]",-3,0,1,0,0,0,8,8,50,1,,,
,,,,,,,,,,,,,FF,,,,,,,,1.5009,,,,,,,,,,,,,,,,,,,,,,,5f00d65cb69f9e20f144e404,60a7d7fc9a1f1edadd4bdff4,2021-05-21_16h57.03.891,Simcolourproject_2stim_asymm_v5,2020.2.10,Win32,60,60a5f9bf14d0aa2821c4bb84,,,,,578,38,-69,1,0,0,response3disk,,4,-8,6,1,0,0,rectangle,-8,6,1,0,0,6,"[187,203,155,201,96,150,274,97,307,184,144,25,297,275,87,155,301,227,44,78]",-8,6,1,0,0,0,9,9,109,1,,,
,,,,,,,,,,,,,FF,,,,,,,,2.235305,,,,,,,,,,,,,,,,,,,,,,,5f00d65cb69f9e20f144e404,60a7d7fc9a1f1edadd4bdff4,2021-05-21_16h57.03.891,Simcolourproject_2stim_asymm_v5,2020.2.10,Win32,60,60a5f9bf14d0aa2821c4bb84,,,,,2469,116,-47,1,0,0,response3disk,,5,-10,5,1,0,0,rectangle,-10,5,1,0,0,1,"[187,203,155,201,96,150,274,97,307,184,144,25,297,275,87,155,301,227,44,78]",-10,5,1,0,0,0,10,10,76,1,,,
,,,,,,,,,,,,,FF,,,,,,,,4.671005,,,,,,,,,,,,,,,,,,,,,,,5f00d65cb69f9e20f144e404,60a7d7fc9a1f1edadd4bdff4,2021-05-21_16h57.03.891,Simcolourproject_2stim_asymm_v5,2020.2.10,Win32,60,60a5f9bf14d0aa2821c4bb84,,,,,3979,51,-93,1,0,0,response3disk,,4,-5,10,1,0,0,rectangle,-5,10,1,0,0,0,"[187,203,155,201,96,150,274,97,307,184,144,25,297,275,87,155,301,227,44,78]",-5,10,1,0,0,0,11,11,79,1,,,
,,,,,,,,,,,,,FF,,,,,,,,2.68542,,,,,,,,,,,,,,,,,,,,,,,5f00d65cb69f9e20f144e404,60a7d7fc9a1f1edadd4bdff4,2021-05-21_16h57.03.891,Simcolourproject_2stim_asymm_v5,2020.2.10,Win32,60,60a5f9bf14d0aa2821c4bb84,,,,,3987,90,-47,1,0,0,response3disk,,5,-6,8,1,0,0,rectangle,-6,8,1,0,0,3,"[187,203,155,201,96,150,274,97,307,184,144,25,297,275,87,155,301,227,44,78]",-6,8,1,0,0,0,12,12,32,1,,,
,,,,,,,,,,,,,FF,,,,,,,,1.584745,,,,,,,,,,,,,,,,,,,,,,,5f00d65cb69f9e20f144e404,60a7d7fc9a1f1edadd4bdff4,2021-05-21_16h57.03.891,Simcolourproject_2stim_asymm_v5,2020.2.10,Win32,60,60a5f9bf14d0aa2821c4bb84,,,,,2114,95,-52,1,0,0,response3disk,,5,-21,17,1,0,0,rectangle,-21,17,1,0,0,4,"[187,203,155,201,96,150,274,97,307,184,144,25,297,275,87,155,301,227,44,78]",-21,17,1,0,0,0,13,13,29,1,,,
,,,,,,,,,,,,,FF,,,,,,,,1.68512,,,,,,,,,,,,,,,,,,,,,,,5f00d65cb69f9e20f144e404,60a7d7fc9a1f1edadd4bdff4,2021-05-21_16h57.03.891,Simcolourproject_2stim_asymm_v5,2020.2.10,Win32,60,60a5f9bf14d0aa2821c4bb84,,,,,4139,85,-52,1,0,0,response3disk,,5,3,4,1,0,0,rectangle,3,4,1,0,0,2,"[187,203,155,201,96,150,274,97,307,184,144,25,297,275,87,155,301,227,44,78]",3,4,1,0,0,0,14,14,134,1,,,
,,,,,,,,,,,,,FF,,,,,,,,1.45095,,,,,,,,,,,,,,,,,,,,,,,5f00d65cb69f9e20f144e404,60a7d7fc9a1f1edadd4bdff4,2021-05-21_16h57.03.891,Simcolourproject_2stim_asymm_v5,2020.2.10,Win32,60,60a5f9bf14d0aa2821c4bb84,,,,,3790,76,118,1,0,0,response1disk,,7,-16,6,1,0,0,rectangle,-16,6,1,0,0,5,"[187,203,155,201,96,150,274,97,307,184,144,25,297,275,87,155,301,227,44,78]",-16,6,1,0,0,0,15,15,67,1,,,
,,,,,,,,,,,,,FF,,,,,,,,2.58555,,,,,,,,,,,,,,,,,,,,,,,5f00d65cb69f9e20f144e404,60a7d7fc9a1f1edadd4bdff4,2021-05-21_16h57.03.891,Simcolourproject_2stim_asymm_v5,2020.2.10,Win32,60,60a5f9bf14d0aa2821c4bb84,,,,,652,66,-94,1,0,0,response3disk,,4,-2,10,1,0,0,rectangle,-2,10,1,0,0,7,"[187,203,155,201,96,150,274,97,307,184,144,25,297,275,87,155,301,227,44,78]",-2,10,1,0,0,0,16,16,53,1,,,
,,,,,,,,,,,,,FF,,,,,,,,2.03506,,,,,,,,,,,,,,,,,,,,,,,5f00d65cb69f9e20f144e404,60a7d7fc9a1f1edadd4bdff4,2021-05-21_16h57.03.891,Simcolourproject_2stim_asymm_v5,2020.2.10,Win32,60,60a5f9bf14d0aa2821c4bb84,,,,,824,-81,-88,1,0,0,response5disk,,3,-3,1,1,0,0,rectangle,-3,1,1,0,0,6,"[187,203,155,201,96,150,274,97,307,184,144,25,297,275,87,155,301,227,44,78]",-3,1,1,0,0,0,17,17,85,1,,,
,,,,,,,,,,,,,FF,,,,,,,,2.168305,,,,,,,,,,,,,,,,,,,,,,,5f00d65cb69f9e20f144e404,60a7d7fc9a1f1edadd4bdff4,2021-05-21_16h57.03.891,Simcolourproject_2stim_asymm_v5,2020.2.10,Win32,60,60a5f9bf14d0aa2821c4bb84,,,,,1649,82,70,1,0,0,response1disk,,6,-5,11,1,0,0,rectangle,-5,11,1,0,0,2,"[187,203,155,201,96,150,274,97,307,184,144,25,297,275,87,155,301,227,44,78]",-5,11,1,0,0,0,18,18,14,1,,,
,,,,,,,,,,,,,FF,,,,,,,,1.08382,,,,,,,,,,,,,,,,,,,,,,,5f00d65cb69f9e20f144e404,60a7d7fc9a1f1edadd4bdff4,2021-05-21_16h57.03.891,Simcolourproject_2stim_asymm_v5,2020.2.10,Win32,60,60a5f9bf14d0aa2821c4bb84,,,,,2516,106,-53,1,0,0,response3disk,,5,9,11,1,0,0,rectangle,9,11,1,0,0,6,"[187,203,155,201,96,150,274,97,307,184,144,25,297,275,87,155,301,227,44,78]",9,11,1,0,0,0,19,19,66,1,,,
,,,,,,,,,,,,,FF,,,,,,,,1.06694,,,,,,,,,,,,,,,,,,,,,,,5f00d65cb69f9e20f144e404,60a7d7fc9a1f1edadd4bdff4,2021-05-21_16h57.03.891,Simcolourproject_2stim_asymm_v5,2020.2.10,Win32,60,60a5f9bf14d0aa2821c4bb84,,,,,692,89,-40,1,0,0,response3disk,,5,8,8,1,0,0,rectangle,8,8,1,0,0,4,"[187,203,155,201,96,150,274,97,307,184,144,25,297,275,87,155,301,227,44,78]",8,8,1,0,0,0,20,20,38,1,,,
,,,,,,,,,,,,,FF,,,,,,,,1.100825,,,,,,,,,,,,,,,,,,,,,,,5f00d65cb69f9e20f144e404,60a7d7fc9a1f1edadd4bdff4,2021-05-21_16h57.03.891,Simcolourproject_2stim_asymm_v5,2020.2.10,Win32,60,60a5f9bf14d0aa2821c4bb84,,,,,2668,-106,44,1,0,0,response7disk,,1,1,7,1,0,0,rectangle,1,7,1,0,0,0,"[187,203,155,201,96,150,274,97,307,184,144,25,297,275,87,155,301,227,44,78]",1,7,1,0,0,0,21,21,119,1,,,
,,,,,,,,,,,,,FF,,,,,,,,0.88437,,,,,,,,,,,,,,,,,,,,,,,5f00d65cb69f9e20f144e404,60a7d7fc9a1f1edadd4bdff4,2021-05-21_16h57.03.891,Simcolourproject_2stim_asymm_v5,2020.2.10,Win32,60,60a5f9bf14d0aa2821c4bb84,,,,,456,-115,77,1,0,0,response7disk,,1,-6,5,1,0,0,rectangle,-6,5,1,0,0,5,"[187,203,155,201,96,150,274,97,307,184,144,25,297,275,87,155,301,227,44,78]",-6,5,1,0,0,0,22,22,34,1,,,
,,,,,,,,,,,,,FF,,,,,,,,1.434175,,,,,,,,,,,,,,,,,,,,,,,5f00d65cb69f9e20f144e404,60a7d7fc9a1f1edadd4bdff4,2021-05-21_16h57.03.891,Simcolourproject_2stim_asymm_v5,2020.2.10,Win32,60,60a5f9bf14d0aa2821c4bb84,,,,,1325,73,-101,1,0,0,response3disk,,4,4,9,1,0,0,rectangle,4,9,1,0,0,3,"[187,203,155,201,96,150,274,97,307,184,144,25,297,275,87,155,301,227,44,78]",4,9,1,0,0,0,23,23,31,1,,,
,,,,,,,,,,,,,FF,,,,,,,,2.48554,,,,,,,,,,,,,,,,,,,,,,,5f00d65cb69f9e20f144e404,60a7d7fc9a1f1edadd4bdff4,2021-05-21_16h57.03.891,Simcolourproject_2stim_asymm_v5,2020.2.10,Win32,60,60a5f9bf14d0aa2821c4bb84,,,,,3094,-53,-105,1,0,0,response5disk,,3,-20,-3,1,0,0,rectangle,-114,63,1,0,0,1,"[187,203,155,201,96,150,274,97,307,184,144,25,297,275,87,155,301,227,44,78]",-5,4,1,0,0,0,24,24,145,1,,response7disk_3,rectangle
,,,,,,,,,,,,,FF,,,,,,,,1.95132,,,,,,,,,,,,,,,,,,,,,,,5f00d65cb69f9e20f144e404,60a7d7fc9a1f1edadd4bdff4,2021-05-21_16h57.03.891,Simcolourproject_2stim_asymm_v5,2020.2.10,Win32,60,60a5f9bf14d0aa2821c4bb84,,,,,999,63,-96,1,0,0,response3disk,,4,-7,11,1,0,0,rectangle,-7,11,1,0,0,7,"[187,203,155,201,96,150,274,97,307,184,144,25,297,275,87,155,301,227,44,78]",-7,11,1,0,0,0,25,25,106,1,,,
,,,,,,,,,,,,,FF,,,,,,,,1.10145,,,,,,,,,,,,,,,,,,,,,,,5f00d65cb69f9e20f144e404,60a7d7fc9a1f1edadd4bdff4,2021-05-21_16h57.03.891,Simcolourproject_2stim_asymm_v5,2020.2.10,Win32,60,60a5f9bf14d0aa2821c4bb84,,,,,2664,-126,-39,1,0,0,response5disk,,4,-13,13,1,0,0,rectangle,-13,13,1,0,0,3,"[187,203,155,201,96,150,274,97,307,184,144,25,297,275,87,155,301,227,44,78]",-13,13,1,0,0,0,26,26,24,1,,,
,,,,,,,,,,,,,FF,,,,,,,,1.317565,,,,,,,,,,,,,,,,,,,,,,,5f00d65cb69f9e20f144e404,60a7d7fc9a1f1edadd4bdff4,2021-05-21_16h57.03.891,Simcolourproject_2stim_asymm_v5,2020.2.10,Win32,60,60a5f9bf14d0aa2821c4bb84,,,,,2262,44,-94,1,0,0,response3disk,,4,-9,0,1,0,0,rectangle,-9,0,1,0,0,6,"[187,203,155,201,96,150,274,97,307,184,144,25,297,275,87,155,301,227,44,78]",-9,0,1,0,0,0,27,27,20,1,,,
,,,,,,,,,,,,,FF,,,,,,,,1.25141,,,,,,,,,,,,,,,,,,,,,,,5f00d65cb69f9e20f144e404,60a7d7fc9a1f1edadd4bdff4,2021-05-21_16h57.03.891,Simcolourproject_2stim_asymm_v5,2020.2.10,Win32,60,60a5f9bf14d0aa2821c4bb84,,,,,3924,110,53,1,0,0,response1disk,,6,-18,9,1,0,0,rectangle,-18,9,1,0,0,1,"[187,203,155,201,96,150,274,97,307,184,144,25,297,275,87,155,301,227,44,78]",-18,9,1,0,0,0,28,28,10,1,,,
,,,,,,,,,,,,,FF,,,,,,,,0.86721,,,,,,,,,,,,,,,,,,,,,,,5f00d65cb69f9e20f144e404,60a7d7fc9a1f1edadd4bdff4,2021-05-21_16h57.03.891,Simcolourproject_2stim_asymm_v5,2020.2.10,Win32,60,60a5f9bf14d0aa2821c4bb84,,,,,4163,-120,81,1,0,0,response7disk,,1,-13,5,1,0,0,rectangle,-13,5,1,0,0,4,"[187,203,155,201,96,150,274,97,307,184,144,25,297,275,87,155,301,227,44,78]",-13,5,1,0,0,0,29,29,135,1,,,
,,,,,,,,,,,,,FF,,,,,,,,1.61845,,,,,,,,,,,,,,,,,,,,,,,5f00d65cb69f9e20f144e404,60a7d7fc9a1f1edadd4bdff4,2021-05-21_16h57.03.891,Simcolourproject_2stim_asymm_v5,2020.2.10,Win32,60,60a5f9bf14d0aa2821c4bb84,,,,,3446,-61,-96,1,0,0,response5disk,,3,8,-2,1,0,0,rectangle,8,-2,1,0,0,4,"[187,203,155,201,96,150,274,97,307,184,144,25,297,275,87,155,301,227,44,78]",8,-2,1,0,0,0,30,30,139,1,,,
,,,,,,,,,,,,,FF,,,,,,,,1.23403,,,,,,,,,,,,,,,,,,,,,,,5f00d65cb69f9e20f144e404,60a7d7fc9a1f1edadd4bdff4,2021-05-21_16h57.03.891,Simcolourproject_2stim_asymm_v5,2020.2.10,Win32,60,60a5f9bf14d0aa2821c4bb84,,,,,3015,120,47,1,0,0,response1disk,,6,-14,-1,1,0,0,rectangle,-14,-1,1,0,0,2,"[187,203,155,201,96,150,274,97,307,184,144,25,297,275,87,155,301,227,44,78]",-14,-1,1,0,0,0,31,31,123,1,,,
,,,,,,,,,,,,,FF,,,,,,,,1.68455,,,,,,,,,,,,,,,,,,,,,,,5f00d65cb69f9e20f144e404,60a7d7fc9a1f1edadd4bdff4,2021-05-21_16h57.03.891,Simcolourproject_2stim_asymm_v5,2020.2.10,Win32,60,60a5f9bf14d0aa2821c4bb84,,,,,2225,78,96,1,0,0,response1disk,,7,-7,5,1,0,0,rectangle,-7,5,1,0,0,1,"[187,203,155,201,96,150,274,97,307,184,144,25,297,275,87,155,301,227,44,78]",-7,5,1,0,0,0,32,32,96,1,,,
,,,,,,,,,,,,,FF,,,,,,,,1.384185,,,,,,,,,,,,,,,,,,,,,,,5f00d65cb69f9e20f144e404,60a7d7fc9a1f1edadd4bdff4,2021-05-21_16h57.03.891,Simcolourproject_2stim_asymm_v5,2020.2.10,Win32,60,60a5f9bf14d0aa2821c4bb84,,,,,2397,91,-52,1,0,0,response3disk,,5,-7,5,1,0,0,rectangle,-7,5,1,0,0,0,"[187,203,155,201,96,150,274,97,307,184,144,25,297,275,87,155,301,227,44,78]",-7,5,1,0,0,0,33,33,131,1,,,
,,,,,,,,,,,,,FF,,,,,,,,2.36855,,,,,,,,,,,,,,,,,,,,,,,5f00d65cb69f9e20f144e404,60a7d7fc9a1f1edadd4bdff4,2021-05-21_16h57.03.891,Simcolourproject_2stim_asymm_v5,2020.2.10,Win32,60,60a5f9bf14d0aa2821c4bb84,,,,,3442,57,-90,1,0,0,response3disk,,4,-16,7,1,0,0,rectangle,-16,7,1,0,0,6,"[187,203,155,201,96,150,274,97,307,184,144,25,297,275,87,155,301,227,44,78]",-16,7,1,0,0,0,34,34,74,1,,,
,,,,,,,,,,,,,FF,,,,,,,,2.08578,,,,,,,,,,,,,,,,,,,,,,,5f00d65cb69f9e20f144e404,60a7d7fc9a1f1edadd4bdff4,2021-05-21_16h57.03.891,Simcolourproject_2stim_asymm_v5,2020.2.10,Win32,60,60a5f9bf14d0aa2821c4bb84,,,,,2773,60,-101,1,0,0,response3disk,,4,3,18,1,0,0,rectangle,3,18,1,0,0,7,"[187,203,155,201,96,150,274,97,307,184,144,25,297,275,87,155,301,227,44,78]",3,18,1,0,0,0,35,35,2,1,,,
,,,,,,,,,,,,,FF,,,,,,,,1.434395,,,,,,,,,,,,,,,,,,,,,,,5f00d65cb69f9e20f144e404,60a7d7fc9a1f1edadd4bdff4,2021-05-21_16h57.03.891,Simcolourproject_2stim_asymm_v5,2020.2.10,Win32,60,60a5f9bf14d0aa2821c4bb84,,,,,812,58,-90,1,0,0,response3disk,,4,-3,1,1,0,0,rectangle,-3,1,1,0,0,6,"[187,203,155,201,96,150,274,97,307,184,144,25,297,275,87,155,301,227,44,78]",-3,1,1,0,0,0,36,36,138,1,,,
,,,,,,,,,,,,,FF,,,,,,,,1.71872,,,,,,,,,,,,,,,,,,,,,,,5f00d65cb69f9e20f144e404,60a7d7fc9a1f1edadd4bdff4,2021-05-21_16h57.03.891,Simcolourproject_2stim_asymm_v5,2020.2.10,Win32,60,60a5f9bf14d0aa2821c4bb84,,,,,2261,49,-99,1,0,0,response3disk,,4,-10,9,1,0,0,rectangle,-10,9,1,0,0,0,"[187,203,155,201,96,150,274,97,307,184,144,25,297,275,87,155,301,227,44,78]",-10,9,1,0,0,0,37,37,86,1,,,
,,,,,,,,,,,,,FF,,,,,,,,1.100715,,,,,,,,,,,,,,,,,,,,,,,5f00d65cb69f9e20f144e404,60a7d7fc9a1f1edadd4bdff4,2021-05-21_16h57.03.891,Simcolourproject_2stim_asymm_v5,2020.2.10,Win32,60,60a5f9bf14d0aa2821c4bb84,,,,,3624,-70,-102,1,0,0,response5disk,,3,-7,14,1,0,0,rectangle,-7,14,1,0,0,7,"[187,203,155,201,96,150,274,97,307,184,144,25,297,275,87,155,301,227,44,78]",-7,14,1,0,0,0,38,38,41,1,,,
,,,,,,,,,,,,,FF,,,,,,,,0.98459,,,,,,,,,,,,,,,,,,,,,,,5f00d65cb69f9e20f144e404,60a7d7fc9a1f1edadd4bdff4,2021-05-21_16h57.03.891,Simcolourproject_2stim_asymm_v5,2020.2.10,Win32,60,60a5f9bf14d0aa2821c4bb84,,,,,1587,-48,-117,1,0,0,response5disk,,3,1,8,1,0,0,rectangle,1,8,1,0,0,1,"[187,203,155,201,96,150,274,97,307,184,144,25,297,275,87,155,301,227,44,78]",1,8,1,0,0,0,39,39,78,1,,,
,,,,,,,,,,,,,FF,,,,,,,,1.284075,,,,,,,,,,,,,,,,,,,,,,,5f00d65cb69f9e20f144e404,60a7d7fc9a1f1edadd4bdff4,2021-05-21_16h57.03.891,Simcolourproject_2stim_asymm_v5,2020.2.10,Win32,60,60a5f9bf14d0aa2821c4bb84,,,,,642,58,-100,1,0,0,response3disk,,4,-9,17,1,0,0,rectangle,-9,17,1,0,0,2,"[187,203,155,201,96,150,274,97,307,184,144,25,297,275,87,155,301,227,44,78]",-9,17,1,0,0,0,40,40,84,1,,,
,,,,,,,,,,,,,FF,,,,,,,,0.933855,,,,,,,,,,,,,,,,,,,,,,,5f00d65cb69f9e20f144e404,60a7d7fc9a1f1edadd4bdff4,2021-05-21_16h57.03.891,Simcolourproject_2stim_asymm_v5,2020.2.10,Win32,60,60a5f9bf14d0aa2821c4bb84,,,,,3044,66,-99,1,0,0,response3disk,,4,-3,18,1,0,0,rectangle,-3,18,1,0,0,0,"[187,203,155,201,96,150,274,97,307,184,144,25,297,275,87,155,301,227,44,78]",-3,18,1,0,0,0,41,41,63,1,,,
,,,,,,,,,,,,,FF,,,,,,,,1.3182,,,,,,,,,,,,,,,,,,,,,,,5f00d65cb69f9e20f144e404,60a7d7fc9a1f1edadd4bdff4,2021-05-21_16h57.03.891,Simcolourproject_2stim_asymm_v5,2020.2.10,Win32,60,60a5f9bf14d0aa2821c4bb84,,,,,2387,53,-91,1,0,0,response3disk,,4,-6,11,1,0,0,rectangle,-6,11,1,0,0,0,"[187,203,155,201,96,150,274,97,307,184,144,25,297,275,87,155,301,227,44,78]",-6,11,1,0,0,0,42,42,156,1,,,
,,,,,,,,,,,,,FF,,,,,,,,1.084025,,,,,,,,,,,,,,,,,,,,,,,5f00d65cb69f9e20f144e404,60a7d7fc9a1f1edadd4bdff4,2021-05-21_16h57.03.891,Simcolourproject_2stim_asymm_v5,2020.2.10,Win32,60,60a5f9bf14d0aa2821c4bb84,,,,,3087,-58,-96,1,0,0,response5disk,,3,6,-1,1,0,0,rectangle,124,65,1,0,0,6,"[187,203,155,201,96,150,274,97,307,184,144,25,297,275,87,155,301,227,44,78]",-6,-1,1,0,0,0,43,43,42,1,,response1disk_3,rectangle
,,,,,,,,,,,,,FF,,,,,,,,4.954775,,,,,,,,,,,,,,,,,,,,,,,5f00d65cb69f9e20f144e404,60a7d7fc9a1f1edadd4bdff4,2021-05-21_16h57.03.891,Simcolourproject_2stim_asymm_v5,2020.2.10,Win32,60,60a5f9bf14d0aa2821c4bb84,,,,,3724,99,-47,1,0,0,response3disk,,5,-6,16,1,0,0,rectangle,-6,16,1,0,0,4,"[187,203,155,201,96,150,274,97,307,184,144,25,297,275,87,155,301,227,44,78]",-6,16,1,0,0,0,44,44,116,1,,,
,,,,,,,,,,,,,FF,,,,,,,,2.03483,,,,,,,,,,,,,,,,,,,,,,,5f00d65cb69f9e20f144e404,60a7d7fc9a1f1edadd4bdff4,2021-05-21_16h57.03.891,Simcolourproject_2stim_asymm_v5,2020.2.10,Win32,60,60a5f9bf14d0aa2821c4bb84,,,,,2683,109,-47,1,0,0,response3disk,,5,22,16,1,0,0,rectangle,22,16,1,0,0,7,"[187,203,155,201,96,150,274,97,307,184,144,25,297,275,87,155,301,227,44,78]",22,16,1,0,0,0,45,45,120,1,,,
,,,,,,,,,,,,,FF,,,,,,,,0.88448,,,,,,,,,,,,,,,,,,,,,,,5f00d65cb69f9e20f144e404,60a7d7fc9a1f1edadd4bdff4,2021-05-21_16h57.03.891,Simcolourproject_2stim_asymm_v5,2020.2.10,Win32,60,60a5f9bf14d0aa2821c4bb84,,,,,2682,101,-46,1,0,0,response3disk,,5,-23,9,1,0,0,rectangle,-23,9,1,0,0,3,"[187,203,155,201,96,150,274,97,307,184,144,25,297,275,87,155,301,227,44,78]",-23,9,1,0,0,0,46,46,48,1,,,
,,,,,,,,,,,,,FF,,,,,,,,1.851525,,,,,,,,,,,,,,,,,,,,,,,5f00d65cb69f9e20f144e404,60a7d7fc9a1f1edadd4bdff4,2021-05-21_16h57.03.891,Simcolourproject_2stim_asymm_v5,2020.2.10,Win32,60,60a5f9bf14d0aa2821c4bb84,,,,,321,-62,-115,1,0,0,response5disk,,3,-7,1,1,0,0,rectangle,-7,1,1,0,0,0,"[187,203,155,201,96,150,274,97,307,184,144,25,297,275,87,155,301,227,44,78]",-7,1,1,0,0,0,47,47,80,1,,,
,,,,,,,,,,,,,FF,,,,,,,,1.61795,,,,,,,,,,,,,,,,,,,,,,,5f00d65cb69f9e20f144e404,60a7d7fc9a1f1edadd4bdff4,2021-05-21_16h57.03.891,Simcolourproject_2stim_asymm_v5,2020.2.10,Win32,60,60a5f9bf14d0aa2821c4bb84,,,,,3890,113,-44,1,0,0,response3disk,,5,1,10,1,0,0,rectangle,1,10,1,0,0,7,"[187,203,155,201,96,150,274,97,307,184,144,25,297,275,87,155,301,227,44,78]",1,10,1,0,0,0,48,48,35,1,,,
,,,,,,,,,,,,,FF,,,,,,,,1.168175,,,,,,,,,,,,,,,,,,,,,,,5f00d65cb69f9e20f144e404,60a7d7fc9a1f1edadd4bdff4,2021-05-21_16h57.03.891,Simcolourproject_2stim_asymm_v5,2020.2.10,Win32,60,60a5f9bf14d0aa2821c4bb84,,,,,3508,-71,-106,1,0,0,response5disk,,3,-12,4,1,0,0,rectangle,-12,4,1,0,0,4,"[187,203,155,201,96,150,274,97,307,184,144,25,297,275,87,155,301,227,44,78]",-12,4,1,0,0,0,49,49,39,1,,,
,,,,,,,,,,,,,FF,,,,,,,,4.00366,,,,,,,,,,,,,,,,,,,,,,,5f00d65cb69f9e20f144e404,60a7d7fc9a1f1edadd4bdff4,2021-05-21_16h57.03.891,Simcolourproject_2stim_asymm_v5,2020.2.10,Win32,60,60a5f9bf14d0aa2821c4bb84,,,,,2910,106,-37,1,0,0,response3disk,,5,-17,7,1,0,0,rectangle,-17,7,1,0,0,7,"[187,203,155,201,96,150,274,97,307,184,144,25,297,275,87,155,301,227,44,78]",-17,7,1,0,0,0,50,50,112,1,,,
,,,,,,,,,,,,,FF,,,,,,,,1.150735,,,,,,,,,,,,,,,,,,,,,,,5f00d65cb69f9e20f144e404,60a7d7fc9a1f1edadd4bdff4,2021-05-21_16h57.03.891,Simcolourproject_2stim_asymm_v5,2020.2.10,Win32,60,60a5f9bf14d0aa2821c4bb84,,,,,1943,95,-48,1,0,0,response3disk,,5,-5,4,1,0,0,rectangle,-5,4,1,0,0,5,"[187,203,155,201,96,150,274,97,307,184,144,25,297,275,87,155,301,227,44,78]",-5,4,1,0,0,0,51,51,73,1,,,
,,,,,,,,,,,,,FF,,,,,,,,1.835285,,,,,,,,,,,,,,,,,,,,,,,5f00d65cb69f9e20f144e404,60a7d7fc9a1f1edadd4bdff4,2021-05-21_16h57.03.891,Simcolourproject_2stim_asymm_v5,2020.2.10,Win32,60,60a5f9bf14d0aa2821c4bb84,,,,,2470,-55,-123,1,0,0,response5disk,,3,-13,-20,1,0,0,rectangle,-13,-20,1,0,0,0,"[187,203,155,201,96,150,274,97,307,184,144,25,297,275,87,155,301,227,44,78]",-13,-20,1,0,0,0,52,52,15,1,,,
,,,,,,,,,,,,,FF,,,,,,,,1.13395,,,,,,,,,,,,,,,,,,,,,,,5f00d65cb69f9e20f144e404,60a7d7fc9a1f1edadd4bdff4,2021-05-21_16h57.03.891,Simcolourproject_2stim_asymm_v5,2020.2.10,Win32,60,60a5f9bf14d0aa2821c4bb84,,,,,3440,-84,57,1,0,0,response7disk,,1,6,2,1,0,0,rectangle,6,2,1,0,0,0,"[187,203,155,201,96,150,274,97,307,184,144,25,297,275,87,155,301,227,44,78]",6,2,1,0,0,0,53,53,12,1,,,
,,,,,,,,,,,,,FF,,,,,,,,0.967305,,,,,,,,,,,,,,,,,,,,,,,5f00d65cb69f9e20f144e404,60a7d7fc9a1f1edadd4bdff4,2021-05-21_16h57.03.891,Simcolourproject_2stim_asymm_v5,2020.2.10,Win32,60,60a5f9bf14d0aa2821c4bb84,,,,,2915,65,-122,1,0,0,response3disk,,4,-7,-1,1,0,0,rectangle,-7,-1,1,0,0,1,"[187,203,155,201,96,150,274,97,307,184,144,25,297,275,87,155,301,227,44,78]",-7,-1,1,0,0,0,54,54,40,1,,,
,,,,,,,,,,,,,FF,,,,,,,,1.58456,,,,,,,,,,,,,,,,,,,,,,,5f00d65cb69f9e20f144e404,60a7d7fc9a1f1edadd4bdff4,2021-05-21_16h57.03.891,Simcolourproject_2stim_asymm_v5,2020.2.10,Win32,60,60a5f9bf14d0aa2821c4bb84,,,,,1323,-55,-114,1,0,0,response5disk,,3,-7,13,1,0,0,rectangle,-7,13,1,0,0,0,"[187,203,155,201,96,150,274,97,307,184,144,25,297,275,87,155,301,227,44,78]",-7,13,1,0,0,0,55,55,52,1,,,
,,,,,,,,,,,,,FF,,,,,,,,0.918245,,,,,,,,,,,,,,,,,,,,,,,5f00d65cb69f9e20f144e404,60a7d7fc9a1f1edadd4bdff4,2021-05-21_16h57.03.891,Simcolourproject_2stim_asymm_v5,2020.2.10,Win32,60,60a5f9bf14d0aa2821c4bb84,,,,,2817,63,-140,1,0,0,response3disk,,4,-10,12,1,0,0,rectangle,-10,12,1,0,0,6,"[187,203,155,201,96,150,274,97,307,184,144,25,297,275,87,155,301,227,44,78]",-10,12,1,0,0,0,56,56,43,1,,,
,,,,,,,,,,,,,FF,,,,,,,,0.68417,,,,,,,,,,,,,,,,,,,,,,,5f00d65cb69f9e20f144e404,60a7d7fc9a1f1edadd4bdff4,2021-05-21_16h57.03.891,Simcolourproject_2stim_asymm_v5,2020.2.10,Win32,60,60a5f9bf14d0aa2821c4bb84,,,,,2000,63,-112,1,0,0,response3disk,,4,-10,-2,1,0,0,rectangle,-10,-2,1,0,0,2,"[187,203,155,201,96,150,274,97,307,184,144,25,297,275,87,155,301,227,44,78]",-10,-2,1,0,0,0,57,57,33,1,,,
,,,,,,,,,,,,,FF,,,,,,,,1.60118,,,,,,,,,,,,,,,,,,,,,,,5f00d65cb69f9e20f144e404,60a7d7fc9a1f1edadd4bdff4,2021-05-21_16h57.03.891,Simcolourproject_2stim_asymm_v5,2020.2.10,Win32,60,60a5f9bf14d0aa2821c4bb84,,,,,1231,-128,-37,1,0,0,response5disk,,4,-11,1,1,0,0,rectangle,-11,1,1,0,0,5,"[187,203,155,201,96,150,274,97,307,184,144,25,297,275,87,155,301,227,44,78]",-11,1,1,0,0,0,58,58,129,1,,,
,,,,,,,,,,,,,FF,,,,,,,,0.73428,,,,,,,,,,,,,,,,,,,,,,,5f00d65cb69f9e20f144e404,60a7d7fc9a1f1edadd4bdff4,2021-05-21_16h57.03.891,Simcolourproject_2stim_asymm_v5,2020.2.10,Win32,60,60a5f9bf14d0aa2821c4bb84,,,,,145,64,-128,1,0,0,response3disk,,4,-9,10,1,0,0,rectangle,-9,10,1,0,0,2,"[187,203,155,201,96,150,274,97,307,184,144,25,297,275,87,155,301,227,44,78]",-9,10,1,0,0,0,59,59,155,1,,,
,,,,,,,,,,,,,FF,,,,,,,,1.00064,,,,,,,,,,,,,,,,,,,,,,,5f00d65cb69f9e20f144e404,60a7d7fc9a1f1edadd4bdff4,2021-05-21_16h57.03.891,Simcolourproject_2stim_asymm_v5,2020.2.10,Win32,60,60a5f9bf14d0aa2821c4bb84,,,,,2418,-53,135,1,0,0,response7disk,,0,-15,5,1,0,0,rectangle,-15,5,1,0,0,1,"[187,203,155,201,96,150,274,97,307,184,144,25,297,275,87,155,301,227,44,78]",-15,5,1,0,0,0,60,60,37,1,,,
,,,,,,,,,,,,,FF,,,,,,,,0.883715,,,,,,,,,,,,,,,,,,,,,,,5f00d65cb69f9e20f144e404,60a7d7fc9a1f1edadd4bdff4,2021-05-21_16h57.03.891,Simcolourproject_2stim_asymm_v5,2020.2.10,Win32,60,60a5f9bf14d0aa2821c4bb84,,,,,3930,60,-128,1,0,0,response3disk,,4,-19,4,1,0,0,rectangle,-19,4,1,0,0,0,"[187,203,155,201,96,150,274,97,307,184,144,25,297,275,87,155,301,227,44,78]",-19,4,1,0,0,0,61,61,36,1,,,
,,,,,,,,,,,,,FF,,,,,,,,0.75036,,,,,,,,,,,,,,,,,,,,,,,5f00d65cb69f9e20f144e404,60a7d7fc9a1f1edadd4bdff4,2021-05-21_16h57.03.891,Simcolourproject_2stim_asymm_v5,2020.2.10,Win32,60,60a5f9bf14d0aa2821c4bb84,,,,,2740,72,-104,1,0,0,response3disk,,4,-10,13,1,0,0,rectangle,-10,13,1,0,0,5,"[187,203,155,201,96,150,274,97,307,184,144,25,297,275,87,155,301,227,44,78]",-10,13,1,0,0,0,62,62,92,1,,,
,,,,,,,,,,,,,FF,,,,,,,,3.15284,,,,,,,,,,,,,,,,,,,,,,,5f00d65cb69f9e20f144e404,60a7d7fc9a1f1edadd4bdff4,2021-05-21_16h57.03.891,Simcolourproject_2stim_asymm_v5,2020.2.10,Win32,60,60a5f9bf14d0aa2821c4bb84,,,,,2991,74,-108,1,0,0,response3disk,,4,-7,14,1,0,0,rectangle,-7,14,1,0,0,4,"[187,203,155,201,96,150,274,97,307,184,144,25,297,275,87,155,301,227,44,78]",-7,14,1,0,0,0,63,63,62,1,,,
,,,,,,,,,,,,,FF,,,,,,,,1.23414,,,,,,,,,,,,,,,,,,,,,,,5f00d65cb69f9e20f144e404,60a7d7fc9a1f1edadd4bdff4,2021-05-21_16h57.03.891,Simcolourproject_2stim_asymm_v5,2020.2.10,Win32,60,60a5f9bf14d0aa2821c4bb84,,,,,355,-129,96,1,0,0,response7disk,,1,10,9,1,0,0,rectangle,10,9,1,0,0,2,"[187,203,155,201,96,150,274,97,307,184,144,25,297,275,87,155,301,227,44,78]",10,9,1,0,0,0,64,64,95,1,,,
,,,,,,,,,,,,,FF,,,,,,,,1.55091,,,,,,,,,,,,,,,,,,,,,,,5f00d65cb69f9e20f144e404,60a7d7fc9a1f1edadd4bdff4,2021-05-21_16h57.03.891,Simcolourproject_2stim_asymm_v5,2020.2.10,Win32,60,60a5f9bf14d0aa2821c4bb84,,,,,4017,64,-130,1,0,0,response3disk,,4,-7,9,1,0,0,rectangle,-7,9,1,0,0,4,"[187,203,155,201,96,150,274,97,307,184,144,25,297,275,87,155,301,227,44,78]",-7,9,1,0,0,0,65,65,55,1,,,
,,,,,,,,,,,,,FF,,,,,,,,2.15185,,,,,,,,,,,,,,,,,,,,,,,5f00d65cb69f9e20f144e404,60a7d7fc9a1f1edadd4bdff4,2021-05-21_16h57.03.891,Simcolourproject_2stim_asymm_v5,2020.2.10,Win32,60,60a5f9bf14d0aa2821c4bb84,,,,,4048,-56,-110,1,0,0,response5disk,,3,-5,-2,1,0,0,rectangle,-5,-2,1,0,0,0,"[187,203,155,201,96,150,274,97,307,184,144,25,297,275,87,155,301,227,44,78]",-5,-2,1,0,0,0,66,66,56,1,,,
,,,,,,,,,,,,,FF,,,,,,,,2.019495,,,,,,,,,,,,,,,,,,,,,,,5f00d65cb69f9e20f144e404,60a7d7fc9a1f1edadd4bdff4,2021-05-21_16h57.03.891,Simcolourproject_2stim_asymm_v5,2020.2.10,Win32,60,60a5f9bf14d0aa2821c4bb84,,,,,3905,66,-124,1,0,0,response3disk,,4,-9,-3,1,0,0,rectangle,-9,-3,1,0,0,1,"[187,203,155,201,96,150,274,97,307,184,144,25,297,275,87,155,301,227,44,78]",-9,-3,1,0,0,0,67,67,150,1,,,
,,,,,,,,,,,,,FF,,,,,,,,1.434485,,,,,,,,,,,,,,,,,,,,,,,5f00d65cb69f9e20f144e404,60a7d7fc9a1f1edadd4bdff4,2021-05-21_16h57.03.891,Simcolourproject_2stim_asymm_v5,2020.2.10,Win32,60,60a5f9bf14d0aa2821c4bb84,,,,,273,62,-113,1,0,0,response3disk,,4,-14,7,1,0,0,rectangle,-14,7,1,0,0,2,"[187,203,155,201,96,150,274,97,307,184,144,25,297,275,87,155,301,227,44,78]",-14,7,1,0,0,0,68,68,3,1,,,
,,,,,,,,,,,,,FF,,,,,,,,1.01709,,,,,,,,,,,,,,,,,,,,,,,5f00d65cb69f9e20f144e404,60a7d7fc9a1f1edadd4bdff4,2021-05-21_16h57.03.891,Simcolourproject_2stim_asymm_v5,2020.2.10,Win32,60,60a5f9bf14d0aa2821c4bb84,,,,,4268,-132,-49,1,0,0,response5disk,,4,-10,5,1,0,0,rectangle,-10,5,1,0,0,7,"[187,203,155,201,96,150,274,97,307,184,144,25,297,275,87,155,301,227,44,78]",-10,5,1,0,0,0,69,69,111,1,,,
,,,,,,,,,,,,,FF,,,,,,,,1.45113,,,,,,,,,,,,,,,,,,,,,,,5f00d65cb69f9e20f144e404,60a7d7fc9a1f1edadd4bdff4,2021-05-21_16h57.03.891,Simcolourproject_2stim_asymm_v5,2020.2.10,Win32,60,60a5f9bf14d0aa2821c4bb84,,,,,2628,-66,-106,1,0,0,response5disk,,3,-6,9,1,0,0,rectangle,-6,9,1,0,0,4,"[187,203,155,201,96,150,274,97,307,184,144,25,297,275,87,155,301,227,44,78]",-6,9,1,0,0,0,70,70,54,1,,,
,,,,,,,,,,,,,FF,,,,,,,,0.81694,,,,,,,,,,,,,,,,,,,,,,,5f00d65cb69f9e20f144e404,60a7d7fc9a1f1edadd4bdff4,2021-05-21_16h57.03.891,Simcolourproject_2stim_asymm_v5,2020.2.10,Win32,60,60a5f9bf14d0aa2821c4bb84,,,,,1638,-47,-104,1,0,0,response5disk,,3,1,6,1,0,0,rectangle,1,6,1,0,0,1,"[187,203,155,201,96,150,274,97,307,184,144,25,297,275,87,155,301,227,44,78]",1,6,1,0,0,0,71,71,94,1,,,
,,,,,,,,,,,,,FF,,,,,,,,1.21751,,,,,,,,,,,,,,,,,,,,,,,5f00d65cb69f9e20f144e404,60a7d7fc9a1f1edadd4bdff4,2021-05-21_16h57.03.891,Simcolourproject_2stim_asymm_v5,2020.2.10,Win32,60,60a5f9bf14d0aa2821c4bb84,,,,,1622,50,-101,1,0,0,response3disk,,4,-10,17,1,0,0,rectangle,-10,17,1,0,0,5,"[187,203,155,201,96,150,274,97,307,184,144,25,297,275,87,155,301,227,44,78]",-10,17,1,0,0,0,72,72,132,1,,,
,,,,,,,,,,,,,FF,,,,,,,,1.050665,,,,,,,,,,,,,,,,,,,,,,,5f00d65cb69f9e20f144e404,60a7d7fc9a1f1edadd4bdff4,2021-05-21_16h57.03.891,Simcolourproject_2stim_asymm_v5,2020.2.10,Win32,60,60a5f9bf14d0aa2821c4bb84,,,,,2171,-132,-49,1,0,0,response5disk,,4,-19,1,1,0,0,rectangle,-19,1,1,0,0,4,"[187,203,155,201,96,150,274,97,307,184,144,25,297,275,87,155,301,227,44,78]",-19,1,1,0,0,0,73,73,114,1,,,
,,,,,,,,,,,,,FF,,,,,,,,3.436435,,,,,,,,,,,,,,,,,,,,,,,5f00d65cb69f9e20f144e404,60a7d7fc9a1f1edadd4bdff4,2021-05-21_16h57.03.891,Simcolourproject_2stim_asymm_v5,2020.2.10,Win32,60,60a5f9bf14d0aa2821c4bb84,,,,,481,100,-40,1,0,0,response3disk,,5,-14,3,1,0,0,rectangle,-14,3,1,0,0,3,"[187,203,155,201,96,150,274,97,307,184,144,25,297,275,87,155,301,227,44,78]",-14,3,1,0,0,0,74,74,104,1,,,
,,,,,,,,,,,,,FF,,,,,,,,1.400885,,,,,,,,,,,,,,,,,,,,,,,5f00d65cb69f9e20f144e404,60a7d7fc9a1f1edadd4bdff4,2021-05-21_16h57.03.891,Simcolourproject_2stim_asymm_v5,2020.2.10,Win32,60,60a5f9bf14d0aa2821c4bb84,,,,,55,60,130,1,0,0,response1disk,,7,0,-2,1,0,0,rectangle,0,-2,1,0,0,4,"[187,203,155,201,96,150,274,97,307,184,144,25,297,275,87,155,301,227,44,78]",0,-2,1,0,0,0,75,75,118,1,,,
,,,,,,,,,,,,,FF,,,,,,,,1.3008,,,,,,,,,,,,,,,,,,,,,,,5f00d65cb69f9e20f144e404,60a7d7fc9a1f1edadd4bdff4,2021-05-21_16h57.03.891,Simcolourproject_2stim_asymm_v5,2020.2.10,Win32,60,60a5f9bf14d0aa2821c4bb84,,,,,2368,-124,-52,1,0,0,response5disk,,7,-11,6,1,0,0,rectangle,-11,6,1,0,0,6,"[187,203,155,201,96,150,274,97,307,184,144,25,297,275,87,155,301,227,44,78]",-11,6,1,0,0,0,76,76,88,1,,,
,,,,,,,,,,,,,FF,,,,,,,,1.017345,,,,,,,,,,,,,,,,,,,,,,,5f00d65cb69f9e20f144e404,60a7d7fc9a1f1edadd4bdff4,2021-05-21_16h57.03.891,Simcolourproject_2stim_asymm_v5,2020.2.10,Win32,60,60a5f9bf14d0aa2821c4bb84,,,,,1471,67,-120,1,0,0,response3disk,,4,-7,5,1,0,0,rectangle,65,-110,1,0,0,4,"[187,203,155,201,96,150,274,97,307,184,144,25,297,275,87,155,301,227,44,78]",-8,7,1,0,0,0,77,77,64,1,,response3disk_3,rectangle
,,,,,,,,,,,,,FF,,,,,,,,3.40313,,,,,,,,,,,,,,,,,,,,,,,5f00d65cb69f9e20f144e404,60a7d7fc9a1f1edadd4bdff4,2021-05-21_16h57.03.891,Simcolourproject_2stim_asymm_v5,2020.2.10,Win32,60,60a5f9bf14d0aa2821c4bb84,,,,,1277,139,75,1,0,0,response1disk,,6,-9,4,1,0,0,rectangle,-9,4,1,0,0,7,"[187,203,155,201,96,150,274,97,307,184,144,25,297,275,87,155,301,227,44,78]",-9,4,1,0,0,0,78,78,103,1,,,
,,,,,,,,,,,,,FF,,,,,,,,1.65108,,,,,,,,,,,,,,,,,,,,,,,5f00d65cb69f9e20f144e404,60a7d7fc9a1f1edadd4bdff4,2021-05-21_16h57.03.891,Simcolourproject_2stim_asymm_v5,2020.2.10,Win32,60,60a5f9bf14d0aa2821c4bb84,,,,,1324,48,-115,1,0,0,response3disk,,4,-17,10,1,0,0,rectangle,-17,10,1,0,0,3,"[187,203,155,201,96,150,274,97,307,184,144,25,297,275,87,155,301,227,44,78]",-17,10,1,0,0,0,79,79,137,1,,,
,,,,,,,,,,,,,FF,,,,,,,,0.917125,,,,,,,,,,,,,,,,,,,,,,,5f00d65cb69f9e20f144e404,60a7d7fc9a1f1edadd4bdff4,2021-05-21_16h57.03.891,Simcolourproject_2stim_asymm_v5,2020.2.10,Win32,60,60a5f9bf14d0aa2821c4bb84,,,,,3449,61,-109,1,0,0,response3disk,,4,-22,15,1,0,0,rectangle,-22,15,1,0,0,3,"[187,203,155,201,96,150,274,97,307,184,144,25,297,275,87,155,301,227,44,78]",-22,15,1,0,0,0,80,80,127,1,,,
,,,,,,,,,,,,,FF,,,,,,,,1.3176,,,,,,,,,,,,,,,,,,,,,,,5f00d65cb69f9e20f144e404,60a7d7fc9a1f1edadd4bdff4,2021-05-21_16h57.03.891,Simcolourproject_2stim_asymm_v5,2020.2.10,Win32,60,60a5f9bf14d0aa2821c4bb84,,,,,2177,126,-42,1,0,0,response3disk,,5,15,6,1,0,0,rectangle,15,6,1,0,0,4,"[187,203,155,201,96,150,274,97,307,184,144,25,297,275,87,155,301,227,44,78]",15,6,1,0,0,0,81,81,6,1,,,
,,,,,,,,,,,,,FF,,,,,,,,1.03393,,,,,,,,,,,,,,,,,,,,,,,5f00d65cb69f9e20f144e404,60a7d7fc9a1f1edadd4bdff4,2021-05-21_16h57.03.891,Simcolourproject_2stim_asymm_v5,2020.2.10,Win32,60,60a5f9bf14d0aa2821c4bb84,,,,,1371,-113,-48,1,0,0,response5disk,,5,11,0,1,0,0,rectangle,11,0,1,0,0,0,"[187,203,155,201,96,150,274,97,307,184,144,25,297,275,87,155,301,227,44,78]",11,0,1,0,0,0,82,82,82,1,,,
,,,,,,,,,,,,,FF,,,,,,,,1.500905,,,,,,,,,,,,,,,,,,,,,,,5f00d65cb69f9e20f144e404,60a7d7fc9a1f1edadd4bdff4,2021-05-21_16h57.03.891,Simcolourproject_2stim_asymm_v5,2020.2.10,Win32,60,60a5f9bf14d0aa2821c4bb84,,,,,2113,65,-113,1,0,0,response3disk,,4,-8,17,1,0,0,rectangle,-8,17,1,0,0,2,"[187,203,155,201,96,150,274,97,307,184,144,25,297,275,87,155,301,227,44,78]",-8,17,1,0,0,0,83,83,68,1,,,
,,,,,,,,,,,,,FF,,,,,,,,0.817635,,,,,,,,,,,,,,,,,,,,,,,5f00d65cb69f9e20f144e404,60a7d7fc9a1f1edadd4bdff4,2021-05-21_16h57.03.891,Simcolourproject_2stim_asymm_v5,2020.2.10,Win32,60,60a5f9bf14d0aa2821c4bb84,,,,,3874,52,-103,1,0,0,response3disk,,4,-8,3,1,0,0,rectangle,-8,3,1,0,0,5,"[187,203,155,201,96,150,274,97,307,184,144,25,297,275,87,155,301,227,44,78]",-8,3,1,0,0,0,84,84,65,1,,,
,,,,,,,,,,,,,FF,,,,,,,,1.501785,,,,,,,,,,,,,,,,,,,,,,,5f00d65cb69f9e20f144e404,60a7d7fc9a1f1edadd4bdff4,2021-05-21_16h57.03.891,Simcolourproject_2stim_asymm_v5,2020.2.10,Win32,60,60a5f9bf14d0aa2821c4bb84,,,,,1158,-71,-106,1,0,0,response5disk,,3,-3,5,1,0,0,rectangle,-3,5,1,0,0,7,"[187,203,155,201,96,150,274,97,307,184,144,25,297,275,87,155,301,227,44,78]",-3,5,1,0,0,0,85,85,61,1,,,
,,,,,,,,,,,,,FF,,,,,,,,1.784635,,,,,,,,,,,,,,,,,,,,,,,5f00d65cb69f9e20f144e404,60a7d7fc9a1f1edadd4bdff4,2021-05-21_16h57.03.891,Simcolourproject_2stim_asymm_v5,2020.2.10,Win32,60,60a5f9bf14d0aa2821c4bb84,,,,,2337,59,125,1,0,0,response1disk,,7,-3,0,1,0,0,rectangle,54,-119,1,0,0,4,"[187,203,155,201,96,150,274,97,307,184,144,25,297,275,87,155,301,227,44,78]",-9,7,1,0,0,0,86,86,57,1,,response3disk_3,rectangle
,,,,,,,,,,,,,FF,,,,,,,,1.01792,,,,,,,,,,,,,,,,,,,,,,,5f00d65cb69f9e20f144e404,60a7d7fc9a1f1edadd4bdff4,2021-05-21_16h57.03.891,Simcolourproject_2stim_asymm_v5,2020.2.10,Win32,60,60a5f9bf14d0aa2821c4bb84,,,,,2549,-67,-120,1,0,0,response5disk,,3,-5,9,1,0,0,rectangle,-5,9,1,0,0,3,"[187,203,155,201,96,150,274,97,307,184,144,25,297,275,87,155,301,227,44,78]",-5,9,1,0,0,0,87,87,144,1,,,
,,,,,,,,,,,,,FF,,,,,,,,1.05065,,,,,,,,,,,,,,,,,,,,,,,5f00d65cb69f9e20f144e404,60a7d7fc9a1f1edadd4bdff4,2021-05-21_16h57.03.891,Simcolourproject_2stim_asymm_v5,2020.2.10,Win32,60,60a5f9bf14d0aa2821c4bb84,,,,,1350,45,-127,1,0,0,response3disk,,4,-10,13,1,0,0,rectangle,-10,13,1,0,0,5,"[187,203,155,201,96,150,274,97,307,184,144,25,297,275,87,155,301,227,44,78]",-10,13,1,0,0,0,88,88,100,1,,,
,,,,,,,,,,,,,FF,,,,,,,,0.983905,,,,,,,,,,,,,,,,,,,,,,,5f00d65cb69f9e20f144e404,60a7d7fc9a1f1edadd4bdff4,2021-05-21_16h57.03.891,Simcolourproject_2stim_asymm_v5,2020.2.10,Win32,60,60a5f9bf14d0aa2821c4bb84,,,,,201,-64,-97,1,0,0,response5disk,,3,-2,1,1,0,0,rectangle,-2,1,1,0,0,1,"[187,203,155,201,96,150,274,97,307,184,144,25,297,275,87,155,301,227,44,78]",-2,1,1,0,0,0,89,89,90,1,,,
,,,,,,,,,,,,,FF,,,,,,,,0.717545,,,,,,,,,,,,,,,,,,,,,,,5f00d65cb69f9e20f144e404,60a7d7fc9a1f1edadd4bdff4,2021-05-21_16h57.03.891,Simcolourproject_2stim_asymm_v5,2020.2.10,Win32,60,60a5f9bf14d0aa2821c4bb84,,,,,1575,-54,-114,1,0,0,response5disk,,3,1,15,1,0,0,rectangle,1,15,1,0,0,4,"[187,203,155,201,96,150,274,97,307,184,144,25,297,275,87,155,301,227,44,78]",1,15,1,0,0,0,90,90,46,1,,,
,,,,,,,,,,,,,FF,,,,,,,,1.884785,,,,,,,,,,,,,,,,,,,,,,,5f00d65cb69f9e20f144e404,60a7d7fc9a1f1edadd4bdff4,2021-05-21_16h57.03.891,Simcolourproject_2stim_asymm_v5,2020.2.10,Win32,60,60a5f9bf14d0aa2821c4bb84,,,,,1172,86,-51,1,0,0,response3disk,,5,0,1,1,0,0,rectangle,0,1,1,0,0,6,"[187,203,155,201,96,150,274,97,307,184,144,25,297,275,87,155,301,227,44,78]",0,1,1,0,0,0,91,91,121,1,,,
,,,,,,,,,,,,,FF,,,,,,,,0.683695,,,,,,,,,,,,,,,,,,,,,,,5f00d65cb69f9e20f144e404,60a7d7fc9a1f1edadd4bdff4,2021-05-21_16h57.03.891,Simcolourproject_2stim_asymm_v5,2020.2.10,Win32,60,60a5f9bf14d0aa2821c4bb84,,,,,2972,93,-47,1,0,0,response3disk,,5,-7,10,1,0,0,rectangle,-7,10,1,0,0,7,"[187,203,155,201,96,150,274,97,307,184,144,25,297,275,87,155,301,227,44,78]",-7,10,1,0,0,0,92,92,146,1,,,
,,,,,,,,,,,,,FF,,,,,,,,1.000655,,,,,,,,,,,,,,,,,,,,,,,5f00d65cb69f9e20f144e404,60a7d7fc9a1f1edadd4bdff4,2021-05-21_16h57.03.891,Simcolourproject_2stim_asymm_v5,2020.2.10,Win32,60,60a5f9bf14d0aa2821c4bb84,,,,,1342,109,-49,1,0,0,response3disk,,5,-1,2,1,0,0,rectangle,-1,2,1,0,0,0,"[187,203,155,201,96,150,274,97,307,184,144,25,297,275,87,155,301,227,44,78]",-1,2,1,0,0,0,93,93,130,1,,,
,,,,,,,,,,,,,FF,,,,,,,,1.20071,,,,,,,,,,,,,,,,,,,,,,,5f00d65cb69f9e20f144e404,60a7d7fc9a1f1edadd4bdff4,2021-05-21_16h57.03.891,Simcolourproject_2stim_asymm_v5,2020.2.10,Win32,60,60a5f9bf14d0aa2821c4bb84,,,,,2098,-64,138,1,0,0,response7disk,,0,1,7,1,0,0,rectangle,1,7,1,0,0,7,"[187,203,155,201,96,150,274,97,307,184,144,25,297,275,87,155,301,227,44,78]",1,7,1,0,0,0,94,94,93,1,,,
,,,,,,,,,,,,,FF,,,,,,,,1.367655,,,,,,,,,,,,,,,,,,,,,,,5f00d65cb69f9e20f144e404,60a7d7fc9a1f1edadd4bdff4,2021-05-21_16h57.03.891,Simcolourproject_2stim_asymm_v5,2020.2.10,Win32,60,60a5f9bf14d0aa2821c4bb84,,,,,1135,-141,51,1,0,0,response7disk,,1,16,7,1,0,0,rectangle,58,-119,1,0,0,4,"[187,203,155,201,96,150,274,97,307,184,144,25,297,275,87,155,301,227,44,78]",-10,12,1,0,0,0,95,95,158,1,,response3disk_3,rectangle
,,,,,,,,,,,,,FF,,,,,,,,2.986335,,,,,,,,,,,,,,,,,,,,,,,5f00d65cb69f9e20f144e404,60a7d7fc9a1f1edadd4bdff4,2021-05-21_16h57.03.891,Simcolourproject_2stim_asymm_v5,2020.2.10,Win32,60,60a5f9bf14d0aa2821c4bb84,,,,,1937,114,48,1,0,0,response1disk,,6,-14,6,1,0,0,rectangle,62,-128,1,0,0,4,"[187,203,155,201,96,150,274,97,307,184,144,25,297,275,87,155,301,227,44,78]",-8,11,1,0,0,0,96,96,71,1,,response3disk_3,rectangle
,,,,,,,,,,,,,FF,,,,,,,,3.152715,,,,,,,,,,,,,,,,,,,,,,,5f00d65cb69f9e20f144e404,60a7d7fc9a1f1edadd4bdff4,2021-05-21_16h57.03.891,Simcolourproject_2stim_asymm_v5,2020.2.10,Win32,60,60a5f9bf14d0aa2821c4bb84,,,,,3771,123,-38,1,0,0,response3disk,,5,-20,18,1,0,0,rectangle,-20,18,1,0,0,3,"[187,203,155,201,96,150,274,97,307,184,144,25,297,275,87,155,301,227,44,78]",-20,18,1,0,0,0,97,97,149,1,,,
,,,,,,,,,,,,,FF,,,,,,,,1.818615,,,,,,,,,,,,,,,,,,,,,,,5f00d65cb69f9e20f144e404,60a7d7fc9a1f1edadd4bdff4,2021-05-21_16h57.03.891,Simcolourproject_2stim_asymm_v5,2020.2.10,Win32,60,60a5f9bf14d0aa2821c4bb84,,,,,4209,69,120,1,0,0,response1disk,,7,3,-10,1,0,0,rectangle,3,-10,1,0,0,1,"[187,203,155,201,96,150,274,97,307,184,144,25,297,275,87,155,301,227,44,78]",3,-10,1,0,0,0,98,98,75,1,,,
,,,,,,,,,,,,,FF,,,,,,,,1.48425,,,,,,,,,,,,,,,,,,,,,,,5f00d65cb69f9e20f144e404,60a7d7fc9a1f1edadd4bdff4,2021-05-21_16h57.03.891,Simcolourproject_2stim_asymm_v5,2020.2.10,Win32,60,60a5f9bf14d0aa2821c4bb84,,,,,1265,58,-118,1,0,0,response3disk,,4,5,-1,1,0,0,rectangle,5,-1,1,0,0,1,"[187,203,155,201,96,150,274,97,307,184,144,25,297,275,87,155,301,227,44,78]",5,-1,1,0,0,0,99,99,136,1,,,
,,,,,,,,,,,,,FF,,,,,,,,3.353655,,,,,,,,,,,,,,,,,,,,,,,5f00d65cb69f9e20f144e404,60a7d7fc9a1f1edadd4bdff4,2021-05-21_16h57.03.891,Simcolourproject_2stim_asymm_v5,2020.2.10,Win32,60,60a5f9bf14d0aa2821c4bb84,,,,,3213,99,-55,1,0,0,response3disk,,5,16,1,1,0,0,rectangle,16,1,1,0,0,2,"[187,203,155,201,96,150,274,97,307,184,144,25,297,275,87,155,301,227,44,78]",16,1,1,0,0,0,100,100,153,1,,,
,,,,,,,,,,,,,FF,,,,,,,,0.667505,,,,,,,,,,,,,,,,,,,,,,,5f00d65cb69f9e20f144e404,60a7d7fc9a1f1edadd4bdff4,2021-05-21_16h57.03.891,Simcolourproject_2stim_asymm_v5,2020.2.10,Win32,60,60a5f9bf14d0aa2821c4bb84,,,,,1802,107,-52,1,0,0,response3disk,,5,-8,3,1,0,0,rectangle,-8,3,1,0,0,3,"[187,203,155,201,96,150,274,97,307,184,144,25,297,275,87,155,301,227,44,78]",-8,3,1,0,0,0,101,101,117,1,,,
,,,,,,,,,,,,,FF,,,,,,,,1.25084,,,,,,,,,,,,,,,,,,,,,,,5f00d65cb69f9e20f144e404,60a7d7fc9a1f1edadd4bdff4,2021-05-21_16h57.03.891,Simcolourproject_2stim_asymm_v5,2020.2.10,Win32,60,60a5f9bf14d0aa2821c4bb84,,,,,2252,-74,-109,1,0,0,response5disk,,3,-2,2,1,0,0,rectangle,-2,2,1,0,0,2,"[187,203,155,201,96,150,274,97,307,184,144,25,297,275,87,155,301,227,44,78]",-2,2,1,0,0,0,102,102,45,1,,,
,,,,,,,,,,,,,FF,,,,,,,,1.4677,,,,,,,,,,,,,,,,,,,,,,,5f00d65cb69f9e20f144e404,60a7d7fc9a1f1edadd4bdff4,2021-05-21_16h57.03.891,Simcolourproject_2stim_asymm_v5,2020.2.10,Win32,60,60a5f9bf14d0aa2821c4bb84,,,,,1443,58,-115,1,0,0,response3disk,,4,-3,12,1,0,0,rectangle,-3,12,1,0,0,5,"[187,203,155,201,96,150,274,97,307,184,144,25,297,275,87,155,301,227,44,78]",-3,12,1,0,0,0,103,103,59,1,,,
,,,,,,,,,,,,,FF,,,,,,,,1.18465,,,,,,,,,,,,,,,,,,,,,,,5f00d65cb69f9e20f144e404,60a7d7fc9a1f1edadd4bdff4,2021-05-21_16h57.03.891,Simcolourproject_2stim_asymm_v5,2020.2.10,Win32,60,60a5f9bf14d0aa2821c4bb84,,,,,656,129,74,1,0,0,response1disk,,6,12,5,1,0,0,rectangle,12,5,1,0,0,2,"[187,203,155,201,96,150,274,97,307,184,144,25,297,275,87,155,301,227,44,78]",12,5,1,0,0,0,104,104,17,1,,,
,,,,,,,,,,,,,FF,,,,,,,,1.61855,,,,,,,,,,,,,,,,,,,,,,,5f00d65cb69f9e20f144e404,60a7d7fc9a1f1edadd4bdff4,2021-05-21_16h57.03.891,Simcolourproject_2stim_asymm_v5,2020.2.10,Win32,60,60a5f9bf14d0aa2821c4bb84,,,,,2911,106,54,1,0,0,response1disk,,6,-15,4,1,0,0,rectangle,-15,4,1,0,0,3,"[187,203,155,201,96,150,274,97,307,184,144,25,297,275,87,155,301,227,44,78]",-15,4,1,0,0,0,105,105,51,1,,,
,,,,,,,,,,,,,FF,,,,,,,,1.067365,,,,,,,,,,,,,,,,,,,,,,,5f00d65cb69f9e20f144e404,60a7d7fc9a1f1edadd4bdff4,2021-05-21_16h57.03.891,Simcolourproject_2stim_asymm_v5,2020.2.10,Win32,60,60a5f9bf14d0aa2821c4bb84,,,,,2994,-114,-42,1,0,0,response5disk,,6,3,5,1,0,0,rectangle,3,5,1,0,0,0,"[187,203,155,201,96,150,274,97,307,184,144,25,297,275,87,155,301,227,44,78]",3,5,1,0,0,0,106,106,159,1,,,
,,,,,,,,,,,,,FF,,,,,,,,1.01731,,,,,,,,,,,,,,,,,,,,,,,5f00d65cb69f9e20f144e404,60a7d7fc9a1f1edadd4bdff4,2021-05-21_16h57.03.891,Simcolourproject_2stim_asymm_v5,2020.2.10,Win32,60,60a5f9bf14d0aa2821c4bb84,,,,,3435,-136,-52,1,0,0,response5disk,,6,-1,0,1,0,0,rectangle,-1,0,1,0,0,0,"[187,203,155,201,96,150,274,97,307,184,144,25,297,275,87,155,301,227,44,78]",-1,0,1,0,0,0,107,107,152,1,,,
,,,,,,,,,,,,,FF,,,,,,,,1.30071,,,,,,,,,,,,,,,,,,,,,,,5f00d65cb69f9e20f144e404,60a7d7fc9a1f1edadd4bdff4,2021-05-21_16h57.03.891,Simcolourproject_2stim_asymm_v5,2020.2.10,Win32,60,60a5f9bf14d0aa2821c4bb84,,,,,3014,-70,-107,1,0,0,response5disk,,3,-18,0,1,0,0,rectangle,-18,0,1,0,0,4,"[187,203,155,201,96,150,274,97,307,184,144,25,297,275,87,155,301,227,44,78]",-18,0,1,0,0,0,108,108,128,1,,,
,,,,,,,,,,,,,FF,,,,,,,,1.551225,,,,,,,,,,,,,,,,,,,,,,,5f00d65cb69f9e20f144e404,60a7d7fc9a1f1edadd4bdff4,2021-05-21_16h57.03.891,Simcolourproject_2stim_asymm_v5,2020.2.10,Win32,60,60a5f9bf14d0aa2821c4bb84,,,,,531,-68,131,1,0,0,response7disk,,0,4,-4,1,0,0,rectangle,4,-4,1,0,0,0,"[187,203,155,201,96,150,274,97,307,184,144,25,297,275,87,155,301,227,44,78]",4,-4,1,0,0,0,109,109,27,1,,,
,,,,,,,,,,,,,FF,,,,,,,,5.205025,,,,,,,,,,,,,,,,,,,,,,,5f00d65cb69f9e20f144e404,60a7d7fc9a1f1edadd4bdff4,2021-05-21_16h57.03.891,Simcolourproject_2stim_asymm_v5,2020.2.10,Win32,60,60a5f9bf14d0aa2821c4bb84,,,,,1666,111,-48,1,0,0,response3disk,,5,2,7,1,0,0,rectangle,2,7,1,0,0,1,"[187,203,155,201,96,150,274,97,307,184,144,25,297,275,87,155,301,227,44,78]",2,7,1,0,0,0,110,110,21,1,,,
,,,,,,,,,,,,,FF,,,,,,,,1.10059,,,,,,,,,,,,,,,,,,,,,,,5f00d65cb69f9e20f144e404,60a7d7fc9a1f1edadd4bdff4,2021-05-21_16h57.03.891,Simcolourproject_2stim_asymm_v5,2020.2.10,Win32,60,60a5f9bf14d0aa2821c4bb84,,,,,3859,98,-68,1,0,0,response3disk,,5,-7,4,1,0,0,rectangle,-7,4,1,0,0,2,"[187,203,155,201,96,150,274,97,307,184,144,25,297,275,87,155,301,227,44,78]",-7,4,1,0,0,0,111,111,140,1,,,
,,,,,,,,,,,,,FF,,,,,,,,1.03401,,,,,,,,,,,,,,,,,,,,,,,5f00d65cb69f9e20f144e404,60a7d7fc9a1f1edadd4bdff4,2021-05-21_16h57.03.891,Simcolourproject_2stim_asymm_v5,2020.2.10,Win32,60,60a5f9bf14d0aa2821c4bb84,,,,,2388,52,-105,1,0,0,response3disk,,4,-4,6,1,0,0,rectangle,-4,6,1,0,0,7,"[187,203,155,201,96,150,274,97,307,184,144,25,297,275,87,155,301,227,44,78]",-4,6,1,0,0,0,112,112,4,1,,,
,,,,,,,,,,,,,FF,,,,,,,,0.917085,,,,,,,,,,,,,,,,,,,,,,,5f00d65cb69f9e20f144e404,60a7d7fc9a1f1edadd4bdff4,2021-05-21_16h57.03.891,Simcolourproject_2stim_asymm_v5,2020.2.10,Win32,60,60a5f9bf14d0aa2821c4bb84,,,,,1447,-63,136,1,0,0,response7disk,,0,-4,8,1,0,0,rectangle,-4,8,1,0,0,3,"[187,203,155,201,96,150,274,97,307,184,144,25,297,275,87,155,301,227,44,78]",-4,8,1,0,0,0,113,113,142,1,,,
,,,,,,,,,,,,,FF,,,,,,,,2.268565,,,,,,,,,,,,,,,,,,,,,,,5f00d65cb69f9e20f144e404,60a7d7fc9a1f1edadd4bdff4,2021-05-21_16h57.03.891,Simcolourproject_2stim_asymm_v5,2020.2.10,Win32,60,60a5f9bf14d0aa2821c4bb84,,,,,3549,55,-126,1,0,0,response3disk,,4,-8,6,1,0,0,rectangle,-8,6,1,0,0,3,"[187,203,155,201,96,150,274,97,307,184,144,25,297,275,87,155,301,227,44,78]",-8,6,1,0,0,0,114,114,89,1,,,
,,,,,,,,,,,,,FF,,,,,,,,0.883615,,,,,,,,,,,,,,,,,,,,,,,5f00d65cb69f9e20f144e404,60a7d7fc9a1f1edadd4bdff4,2021-05-21_16h57.03.891,Simcolourproject_2stim_asymm_v5,2020.2.10,Win32,60,60a5f9bf14d0aa2821c4bb84,,,,,2043,-69,-121,1,0,0,response5disk,,3,-9,7,1,0,0,rectangle,-9,7,1,0,0,7,"[187,203,155,201,96,150,274,97,307,184,144,25,297,275,87,155,301,227,44,78]",-9,7,1,0,0,0,115,115,126,1,,,
,,,,,,,,,,,,,FF,,,,,,,,1.33432,,,,,,,,,,,,,,,,,,,,,,,5f00d65cb69f9e20f144e404,60a7d7fc9a1f1edadd4bdff4,2021-05-21_16h57.03.891,Simcolourproject_2stim_asymm_v5,2020.2.10,Win32,60,60a5f9bf14d0aa2821c4bb84,,,,,286,-56,-124,1,0,0,response5disk,,3,-1,-7,1,0,0,rectangle,-1,-7,1,0,0,0,"[187,203,155,201,96,150,274,97,307,184,144,25,297,275,87,155,301,227,44,78]",-1,-7,1,0,0,0,116,116,11,1,,,
,,,,,,,,,,,,,FF,,,,,,,,1.668275,,,,,,,,,,,,,,,,,,,,,,,5f00d65cb69f9e20f144e404,60a7d7fc9a1f1edadd4bdff4,2021-05-21_16h57.03.891,Simcolourproject_2stim_asymm_v5,2020.2.10,Win32,60,60a5f9bf14d0aa2821c4bb84,,,,,1176,103,86,1,0,0,response1disk,,6,1,2,1,0,0,rectangle,1,2,1,0,0,2,"[187,203,155,201,96,150,274,97,307,184,144,25,297,275,87,155,301,227,44,78]",1,2,1,0,0,0,117,117,44,1,,,
,,,,,,,,,,,,,FF,,,,,,,,0.900575,,,,,,,,,,,,,,,,,,,,,,,5f00d65cb69f9e20f144e404,60a7d7fc9a1f1edadd4bdff4,2021-05-21_16h57.03.891,Simcolourproject_2stim_asymm_v5,2020.2.10,Win32,60,60a5f9bf14d0aa2821c4bb84,,,,,1295,53,-104,1,0,0,response3disk,,4,-10,6,1,0,0,rectangle,-10,6,1,0,0,7,"[187,203,155,201,96,150,274,97,307,184,144,25,297,275,87,155,301,227,44,78]",-10,6,1,0,0,0,118,118,108,1,,,
,,,,,,,,,,,,,FF,,,,,,,,0.91714,,,,,,,,,,,,,,,,,,,,,,,5f00d65cb69f9e20f144e404,60a7d7fc9a1f1edadd4bdff4,2021-05-21_16h57.03.891,Simcolourproject_2stim_asymm_v5,2020.2.10,Win32,60,60a5f9bf14d0aa2821c4bb84,,,,,618,-113,57,1,0,0,response7disk,,1,-5,9,1,0,0,rectangle,-5,9,1,0,0,6,"[187,203,155,201,96,150,274,97,307,184,144,25,297,275,87,155,301,227,44,78]",-5,9,1,0,0,0,119,119,7,1,,,
,,,,,,,,,,,,,FF,,,,,,,,1.28429,,,,,,,,,,,,,,,,,,,,,,,5f00d65cb69f9e20f144e404,60a7d7fc9a1f1edadd4bdff4,2021-05-21_16h57.03.891,Simcolourproject_2stim_asymm_v5,2020.2.10,Win32,60,60a5f9bf14d0aa2821c4bb84,,,,,29,-43,-114,1,0,0,response5disk,,3,8,2,1,0,0,rectangle,8,2,1,0,0,2,"[187,203,155,201,96,150,274,97,307,184,144,25,297,275,87,155,301,227,44,78]",8,2,1,0,0,0,120,120,22,1,,,
,,,,,,,,,,,,,FF,,,,,,,,1.518145,,,,,,,,,,,,,,,,,,,,,,,5f00d65cb69f9e20f144e404,60a7d7fc9a1f1edadd4bdff4,2021-05-21_16h57.03.891,Simcolourproject_2stim_asymm_v5,2020.2.10,Win32,60,60a5f9bf14d0aa2821c4bb84,,,,,4357,-55,-88,1,0,0,response5disk,,3,-17,-2,1,0,0,rectangle,-17,-2,1,0,0,7,"[187,203,155,201,96,150,274,97,307,184,144,25,297,275,87,155,301,227,44,78]",-17,-2,1,0,0,0,121,121,5,1,,,
,,,,,,,,,,,,,FF,,,,,,,,2.535465,,,,,,,,,,,,,,,,,,,,,,,5f00d65cb69f9e20f144e404,60a7d7fc9a1f1edadd4bdff4,2021-05-21_16h57.03.891,Simcolourproject_2stim_asymm_v5,2020.2.10,Win32,60,60a5f9bf14d0aa2821c4bb84,,,,,4023,62,-107,1,0,0,response3disk,,4,5,3,1,0,0,rectangle,5,3,1,0,0,7,"[187,203,155,201,96,150,274,97,307,184,144,25,297,275,87,155,301,227,44,78]",5,3,1,0,0,0,122,122,143,1,,,
,,,,,,,,,,,,,FF,,,,,,,,1.367635,,,,,,,,,,,,,,,,,,,,,,,5f00d65cb69f9e20f144e404,60a7d7fc9a1f1edadd4bdff4,2021-05-21_16h57.03.891,Simcolourproject_2stim_asymm_v5,2020.2.10,Win32,60,60a5f9bf14d0aa2821c4bb84,,,,,1933,106,-25,1,0,0,response3disk,,5,8,15,1,0,0,rectangle,8,15,1,0,0,0,"[187,203,155,201,96,150,274,97,307,184,144,25,297,275,87,155,301,227,44,78]",8,15,1,0,0,0,123,123,110,1,,,
,,,,,,,,,,,,,FF,,,,,,,,0.716995,,,,,,,,,,,,,,,,,,,,,,,5f00d65cb69f9e20f144e404,60a7d7fc9a1f1edadd4bdff4,2021-05-21_16h57.03.891,Simcolourproject_2stim_asymm_v5,2020.2.10,Win32,60,60a5f9bf14d0aa2821c4bb84,,,,,4155,102,-44,1,0,0,response3disk,,5,7,10,1,0,0,rectangle,7,10,1,0,0,1,"[187,203,155,201,96,150,274,97,307,184,144,25,297,275,87,155,301,227,44,78]",7,10,1,0,0,0,124,124,105,1,,,
,,,,,,,,,,,,,FF,,,,,,,,0.95051,,,,,,,,,,,,,,,,,,,,,,,5f00d65cb69f9e20f144e404,60a7d7fc9a1f1edadd4bdff4,2021-05-21_16h57.03.891,Simcolourproject_2stim_asymm_v5,2020.2.10,Win32,60,60a5f9bf14d0aa2821c4bb84,,,,,3200,-136,-38,1,0,0,response5disk,,5,-4,7,1,0,0,rectangle,-4,7,1,0,0,4,"[187,203,155,201,96,150,274,97,307,184,144,25,297,275,87,155,301,227,44,78]",-4,7,1,0,0,0,125,125,8,1,,,
,,,,,,,,,,,,,FF,,,,,,,,1.784645,,,,,,,,,,,,,,,,,,,,,,,5f00d65cb69f9e20f144e404,60a7d7fc9a1f1edadd4bdff4,2021-05-21_16h57.03.891,Simcolourproject_2stim_asymm_v5,2020.2.10,Win32,60,60a5f9bf14d0aa2821c4bb84,,,,,1669,97,46,1,0,0,response1disk,,6,7,-5,1,0,0,rectangle,7,-5,1,0,0,3,"[187,203,155,201,96,150,274,97,307,184,144,25,297,275,87,155,301,227,44,78]",7,-5,1,0,0,0,126,126,124,1,,,
,,,,,,,,,,,,,FF,,,,,,,,1.000445,,,,,,,,,,,,,,,,,,,,,,,5f00d65cb69f9e20f144e404,60a7d7fc9a1f1edadd4bdff4,2021-05-21_16h57.03.891,Simcolourproject_2stim_asymm_v5,2020.2.10,Win32,60,60a5f9bf14d0aa2821c4bb84,,,,,3248,-108,-64,1,0,0,response5disk,,6,-15,-6,1,0,0,rectangle,-15,-6,1,0,0,6,"[187,203,155,201,96,150,274,97,307,184,144,25,297,275,87,155,301,227,44,78]",-15,-6,1,0,0,0,127,127,160,1,,,
,,,,,,,,,,,,,FF,,,,,,,,1.08405,,,,,,,,,,,,,,,,,,,,,,,5f00d65cb69f9e20f144e404,60a7d7fc9a1f1edadd4bdff4,2021-05-21_16h57.03.891,Simcolourproject_2stim_asymm_v5,2020.2.10,Win32,60,60a5f9bf14d0aa2821c4bb84,,,,,342,49,-99,1,0,0,response3disk,,4,2,15,1,0,0,rectangle,2,15,1,0,0,1,"[187,203,155,201,96,150,274,97,307,184,144,25,297,275,87,155,301,227,44,78]",2,15,1,0,0,0,128,128,47,1,,,
,,,,,,,,,,,,,FF,,,,,,,,0.71703,,,,,,,,,,,,,,,,,,,,,,,5f00d65cb69f9e20f144e404,60a7d7fc9a1f1edadd4bdff4,2021-05-21_16h57.03.891,Simcolourproject_2stim_asymm_v5,2020.2.10,Win32,60,60a5f9bf14d0aa2821c4bb84,,,,,857,50,-122,1,0,0,response3disk,,4,0,-6,1,0,0,rectangle,0,-6,1,0,0,6,"[187,203,155,201,96,150,274,97,307,184,144,25,297,275,87,155,301,227,44,78]",0,-6,1,0,0,0,129,129,13,1,,,
,,,,,,,,,,,,,FF,,,,,,,,0.96718,,,,,,,,,,,,,,,,,,,,,,,5f00d65cb69f9e20f144e404,60a7d7fc9a1f1edadd4bdff4,2021-05-21_16h57.03.891,Simcolourproject_2stim_asymm_v5,2020.2.10,Win32,60,60a5f9bf14d0aa2821c4bb84,,,,,2736,-66,-101,1,0,0,response5disk,,3,16,13,1,0,0,rectangle,16,13,1,0,0,6,"[187,203,155,201,96,150,274,97,307,184,144,25,297,275,87,155,301,227,44,78]",16,13,1,0,0,0,130,130,72,1,,,
,,,,,,,,,,,,,FF,,,,,,,,1.11805,,,,,,,,,,,,,,,,,,,,,,,5f00d65cb69f9e20f144e404,60a7d7fc9a1f1edadd4bdff4,2021-05-21_16h57.03.891,Simcolourproject_2stim_asymm_v5,2020.2.10,Win32,60,60a5f9bf14d0aa2821c4bb84,,,,,3862,53,-92,1,0,0,response3disk,,4,-20,20,1,0,0,rectangle,-20,20,1,0,0,2,"[187,203,155,201,96,150,274,97,307,184,144,25,297,275,87,155,301,227,44,78]",-20,20,1,0,0,0,131,131,60,1,,,
,,,,,,,,,,,,,FF,,,,,,,,1.90143,,,,,,,,,,,,,,,,,,,,,,,5f00d65cb69f9e20f144e404,60a7d7fc9a1f1edadd4bdff4,2021-05-21_16h57.03.891,Simcolourproject_2stim_asymm_v5,2020.2.10,Win32,60,60a5f9bf14d0aa2821c4bb84,,,,,798,115,-76,1,0,0,response3disk,,5,-2,7,1,0,0,rectangle,-2,7,1,0,0,4,"[187,203,155,201,96,150,274,97,307,184,144,25,297,275,87,155,301,227,44,78]",-2,7,1,0,0,0,132,132,19,1,,,
,,,,,,,,,,,,,FF,,,,,,,,0.667085,,,,,,,,,,,,,,,,,,,,,,,5f00d65cb69f9e20f144e404,60a7d7fc9a1f1edadd4bdff4,2021-05-21_16h57.03.891,Simcolourproject_2stim_asymm_v5,2020.2.10,Win32,60,60a5f9bf14d0aa2821c4bb84,,,,,3961,97,-39,1,0,0,response3disk,,5,9,2,1,0,0,rectangle,9,2,1,0,0,3,"[187,203,155,201,96,150,274,97,307,184,144,25,297,275,87,155,301,227,44,78]",9,2,1,0,0,0,133,133,151,1,,,
,,,,,,,,,,,,,FF,,,,,,,,1.100475,,,,,,,,,,,,,,,,,,,,,,,5f00d65cb69f9e20f144e404,60a7d7fc9a1f1edadd4bdff4,2021-05-21_16h57.03.891,Simcolourproject_2stim_asymm_v5,2020.2.10,Win32,60,60a5f9bf14d0aa2821c4bb84,,,,,3792,53,109,1,0,0,response1disk,,7,4,7,1,0,0,rectangle,4,7,1,0,0,1,"[187,203,155,201,96,150,274,97,307,184,144,25,297,275,87,155,301,227,44,78]",4,7,1,0,0,0,134,134,141,1,,,
,,,,,,,,,,,,,FF,,,,,,,,1.150555,,,,,,,,,,,,,,,,,,,,,,,5f00d65cb69f9e20f144e404,60a7d7fc9a1f1edadd4bdff4,2021-05-21_16h57.03.891,Simcolourproject_2stim_asymm_v5,2020.2.10,Win32,60,60a5f9bf14d0aa2821c4bb84,,,,,397,120,65,1,0,0,response1disk,,6,-9,4,1,0,0,rectangle,-9,4,1,0,0,2,"[187,203,155,201,96,150,274,97,307,184,144,25,297,275,87,155,301,227,44,78]",-9,4,1,0,0,0,135,135,16,1,,,
,,,,,,,,,,,,,FF,,,,,,,,1.16743,,,,,,,,,,,,,,,,,,,,,,,5f00d65cb69f9e20f144e404,60a7d7fc9a1f1edadd4bdff4,2021-05-21_16h57.03.891,Simcolourproject_2stim_asymm_v5,2020.2.10,Win32,60,60a5f9bf14d0aa2821c4bb84,,,,,3530,105,-46,1,0,0,response3disk,,5,-6,-1,1,0,0,rectangle,-6,-1,1,0,0,7,"[187,203,155,201,96,150,274,97,307,184,144,25,297,275,87,155,301,227,44,78]",-6,-1,1,0,0,0,136,136,101,1,,,
,,,,,,,,,,,,,FF,,,,,,,,1.851465,,,,,,,,,,,,,,,,,,,,,,,5f00d65cb69f9e20f144e404,60a7d7fc9a1f1edadd4bdff4,2021-05-21_16h57.03.891,Simcolourproject_2stim_asymm_v5,2020.2.10,Win32,60,60a5f9bf14d0aa2821c4bb84,,,,,871,64,-114,1,0,0,response3disk,,4,3,1,1,0,0,rectangle,3,1,1,0,0,6,"[187,203,155,201,96,150,274,97,307,184,144,25,297,275,87,155,301,227,44,78]",3,1,1,0,0,0,137,137,154,1,,,
,,,,,,,,,,,,,FF,,,,,,,,0.96706,,,,,,,,,,,,,,,,,,,,,,,5f00d65cb69f9e20f144e404,60a7d7fc9a1f1edadd4bdff4,2021-05-21_16h57.03.891,Simcolourproject_2stim_asymm_v5,2020.2.10,Win32,60,60a5f9bf14d0aa2821c4bb84,,,,,832,47,-115,1,0,0,response3disk,,4,-10,2,1,0,0,rectangle,-10,2,1,0,0,6,"[187,203,155,201,96,150,274,97,307,184,144,25,297,275,87,155,301,227,44,78]",-10,2,1,0,0,0,138,138,147,1,,,
,,,,,,,,,,,,,FF,,,,,,,,1.167385,,,,,,,,,,,,,,,,,,,,,,,5f00d65cb69f9e20f144e404,60a7d7fc9a1f1edadd4bdff4,2021-05-21_16h57.03.891,Simcolourproject_2stim_asymm_v5,2020.2.10,Win32,60,60a5f9bf14d0aa2821c4bb84,,,,,3400,77,-120,1,0,0,response3disk,,4,-2,9,1,0,0,rectangle,-2,9,1,0,0,2,"[187,203,155,201,96,150,274,97,307,184,144,25,297,275,87,155,301,227,44,78]",-2,9,1,0,0,0,139,139,91,1,,,
,,,,,,,,,,,,,FF,,,,,,,,0.91775,,,,,,,,,,,,,,,,,,,,,,,5f00d65cb69f9e20f144e404,60a7d7fc9a1f1edadd4bdff4,2021-05-21_16h57.03.891,Simcolourproject_2stim_asymm_v5,2020.2.10,Win32,60,60a5f9bf14d0aa2821c4bb84,,,,,1103,123,-43,1,0,0,response3disk,,5,-9,0,1,0,0,rectangle,-9,0,1,0,0,7,"[187,203,155,201,96,150,274,97,307,184,144,25,297,275,87,155,301,227,44,78]",-9,0,1,0,0,0,140,140,0,1,,,
,,,,,,,,,,,,,FF,,,,,,,,1.051075,,,,,,,,,,,,,,,,,,,,,,,5f00d65cb69f9e20f144e404,60a7d7fc9a1f1edadd4bdff4,2021-05-21_16h57.03.891,Simcolourproject_2stim_asymm_v5,2020.2.10,Win32,60,60a5f9bf14d0aa2821c4bb84,,,,,2757,52,113,1,0,0,response1disk,,7,-4,12,1,0,0,rectangle,-4,12,1,0,0,6,"[187,203,155,201,96,150,274,97,307,184,144,25,297,275,87,155,301,227,44,78]",-4,12,1,0,0,0,141,141,157,1,,,
,,,,,,,,,,,,,FF,,,,,,,,1.067795,,,,,,,,,,,,,,,,,,,,,,,5f00d65cb69f9e20f144e404,60a7d7fc9a1f1edadd4bdff4,2021-05-21_16h57.03.891,Simcolourproject_2stim_asymm_v5,2020.2.10,Win32,60,60a5f9bf14d0aa2821c4bb84,,,,,898,-132,-47,1,0,0,response5disk,,7,-16,3,1,0,0,rectangle,-16,3,1,0,0,4,"[187,203,155,201,96,150,274,97,307,184,144,25,297,275,87,155,301,227,44,78]",-16,3,1,0,0,0,142,142,28,1,,,
,,,,,,,,,,,,,FF,,,,,,,,1.40182,,,,,,,,,,,,,,,,,,,,,,,5f00d65cb69f9e20f144e404,60a7d7fc9a1f1edadd4bdff4,2021-05-21_16h57.03.891,Simcolourproject_2stim_asymm_v5,2020.2.10,Win32,60,60a5f9bf14d0aa2821c4bb84,,,,,2811,108,67,1,0,0,response1disk,,6,-3,0,1,0,0,rectangle,-71,-116,1,0,0,3,"[187,203,155,201,96,150,274,97,307,184,144,25,297,275,87,155,301,227,44,78]",-9,11,1,0,0,0,143,143,107,1,,response5disk_3,rectangle
,,,,,,,,,,,,,FF,,,,,,,,1.901515,,,,,,,,,,,,,,,,,,,,,,,5f00d65cb69f9e20f144e404,60a7d7fc9a1f1edadd4bdff4,2021-05-21_16h57.03.891,Simcolourproject_2stim_asymm_v5,2020.2.10,Win32,60,60a5f9bf14d0aa2821c4bb84,,,,,2286,111,65,1,0,0,response1disk,,6,12,17,1,0,0,rectangle,12,17,1,0,0,2,"[187,203,155,201,96,150,274,97,307,184,144,25,297,275,87,155,301,227,44,78]",12,17,1,0,0,0,144,144,113,1,,,
,,,,,,,,,,,,,FF,,,,,,,,0.73371,,,,,,,,,,,,,,,,,,,,,,,5f00d65cb69f9e20f144e404,60a7d7fc9a1f1edadd4bdff4,2021-05-21_16h57.03.891,Simcolourproject_2stim_asymm_v5,2020.2.10,Win32,60,60a5f9bf14d0aa2821c4bb84,,,,,1568,106,52,1,0,0,response1disk,,6,0,11,1,0,0,rectangle,0,11,1,0,0,7,"[187,203,155,201,96,150,274,97,307,184,144,25,297,275,87,155,301,227,44,78]",0,11,1,0,0,0,145,145,1,1,,,
,,,,,,,,,,,,,FF,,,,,,,,1.684595,,,,,,,,,,,,,,,,,,,,,,,5f00d65cb69f9e20f144e404,60a7d7fc9a1f1edadd4bdff4,2021-05-21_16h57.03.891,Simcolourproject_2stim_asymm_v5,2020.2.10,Win32,60,60a5f9bf14d0aa2821c4bb84,,,,,304,56,-104,1,0,0,response3disk,,4,-11,4,1,0,0,rectangle,-11,4,1,0,0,0,"[187,203,155,201,96,150,274,97,307,184,144,25,297,275,87,155,301,227,44,78]",-11,4,1,0,0,0,146,146,97,1,,,
,,,,,,,,,,,,,FF,,,,,,,,1.03459,,,,,,,,,,,,,,,,,,,,,,,5f00d65cb69f9e20f144e404,60a7d7fc9a1f1edadd4bdff4,2021-05-21_16h57.03.891,Simcolourproject_2stim_asymm_v5,2020.2.10,Win32,60,60a5f9bf14d0aa2821c4bb84,,,,,2622,-63,-104,1,0,0,response5disk,,3,28,10,1,0,0,rectangle,28,10,1,0,0,6,"[187,203,155,201,96,150,274,97,307,184,144,25,297,275,87,155,301,227,44,78]",28,10,1,0,0,0,147,147,25,1,,,
,,,,,,,,,,,,,FF,,,,,,,,0.85049,,,,,,,,,,,,,,,,,,,,,,,5f00d65cb69f9e20f144e404,60a7d7fc9a1f1edadd4bdff4,2021-05-21_16h57.03.891,Simcolourproject_2stim_asymm_v5,2020.2.10,Win32,60,60a5f9bf14d0aa2821c4bb84,,,,,2411,53,-97,1,0,0,response3disk,,4,-8,1,1,0,0,rectangle,-8,1,1,0,0,0,"[187,203,155,201,96,150,274,97,307,184,144,25,297,275,87,155,301,227,44,78]",-8,1,1,0,0,0,148,148,77,1,,,
,,,,,,,,,,,,,FF,,,,,,,,1.284805,,,,,,,,,,,,,,,,,,,,,,,5f00d65cb69f9e20f144e404,60a7d7fc9a1f1edadd4bdff4,2021-05-21_16h57.03.891,Simcolourproject_2stim_asymm_v5,2020.2.10,Win32,60,60a5f9bf14d0aa2821c4bb84,,,,,2149,114,55,1,0,0,response1disk,,6,-4,-2,1,0,0,rectangle,-69,-129,1,0,0,3,"[187,203,155,201,96,150,274,97,307,184,144,25,297,275,87,155,301,227,44,78]",-2,6,1,0,0,0,149,149,70,1,,response5disk_3,rectangle
,,,,,,,,,,,,,FF,,,,,,,,1.184,,,,,,,,,,,,,,,,,,,,,,,5f00d65cb69f9e20f144e404,60a7d7fc9a1f1edadd4bdff4,2021-05-21_16h57.03.891,Simcolourproject_2stim_asymm_v5,2020.2.10,Win32,60,60a5f9bf14d0aa2821c4bb84,,,,,1818,-114,68,1,0,0,response7disk,,1,16,4,1,0,0,rectangle,16,4,1,0,0,1,"[187,203,155,201,96,150,274,97,307,184,144,25,297,275,87,155,301,227,44,78]",16,4,1,0,0,0,150,150,102,1,,,
,,,,,,,,,,,,,FF,,,,,,,,1.601045,,,,,,,,,,,,,,,,,,,,,,,5f00d65cb69f9e20f144e404,60a7d7fc9a1f1edadd4bdff4,2021-05-21_16h57.03.891,Simcolourproject_2stim_asymm_v5,2020.2.10,Win32,60,60a5f9bf14d0aa2821c4bb84,,,,,1090,-52,-114,1,0,0,response5disk,,3,14,4,1,0,0,rectangle,14,4,1,0,0,0,"[187,203,155,201,96,150,274,97,307,184,144,25,297,275,87,155,301,227,44,78]",14,4,1,0,0,0,151,151,122,1,,,
,,,,,,,,,,,,,FF,,,,,,,,1.017895,,,,,,,,,,,,,,,,,,,,,,,5f00d65cb69f9e20f144e404,60a7d7fc9a1f1edadd4bdff4,2021-05-21_16h57.03.891,Simcolourproject_2stim_asymm_v5,2020.2.10,Win32,60,60a5f9bf14d0aa2821c4bb84,,,,,1128,56,-118,1,0,0,response3disk,,4,-8,16,1,0,0,rectangle,-8,16,1,0,0,4,"[187,203,155,201,96,150,274,97,307,184,144,25,297,275,87,155,301,227,44,78]",-8,16,1,0,0,0,152,152,125,1,,,
,,,,,,,,,,,,,FF,,,,,,,,1.417715,,,,,,,,,,,,,,,,,,,,,,,5f00d65cb69f9e20f144e404,60a7d7fc9a1f1edadd4bdff4,2021-05-21_16h57.03.891,Simcolourproject_2stim_asymm_v5,2020.2.10,Win32,60,60a5f9bf14d0aa2821c4bb84,,,,,2427,-97,-98,1,0,0,response5disk,,3,5,-1,1,0,0,rectangle,5,-1,1,0,0,1,"[187,203,155,201,96,150,274,97,307,184,144,25,297,275,87,155,301,227,44,78]",5,-1,1,0,0,0,153,153,58,1,,,
,,,,,,,,,,,,,FF,,,,,,,,1.017925,,,,,,,,,,,,,,,,,,,,,,,5f00d65cb69f9e20f144e404,60a7d7fc9a1f1edadd4bdff4,2021-05-21_16h57.03.891,Simcolourproject_2stim_asymm_v5,2020.2.10,Win32,60,60a5f9bf14d0aa2821c4bb84,,,,,1623,61,-123,1,0,0,response3disk,,4,2,0,1,0,0,rectangle,120,-55,1,0,0,5,"[187,203,155,201,96,150,274,97,307,184,144,25,297,275,87,155,301,227,44,78]",-5,1,1,0,0,0,154,154,23,1,,response3disk_3,rectangle
,,,,,,,,,,,,,FF,,,,,,,,1.268115,,,,,,,,,,,,,,,,,,,,,,,5f00d65cb69f9e20f144e404,60a7d7fc9a1f1edadd4bdff4,2021-05-21_16h57.03.891,Simcolourproject_2stim_asymm_v5,2020.2.10,Win32,60,60a5f9bf14d0aa2821c4bb84,,,,,2468,87,-42,1,0,0,response3disk,,5,1,-5,1,0,0,rectangle,1,-5,1,0,0,6,"[187,203,155,201,96,150,274,97,307,184,144,25,297,275,87,155,301,227,44,78]",1,-5,1,0,0,0,155,155,18,1,,,
,,,,,,,,,,,,,FF,,,,,,,,1.33433,,,,,,,,,,,,,,,,,,,,,,,5f00d65cb69f9e20f144e404,60a7d7fc9a1f1edadd4bdff4,2021-05-21_16h57.03.891,Simcolourproject_2stim_asymm_v5,2020.2.10,Win32,60,60a5f9bf14d0aa2821c4bb84,,,,,399,119,64,1,0,0,response1disk,,6,-9,3,1,0,0,rectangle,-9,3,1,0,0,1,"[187,203,155,201,96,150,274,97,307,184,144,25,297,275,87,155,301,227,44,78]",-9,3,1,0,0,0,156,156,9,1,,,
,,,,,,,,,,,,,FF,,,,,,,,1.050655,,,,,,,,,,,,,,,,,,,,,,,5f00d65cb69f9e20f144e404,60a7d7fc9a1f1edadd4bdff4,2021-05-21_16h57.03.891,Simcolourproject_2stim_asymm_v5,2020.2.10,Win32,60,60a5f9bf14d0aa2821c4bb84,,,,,2432,40,-112,1,0,0,response3disk,,4,-5,-1,1,0,0,rectangle,-5,-1,1,0,0,3,"[187,203,155,201,96,150,274,97,307,184,144,25,297,275,87,155,301,227,44,78]",-5,-1,1,0,0,0,157,157,99,1,,,
,,,,,,,,,,,,,FF,,,,,,,,1.501185,,,,,,,,,,,,,,,,,,,,,,,5f00d65cb69f9e20f144e404,60a7d7fc9a1f1edadd4bdff4,2021-05-21_16h57.03.891,Simcolourproject_2stim_asymm_v5,2020.2.10,Win32,60,60a5f9bf14d0aa2821c4bb84,,,,,723,-100,38,1,0,0,response7disk,,1,4,0,1,0,0,rectangle,4,0,1,0,0,5,"[187,203,155,201,96,150,274,97,307,184,144,25,297,275,87,155,301,227,44,78]",4,0,1,0,0,0,158,158,69,1,,,
,,,,,,,,,,,,,FF,,,,,,,,0.83366,,,,,,,,,,,,,,,,,,,,,,,5f00d65cb69f9e20f144e404,60a7d7fc9a1f1edadd4bdff4,2021-05-21_16h57.03.891,Simcolourproject_2stim_asymm_v5,2020.2.10,Win32,60,60a5f9bf14d0aa2821c4bb84,,,,,4231,37,-106,1,0,0,response3disk,,4,-8,-5,1,0,0,rectangle,-8,-5,1,0,0,6,"[187,203,155,201,96,150,274,97,307,184,144,25,297,275,87,155,301,227,44,78]",-8,-5,1,0,0,0,159,159,98,1,,,
,,,,,,,,,,,,,FF,,,,,,,,0.6341,,,,,,,,,,,,,,,,,,,,,,,5f00d65cb69f9e20f144e404,60a7d7fc9a1f1edadd4bdff4,2021-05-21_16h57.03.891,Simcolourproject_2stim_asymm_v5,2020.2.10,Win32,60,60a5f9bf14d0aa2821c4bb84,,,,,1559,52,-101,1,0,0,response3disk,,4,-8,7,1,0,0,rectangle,-8,7,1,0,0,4,"[187,203,155,201,96,150,274,97,307,184,144,25,297,275,87,155,301,227,44,78]",-8,7,1,0,0,0,160,160,148,1,,,
,,,,,,,,,,,,,FF,,,,,,,,0.7336,,,,,,,,,,,,,,,,,,,,,,,5f00d65cb69f9e20f144e404,60a7d7fc9a1f1edadd4bdff4,2021-05-21_16h57.03.891,Simcolourproject_2stim_asymm_v5,2020.2.10,Win32,60,60a5f9bf14d0aa2821c4bb84,,,,,4341,62,-116,1,0,0,response3disk,,4,7,-1,1,0,0,rectangle,7,-1,1,0,0,2,"[187,203,155,201,96,150,274,97,307,184,144,25,297,275,87,155,301,227,44,78]",7,-1,1,0,0,1,0,161,139,1,,,
,,,,,,,,,,,,,FF,,,,,,,,1.651215,,,,,,,,,,,,,,,,,,,,,,,5f00d65cb69f9e20f144e404,60a7d7fc9a1f1edadd4bdff4,2021-05-21_16h57.03.891,Simcolourproject_2stim_asymm_v5,2020.2.10,Win32,60,60a5f9bf14d0aa2821c4bb84,,,,,201,-45,-97,1,0,0,response5disk,,3,18,8,1,0,0,rectangle,18,8,1,0,0,4,"[187,203,155,201,96,150,274,97,307,184,144,25,297,275,87,155,301,227,44,78]",18,8,1,0,0,1,1,162,111,1,,,
,,,,,,,,,,,,,FF,,,,,,,,1.06727,,,,,,,,,,,,,,,,,,,,,,,5f00d65cb69f9e20f144e404,60a7d7fc9a1f1edadd4bdff4,2021-05-21_16h57.03.891,Simcolourproject_2stim_asymm_v5,2020.2.10,Win32,60,60a5f9bf14d0aa2821c4bb84,,,,,3014,-54,-117,1,0,0,response5disk,,3,3,4,1,0,0,rectangle,3,4,1,0,0,3,"[187,203,155,201,96,150,274,97,307,184,144,25,297,275,87,155,301,227,44,78]",3,4,1,0,0,1,2,163,96,1,,,
,,,,,,,,,,,,,FF,,,,,,,,1.217505,,,,,,,,,,,,,,,,,,,,,,,5f00d65cb69f9e20f144e404,60a7d7fc9a1f1edadd4bdff4,2021-05-21_16h57.03.891,Simcolourproject_2stim_asymm_v5,2020.2.10,Win32,60,60a5f9bf14d0aa2821c4bb84,,,,,2114,113,-64,1,0,0,response3disk,,5,3,2,1,0,0,rectangle,3,2,1,0,0,4,"[187,203,155,201,96,150,274,97,307,184,144,25,297,275,87,155,301,227,44,78]",3,2,1,0,0,1,3,164,43,1,,,
,,,,,,,,,,,,,FF,,,,,,,,1.001275,,,,,,,,,,,,,,,,,,,,,,,5f00d65cb69f9e20f144e404,60a7d7fc9a1f1edadd4bdff4,2021-05-21_16h57.03.891,Simcolourproject_2stim_asymm_v5,2020.2.10,Win32,60,60a5f9bf14d0aa2821c4bb84,,,,,1103,112,54,1,0,0,response1disk,,6,-20,-2,1,0,0,rectangle,-20,-2,1,0,0,0,"[187,203,155,201,96,150,274,97,307,184,144,25,297,275,87,155,301,227,44,78]",-20,-2,1,0,0,1,4,165,18,1,,,
,,,,,,,,,,,,,FF,,,,,,,,1.63456,,,,,,,,,,,,,,,,,,,,,,,5f00d65cb69f9e20f144e404,60a7d7fc9a1f1edadd4bdff4,2021-05-21_16h57.03.891,Simcolourproject_2stim_asymm_v5,2020.2.10,Win32,60,60a5f9bf14d0aa2821c4bb84,,,,,1295,-103,-37,1,0,0,response5disk,,6,-18,-4,1,0,0,rectangle,-18,-4,1,0,0,7,"[187,203,155,201,96,150,274,97,307,184,144,25,297,275,87,155,301,227,44,78]",-18,-4,1,0,0,1,5,166,99,1,,,
,,,,,,,,,,,,,FF,,,,,,,,0.9512,,,,,,,,,,,,,,,,,,,,,,,5f00d65cb69f9e20f144e404,60a7d7fc9a1f1edadd4bdff4,2021-05-21_16h57.03.891,Simcolourproject_2stim_asymm_v5,2020.2.10,Win32,60,60a5f9bf14d0aa2821c4bb84,,,,,1943,104,46,1,0,0,response1disk,,6,1,-4,1,0,0,rectangle,1,-4,1,0,0,1,"[187,203,155,201,96,150,274,97,307,184,144,25,297,275,87,155,301,227,44,78]",1,-4,1,0,0,1,6,167,117,1,,,
,,,,,,,,,,,,,FF,,,,,,,,0.68353,,,,,,,,,,,,,,,,,,,,,,,5f00d65cb69f9e20f144e404,60a7d7fc9a1f1edadd4bdff4,2021-05-21_16h57.03.891,Simcolourproject_2stim_asymm_v5,2020.2.10,Win32,60,60a5f9bf14d0aa2821c4bb84,,,,,2337,104,52,1,0,0,response1disk,,6,-5,6,1,0,0,rectangle,-5,6,1,0,0,7,"[187,203,155,201,96,150,274,97,307,184,144,25,297,275,87,155,301,227,44,78]",-5,6,1,0,0,1,7,168,100,1,,,
,,,,,,,,,,,,,FF,,,,,,,,0.89924,,,,,,,,,,,,,,,,,,,,,,,5f00d65cb69f9e20f144e404,60a7d7fc9a1f1edadd4bdff4,2021-05-21_16h57.03.891,Simcolourproject_2stim_asymm_v5,2020.2.10,Win32,60,60a5f9bf14d0aa2821c4bb84,,,,,2736,-61,-99,1,0,0,response5disk,,3,15,17,1,0,0,rectangle,15,17,1,0,0,6,"[187,203,155,201,96,150,274,97,307,184,144,25,297,275,87,155,301,227,44,78]",15,17,1,0,0,1,8,169,77,1,,,
,,,,,,,,,,,,,FF,,,,,,,,1.4179,,,,,,,,,,,,,,,,,,,,,,,5f00d65cb69f9e20f144e404,60a7d7fc9a1f1edadd4bdff4,2021-05-21_16h57.03.891,Simcolourproject_2stim_asymm_v5,2020.2.10,Win32,60,60a5f9bf14d0aa2821c4bb84,,,,,1176,61,125,1,0,0,response1disk,,7,-4,17,1,0,0,rectangle,-4,17,1,0,0,3,"[187,203,155,201,96,150,274,97,307,184,144,25,297,275,87,155,301,227,44,78]",-4,17,1,0,0,1,9,170,120,1,,,
,,,,,,,,,,,,,FF,,,,,,,,1.885065,,,,,,,,,,,,,,,,,,,,,,,5f00d65cb69f9e20f144e404,60a7d7fc9a1f1edadd4bdff4,2021-05-21_16h57.03.891,Simcolourproject_2stim_asymm_v5,2020.2.10,Win32,60,60a5f9bf14d0aa2821c4bb84,,,,,618,-122,60,1,0,0,response7disk,,1,-14,-3,1,0,0,rectangle,-14,-3,1,0,0,6,"[187,203,155,201,96,150,274,97,307,184,144,25,297,275,87,155,301,227,44,78]",-14,-3,1,0,0,1,10,171,21,1,,,
,,,,,,,,,,,,,FF,,,,,,,,0.93388,,,,,,,,,,,,,,,,,,,,,,,5f00d65cb69f9e20f144e404,60a7d7fc9a1f1edadd4bdff4,2021-05-21_16h57.03.891,Simcolourproject_2stim_asymm_v5,2020.2.10,Win32,60,60a5f9bf14d0aa2821c4bb84,,,,,1158,-58,-107,1,0,0,response5disk,,3,-6,0,1,0,0,rectangle,-6,0,1,0,0,2,"[187,203,155,201,96,150,274,97,307,184,144,25,297,275,87,155,301,227,44,78]",-6,0,1,0,0,1,11,172,61,1,,,
,,,,,,,,,,,,,FF,,,,,,,,0.80022,,,,,,,,,,,,,,,,,,,,,,,5f00d65cb69f9e20f144e404,60a7d7fc9a1f1edadd4bdff4,2021-05-21_16h57.03.891,Simcolourproject_2stim_asymm_v5,2020.2.10,Win32,60,60a5f9bf14d0aa2821c4bb84,,,,,1471,55,-97,1,0,0,response3disk,,4,-6,5,1,0,0,rectangle,-6,5,1,0,0,1,"[187,203,155,201,96,150,274,97,307,184,144,25,297,275,87,155,301,227,44,78]",-6,5,1,0,0,1,12,173,68,1,,,
,,,,,,,,,,,,,FF,,,,,,,,0.883835,,,,,,,,,,,,,,,,,,,,,,,5f00d65cb69f9e20f144e404,60a7d7fc9a1f1edadd4bdff4,2021-05-21_16h57.03.891,Simcolourproject_2stim_asymm_v5,2020.2.10,Win32,60,60a5f9bf14d0aa2821c4bb84,,,,,857,48,-126,1,0,0,response3disk,,4,-11,12,1,0,0,rectangle,-11,12,1,0,0,0,"[187,203,155,201,96,150,274,97,307,184,144,25,297,275,87,155,301,227,44,78]",-11,12,1,0,0,1,13,174,38,1,,,
,,,,,,,,,,,,,FF,,,,,,,,0.83383,,,,,,,,,,,,,,,,,,,,,,,5f00d65cb69f9e20f144e404,60a7d7fc9a1f1edadd4bdff4,2021-05-21_16h57.03.891,Simcolourproject_2stim_asymm_v5,2020.2.10,Win32,60,60a5f9bf14d0aa2821c4bb84,,,,,2418,-51,130,1,0,0,response7disk,,0,3,8,1,0,0,rectangle,3,8,1,0,0,7,"[187,203,155,201,96,150,274,97,307,184,144,25,297,275,87,155,301,227,44,78]",3,8,1,0,0,1,14,175,91,1,,,
,,,,,,,,,,,,,FF,,,,,,,,1.31758,,,,,,,,,,,,,,,,,,,,,,,5f00d65cb69f9e20f144e404,60a7d7fc9a1f1edadd4bdff4,2021-05-21_16h57.03.891,Simcolourproject_2stim_asymm_v5,2020.2.10,Win32,60,60a5f9bf14d0aa2821c4bb84,,,,,2817,134,71,1,0,0,response1disk,,6,17,3,1,0,0,rectangle,17,3,1,0,0,2,"[187,203,155,201,96,150,274,97,307,184,144,25,297,275,87,155,301,227,44,78]",17,3,1,0,0,1,15,176,155,1,,,
,,,,,,,,,,,,,FF,,,,,,,,0.83349,,,,,,,,,,,,,,,,,,,,,,,5f00d65cb69f9e20f144e404,60a7d7fc9a1f1edadd4bdff4,2021-05-21_16h57.03.891,Simcolourproject_2stim_asymm_v5,2020.2.10,Win32,60,60a5f9bf14d0aa2821c4bb84,,,,,3862,123,68,1,0,0,response1disk,,6,-24,-5,1,0,0,rectangle,-24,-5,1,0,0,4,"[187,203,155,201,96,150,274,97,307,184,144,25,297,275,87,155,301,227,44,78]",-24,-5,1,0,0,1,16,177,59,1,,,
,,,,,,,,,,,,,FF,,,,,,,,1.901655,,,,,,,,,,,,,,,,,,,,,,,5f00d65cb69f9e20f144e404,60a7d7fc9a1f1edadd4bdff4,2021-05-21_16h57.03.891,Simcolourproject_2stim_asymm_v5,2020.2.10,Win32,60,60a5f9bf14d0aa2821c4bb84,,,,,622,-122,-55,1,0,0,response5disk,,6,7,3,1,0,0,rectangle,7,3,1,0,0,6,"[187,203,155,201,96,150,274,97,307,184,144,25,297,275,87,155,301,227,44,78]",7,3,1,0,0,1,17,178,45,1,,,
,,,,,,,,,,,,,FF,,,,,,,,1.21749,,,,,,,,,,,,,,,,,,,,,,,5f00d65cb69f9e20f144e404,60a7d7fc9a1f1edadd4bdff4,2021-05-21_16h57.03.891,Simcolourproject_2stim_asymm_v5,2020.2.10,Win32,60,60a5f9bf14d0aa2821c4bb84,,,,,898,-46,-127,1,0,0,response5disk,,3,3,-5,1,0,0,rectangle,3,-5,1,0,0,4,"[187,203,155,201,96,150,274,97,307,184,144,25,297,275,87,155,301,227,44,78]",3,-5,1,0,0,1,18,179,39,1,,,
,,,,,,,,,,,,,FF,,,,,,,,0.766705,,,,,,,,,,,,,,,,,,,,,,,5f00d65cb69f9e20f144e404,60a7d7fc9a1f1edadd4bdff4,2021-05-21_16h57.03.891,Simcolourproject_2stim_asymm_v5,2020.2.10,Win32,60,60a5f9bf14d0aa2821c4bb84,,,,,2972,50,137,1,0,0,response1disk,,7,-16,5,1,0,0,rectangle,-16,5,1,0,0,7,"[187,203,155,201,96,150,274,97,307,184,144,25,297,275,87,155,301,227,44,78]",-16,5,1,0,0,1,19,180,126,1,,,
,,,,,,,,,,,,,FF,,,,,,,,1.01709,,,,,,,,,,,,,,,,,,,,,,,5f00d65cb69f9e20f144e404,60a7d7fc9a1f1edadd4bdff4,2021-05-21_16h57.03.891,Simcolourproject_2stim_asymm_v5,2020.2.10,Win32,60,60a5f9bf14d0aa2821c4bb84,,,,,29,46,-101,1,0,0,response3disk,,4,-13,11,1,0,0,rectangle,-13,11,1,0,0,0,"[187,203,155,201,96,150,274,97,307,184,144,25,297,275,87,155,301,227,44,78]",-13,11,1,0,0,1,20,181,118,1,,,
,,,,,,,,,,,,,FF,,,,,,,,0.93436,,,,,,,,,,,,,,,,,,,,,,,5f00d65cb69f9e20f144e404,60a7d7fc9a1f1edadd4bdff4,2021-05-21_16h57.03.891,Simcolourproject_2stim_asymm_v5,2020.2.10,Win32,60,60a5f9bf14d0aa2821c4bb84,,,,,1649,55,89,1,0,0,response1disk,,7,-19,11,1,0,0,rectangle,-19,11,1,0,0,0,"[187,203,155,201,96,150,274,97,307,184,144,25,297,275,87,155,301,227,44,78]",-19,11,1,0,0,1,21,182,28,1,,,
,,,,,,,,,,,,,FF,,,,,,,,1.835415,,,,,,,,,,,,,,,,,,,,,,,5f00d65cb69f9e20f144e404,60a7d7fc9a1f1edadd4bdff4,2021-05-21_16h57.03.891,Simcolourproject_2stim_asymm_v5,2020.2.10,Win32,60,60a5f9bf14d0aa2821c4bb84,,,,,3449,136,57,1,0,0,response1disk,,6,17,1,1,0,0,rectangle,65,-120,1,0,0,4,"[187,203,155,201,96,150,274,97,307,184,144,25,297,275,87,155,301,227,44,78]",-1,7,1,0,0,1,22,183,5,1,,response3disk_3,rectangle
,,,,,,,,,,,,,FF,,,,,,,,1.01705,,,,,,,,,,,,,,,,,,,,,,,5f00d65cb69f9e20f144e404,60a7d7fc9a1f1edadd4bdff4,2021-05-21_16h57.03.891,Simcolourproject_2stim_asymm_v5,2020.2.10,Win32,60,60a5f9bf14d0aa2821c4bb84,,,,,2910,66,-99,1,0,0,response3disk,,4,-6,3,1,0,0,rectangle,-6,3,1,0,0,2,"[187,203,155,201,96,150,274,97,307,184,144,25,297,275,87,155,301,227,44,78]",-6,3,1,0,0,1,23,184,114,1,,,
,,,,,,,,,,,,,FF,,,,,,,,1.801345,,,,,,,,,,,,,,,,,,,,,,,5f00d65cb69f9e20f144e404,60a7d7fc9a1f1edadd4bdff4,2021-05-21_16h57.03.891,Simcolourproject_2stim_asymm_v5,2020.2.10,Win32,60,60a5f9bf14d0aa2821c4bb84,,,,,1172,117,64,1,0,0,response1disk,,6,-30,2,1,0,0,rectangle,-30,2,1,0,0,7,"[187,203,155,201,96,150,274,97,307,184,144,25,297,275,87,155,301,227,44,78]",-30,2,1,0,0,1,24,185,90,1,,,
,,,,,,,,,,,,,FF,,,,,,,,1.36762,,,,,,,,,,,,,,,,,,,,,,,5f00d65cb69f9e20f144e404,60a7d7fc9a1f1edadd4bdff4,2021-05-21_16h57.03.891,Simcolourproject_2stim_asymm_v5,2020.2.10,Win32,60,60a5f9bf14d0aa2821c4bb84,,,,,642,38,-108,1,0,0,response3disk,,4,-32,13,1,0,0,rectangle,-74,-128,1,0,0,3,"[187,203,155,201,96,150,274,97,307,184,144,25,297,275,87,155,301,227,44,78]",-1,5,1,0,0,1,25,186,109,1,,response5disk_3,rectangle
,,,,,,,,,,,,,FF,,,,,,,,2.08502,,,,,,,,,,,,,,,,,,,,,,,5f00d65cb69f9e20f144e404,60a7d7fc9a1f1edadd4bdff4,2021-05-21_16h57.03.891,Simcolourproject_2stim_asymm_v5,2020.2.10,Win32,60,60a5f9bf14d0aa2821c4bb84,,,,,397,109,63,1,0,0,response1disk,,6,-32,-6,1,0,0,rectangle,-32,-6,1,0,0,7,"[187,203,155,201,96,150,274,97,307,184,144,25,297,275,87,155,301,227,44,78]",-32,-6,1,0,0,1,26,187,75,1,,,
,,,,,,,,,,,,,FF,,,,,,,,1.33423,,,,,,,,,,,,,,,,,,,,,,,5f00d65cb69f9e20f144e404,60a7d7fc9a1f1edadd4bdff4,2021-05-21_16h57.03.891,Simcolourproject_2stim_asymm_v5,2020.2.10,Win32,60,60a5f9bf14d0aa2821c4bb84,,,,,2915,118,51,1,0,0,response1disk,,6,-17,-11,1,0,0,rectangle,-17,-11,1,0,0,3,"[187,203,155,201,96,150,274,97,307,184,144,25,297,275,87,155,301,227,44,78]",-17,-11,1,0,0,1,27,188,137,1,,,
,,,,,,,,,,,,,FF,,,,,,,,1.534385,,,,,,,,,,,,,,,,,,,,,,,5f00d65cb69f9e20f144e404,60a7d7fc9a1f1edadd4bdff4,2021-05-21_16h57.03.891,Simcolourproject_2stim_asymm_v5,2020.2.10,Win32,60,60a5f9bf14d0aa2821c4bb84,,,,,342,-69,-126,1,0,0,response5disk,,3,-4,10,1,0,0,rectangle,-4,10,1,0,0,4,"[187,203,155,201,96,150,274,97,307,184,144,25,297,275,87,155,301,227,44,78]",-4,10,1,0,0,1,28,189,3,1,,,
,,,,,,,,,,,,,FF,,,,,,,,0.91789,,,,,,,,,,,,,,,,,,,,,,,5f00d65cb69f9e20f144e404,60a7d7fc9a1f1edadd4bdff4,2021-05-21_16h57.03.891,Simcolourproject_2stim_asymm_v5,2020.2.10,Win32,60,60a5f9bf14d0aa2821c4bb84,,,,,4163,-109,-50,1,0,0,response5disk,,3,-25,5,1,0,0,rectangle,-25,5,1,0,0,6,"[187,203,155,201,96,150,274,97,307,184,144,25,297,275,87,155,301,227,44,78]",-25,5,1,0,0,1,29,190,47,1,,,
,,,,,,,,,,,,,FF,,,,,,,,0.98455,,,,,,,,,,,,,,,,,,,,,,,5f00d65cb69f9e20f144e404,60a7d7fc9a1f1edadd4bdff4,2021-05-21_16h57.03.891,Simcolourproject_2stim_asymm_v5,2020.2.10,Win32,60,60a5f9bf14d0aa2821c4bb84,,,,,2926,99,-35,1,0,0,response3disk,,5,0,6,1,0,0,rectangle,0,6,1,0,0,0,"[187,203,155,201,96,150,274,97,307,184,144,25,297,275,87,155,301,227,44,78]",0,6,1,0,0,1,30,191,33,1,,,
,,,,,,,,,,,,,FF,,,,,,,,2.96929,,,,,,,,,,,,,,,,,,,,,,,5f00d65cb69f9e20f144e404,60a7d7fc9a1f1edadd4bdff4,2021-05-21_16h57.03.891,Simcolourproject_2stim_asymm_v5,2020.2.10,Win32,60,60a5f9bf14d0aa2821c4bb84,,,,,3624,-57,-118,1,0,0,response5disk,,3,-4,-15,1,0,0,rectangle,-4,-15,1,0,0,3,"[187,203,155,201,96,150,274,97,307,184,144,25,297,275,87,155,301,227,44,78]",-4,-15,1,0,0,1,31,192,94,1,,,
,,,,,,,,,,,,,FF,,,,,,,,1.267495,,,,,,,,,,,,,,,,,,,,,,,5f00d65cb69f9e20f144e404,60a7d7fc9a1f1edadd4bdff4,2021-05-21_16h57.03.891,Simcolourproject_2stim_asymm_v5,2020.2.10,Win32,60,60a5f9bf14d0aa2821c4bb84,,,,,2668,-62,-106,1,0,0,response5disk,,3,2,7,1,0,0,rectangle,2,7,1,0,0,6,"[187,203,155,201,96,150,274,97,307,184,144,25,297,275,87,155,301,227,44,78]",2,7,1,0,0,1,32,193,135,1,,,
,,,,,,,,,,,,,FF,,,,,,,,0.800175,,,,,,,,,,,,,,,,,,,,,,,5f00d65cb69f9e20f144e404,60a7d7fc9a1f1edadd4bdff4,2021-05-21_16h57.03.891,Simcolourproject_2stim_asymm_v5,2020.2.10,Win32,60,60a5f9bf14d0aa2821c4bb84,,,,,4341,66,-110,1,0,0,response3disk,,4,-7,-6,1,0,0,rectangle,-7,-6,1,0,0,0,"[187,203,155,201,96,150,274,97,307,184,144,25,297,275,87,155,301,227,44,78]",-7,-6,1,0,0,1,33,194,145,1,,,
,,,,,,,,,,,,,FF,,,,,,,,1.11738,,,,,,,,,,,,,,,,,,,,,,,5f00d65cb69f9e20f144e404,60a7d7fc9a1f1edadd4bdff4,2021-05-21_16h57.03.891,Simcolourproject_2stim_asymm_v5,2020.2.10,Win32,60,60a5f9bf14d0aa2821c4bb84,,,,,3724,145,75,1,0,0,response1disk,,6,-18,11,1,0,0,rectangle,-18,11,1,0,0,3,"[187,203,155,201,96,150,274,97,307,184,144,25,297,275,87,155,301,227,44,78]",-18,11,1,0,0,1,34,195,85,1,,,
,,,,,,,,,,,,,FF,,,,,,,,0.78437,,,,,,,,,,,,,,,,,,,,,,,5f00d65cb69f9e20f144e404,60a7d7fc9a1f1edadd4bdff4,2021-05-21_16h57.03.891,Simcolourproject_2stim_asymm_v5,2020.2.10,Win32,60,60a5f9bf14d0aa2821c4bb84,,,,,2411,57,-102,1,0,0,response3disk,,4,-9,-1,1,0,0,rectangle,-9,-1,1,0,0,6,"[187,203,155,201,96,150,274,97,307,184,144,25,297,275,87,155,301,227,44,78]",-9,-1,1,0,0,1,35,196,49,1,,,
,,,,,,,,,,,,,FF,,,,,,,,0.56712,,,,,,,,,,,,,,,,,,,,,,,5f00d65cb69f9e20f144e404,60a7d7fc9a1f1edadd4bdff4,2021-05-21_16h57.03.891,Simcolourproject_2stim_asymm_v5,2020.2.10,Win32,60,60a5f9bf14d0aa2821c4bb84,,,,,399,82,-122,1,0,0,response3disk,,4,22,-6,1,0,0,rectangle,22,-6,1,0,0,6,"[187,203,155,201,96,150,274,97,307,184,144,25,297,275,87,155,301,227,44,78]",22,-6,1,0,0,1,36,197,35,1,,,
,,,,,,,,,,,,,FF,,,,,,,,0.56677,,,,,,,,,,,,,,,,,,,,,,,5f00d65cb69f9e20f144e404,60a7d7fc9a1f1edadd4bdff4,2021-05-21_16h57.03.891,Simcolourproject_2stim_asymm_v5,2020.2.10,Win32,60,60a5f9bf14d0aa2821c4bb84,,,,,2773,54,-129,1,0,0,response3disk,,4,3,4,1,0,0,rectangle,3,4,1,0,0,3,"[187,203,155,201,96,150,274,97,307,184,144,25,297,275,87,155,301,227,44,78]",3,4,1,0,0,1,37,198,32,1,,,
,,,,,,,,,,,,,FF,,,,,,,,0.98378,,,,,,,,,,,,,,,,,,,,,,,5f00d65cb69f9e20f144e404,60a7d7fc9a1f1edadd4bdff4,2021-05-21_16h57.03.891,Simcolourproject_2stim_asymm_v5,2020.2.10,Win32,60,60a5f9bf14d0aa2821c4bb84,,,,,2177,-77,-90,1,0,0,response5disk,,3,3,21,1,0,0,rectangle,3,21,1,0,0,5,"[187,203,155,201,96,150,274,97,307,184,144,25,297,275,87,155,301,227,44,78]",3,21,1,0,0,1,38,199,115,1,,,
,,,,,,,,,,,,,FF,,,,,,,,0.616935,,,,,,,,,,,,,,,,,,,,,,,5f00d65cb69f9e20f144e404,60a7d7fc9a1f1edadd4bdff4,2021-05-21_16h57.03.891,Simcolourproject_2stim_asymm_v5,2020.2.10,Win32,60,60a5f9bf14d0aa2821c4bb84,,,,,2388,63,-114,1,0,0,response3disk,,4,4,-5,1,0,0,rectangle,59,138,1,0,0,7,"[187,203,155,201,96,150,274,97,307,184,144,25,297,275,87,155,301,227,44,78]",-5,15,1,0,0,1,39,200,29,1,,response1disk_3,rectangle
,,,,,,,,,,,,,FF,,,,,,,,1.902045,,,,,,,,,,,,,,,,,,,,,,,5f00d65cb69f9e20f144e404,60a7d7fc9a1f1edadd4bdff4,2021-05-21_16h57.03.891,Simcolourproject_2stim_asymm_v5,2020.2.10,Win32,60,60a5f9bf14d0aa2821c4bb84,,,,,1324,67,112,1,0,0,response1disk,,7,-13,4,1,0,0,rectangle,-13,4,1,0,0,6,"[187,203,155,201,96,150,274,97,307,184,144,25,297,275,87,155,301,227,44,78]",-13,4,1,0,0,1,40,201,116,1,,,
,,,,,,,,,,,,,FF,,,,,,,,1.500975,,,,,,,,,,,,,,,,,,,,,,,5f00d65cb69f9e20f144e404,60a7d7fc9a1f1edadd4bdff4,2021-05-21_16h57.03.891,Simcolourproject_2stim_asymm_v5,2020.2.10,Win32,60,60a5f9bf14d0aa2821c4bb84,,,,,321,108,62,1,0,0,response1disk,,6,-6,6,1,0,0,rectangle,-121,-48,1,0,0,2,"[187,203,155,201,96,150,274,97,307,184,144,25,297,275,87,155,301,227,44,78]",-9,-3,1,0,0,1,41,202,27,1,,response5disk_3,rectangle
,,,,,,,,,,,,,FF,,,,,,,,2.769095,,,,,,,,,,,,,,,,,,,,,,,5f00d65cb69f9e20f144e404,60a7d7fc9a1f1edadd4bdff4,2021-05-21_16h57.03.891,Simcolourproject_2stim_asymm_v5,2020.2.10,Win32,60,60a5f9bf14d0aa2821c4bb84,,,,,304,96,51,1,0,0,response1disk,,6,-7,3,1,0,0,rectangle,-7,3,1,0,0,5,"[187,203,155,201,96,150,274,97,307,184,144,25,297,275,87,155,301,227,44,78]",-7,3,1,0,0,1,42,203,101,1,,,
,,,,,,,,,,,,,FF,,,,,,,,1.1675,,,,,,,,,,,,,,,,,,,,,,,5f00d65cb69f9e20f144e404,60a7d7fc9a1f1edadd4bdff4,2021-05-21_16h57.03.891,Simcolourproject_2stim_asymm_v5,2020.2.10,Win32,60,60a5f9bf14d0aa2821c4bb84,,,,,2262,114,58,1,0,0,response1disk,,6,5,7,1,0,0,rectangle,5,7,1,0,0,5,"[187,203,155,201,96,150,274,97,307,184,144,25,297,275,87,155,301,227,44,78]",5,7,1,0,0,1,43,204,72,1,,,
,,,,,,,,,,,,,FF,,,,,,,,0.733635,,,,,,,,,,,,,,,,,,,,,,,5f00d65cb69f9e20f144e404,60a7d7fc9a1f1edadd4bdff4,2021-05-21_16h57.03.891,Simcolourproject_2stim_asymm_v5,2020.2.10,Win32,60,60a5f9bf14d0aa2821c4bb84,,,,,4139,46,117,1,0,0,response1disk,,7,-12,8,1,0,0,rectangle,-12,8,1,0,0,1,"[187,203,155,201,96,150,274,97,307,184,144,25,297,275,87,155,301,227,44,78]",-12,8,1,0,0,1,44,205,159,1,,,
,,,,,,,,,,,,,FF,,,,,,,,1.084755,,,,,,,,,,,,,,,,,,,,,,,5f00d65cb69f9e20f144e404,60a7d7fc9a1f1edadd4bdff4,2021-05-21_16h57.03.891,Simcolourproject_2stim_asymm_v5,2020.2.10,Win32,60,60a5f9bf14d0aa2821c4bb84,,,,,145,93,-44,1,0,0,response3disk,,5,-11,9,1,0,0,rectangle,-11,9,1,0,0,0,"[187,203,155,201,96,150,274,97,307,184,144,25,297,275,87,155,301,227,44,78]",-11,9,1,0,0,1,45,206,44,1,,,
,,,,,,,,,,,,,FF,,,,,,,,0.850465,,,,,,,,,,,,,,,,,,,,,,,5f00d65cb69f9e20f144e404,60a7d7fc9a1f1edadd4bdff4,2021-05-21_16h57.03.891,Simcolourproject_2stim_asymm_v5,2020.2.10,Win32,60,60a5f9bf14d0aa2821c4bb84,,,,,4245,88,-45,1,0,0,response3disk,,5,-7,-2,1,0,0,rectangle,-7,-2,1,0,0,1,"[187,203,155,201,96,150,274,97,307,184,144,25,297,275,87,155,301,227,44,78]",-7,-2,1,0,0,1,46,207,78,1,,,
,,,,,,,,,,,,,FF,,,,,,,,0.8505,,,,,,,,,,,,,,,,,,,,,,,5f00d65cb69f9e20f144e404,60a7d7fc9a1f1edadd4bdff4,2021-05-21_16h57.03.891,Simcolourproject_2stim_asymm_v5,2020.2.10,Win32,60,60a5f9bf14d0aa2821c4bb84,,,,,2776,-55,-105,1,0,0,response5disk,,3,-1,10,1,0,0,rectangle,-1,10,1,0,0,1,"[187,203,155,201,96,150,274,97,307,184,144,25,297,275,87,155,301,227,44,78]",-1,10,1,0,0,1,47,208,58,1,,,
,,,,,,,,,,,,,FF,,,,,,,,1.41764,,,,,,,,,,,,,,,,,,,,,,,5f00d65cb69f9e20f144e404,60a7d7fc9a1f1edadd4bdff4,2021-05-21_16h57.03.891,Simcolourproject_2stim_asymm_v5,2020.2.10,Win32,60,60a5f9bf14d0aa2821c4bb84,,,,,723,-99,59,1,0,0,response7disk,,1,1,13,1,0,0,rectangle,1,13,1,0,0,7,"[187,203,155,201,96,150,274,97,307,184,144,25,297,275,87,155,301,227,44,78]",1,13,1,0,0,1,48,209,133,1,,,
,,,,,,,,,,,,,FF,,,,,,,,2.785795,,,,,,,,,,,,,,,,,,,,,,,5f00d65cb69f9e20f144e404,60a7d7fc9a1f1edadd4bdff4,2021-05-21_16h57.03.891,Simcolourproject_2stim_asymm_v5,2020.2.10,Win32,60,60a5f9bf14d0aa2821c4bb84,,,,,3015,125,52,1,0,0,response1disk,,6,2,13,1,0,0,rectangle,2,13,1,0,0,6,"[187,203,155,201,96,150,274,97,307,184,144,25,297,275,87,155,301,227,44,78]",2,13,1,0,0,1,49,210,84,1,,,
,,,,,,,,,,,,,FF,,,,,,,,0.917195,,,,,,,,,,,,,,,,,,,,,,,5f00d65cb69f9e20f144e404,60a7d7fc9a1f1edadd4bdff4,2021-05-21_16h57.03.891,Simcolourproject_2stim_asymm_v5,2020.2.10,Win32,60,60a5f9bf14d0aa2821c4bb84,,,,,2683,37,-124,1,0,0,response3disk,,4,-17,8,1,0,0,rectangle,-17,8,1,0,0,6,"[187,203,155,201,96,150,274,97,307,184,144,25,297,275,87,155,301,227,44,78]",-17,8,1,0,0,1,50,211,14,1,,,
,,,,,,,,,,,,,FF,,,,,,,,1.033925,,,,,,,,,,,,,,,,,,,,,,,5f00d65cb69f9e20f144e404,60a7d7fc9a1f1edadd4bdff4,2021-05-21_16h57.03.891,Simcolourproject_2stim_asymm_v5,2020.2.10,Win32,60,60a5f9bf14d0aa2821c4bb84,,,,,481,63,-110,1,0,0,response3disk,,4,3,21,1,0,0,rectangle,3,21,1,0,0,1,"[187,203,155,201,96,150,274,97,307,184,144,25,297,275,87,155,301,227,44,78]",3,21,1,0,0,1,51,212,30,1,,,
,,,,,,,,,,,,,FF,,,,,,,,0.583395,,,,,,,,,,,,,,,,,,,,,,,5f00d65cb69f9e20f144e404,60a7d7fc9a1f1edadd4bdff4,2021-05-21_16h57.03.891,Simcolourproject_2stim_asymm_v5,2020.2.10,Win32,60,60a5f9bf14d0aa2821c4bb84,,,,,3508,33,-117,1,0,0,response3disk,,4,1,-6,1,0,0,rectangle,1,-6,1,0,0,4,"[187,203,155,201,96,150,274,97,307,184,144,25,297,275,87,155,301,227,44,78]",1,-6,1,0,0,1,52,213,24,1,,,
,,,,,,,,,,,,,FF,,,,,,,,0.733675,,,,,,,,,,,,,,,,,,,,,,,5f00d65cb69f9e20f144e404,60a7d7fc9a1f1edadd4bdff4,2021-05-21_16h57.03.891,Simcolourproject_2stim_asymm_v5,2020.2.10,Win32,60,60a5f9bf14d0aa2821c4bb84,,,,,2387,64,-129,1,0,0,response3disk,,4,-2,2,1,0,0,rectangle,-2,2,1,0,0,2,"[187,203,155,201,96,150,274,97,307,184,144,25,297,275,87,155,301,227,44,78]",-2,2,1,0,0,1,53,214,11,1,,,
,,,,,,,,,,,,,FF,,,,,,,,1.734685,,,,,,,,,,,,,,,,,,,,,,,5f00d65cb69f9e20f144e404,60a7d7fc9a1f1edadd4bdff4,2021-05-21_16h57.03.891,Simcolourproject_2stim_asymm_v5,2020.2.10,Win32,60,60a5f9bf14d0aa2821c4bb84,,,,,1350,119,-51,1,0,0,response3disk,,5,3,-3,1,0,0,rectangle,3,-3,1,0,0,4,"[187,203,155,201,96,150,274,97,307,184,144,25,297,275,87,155,301,227,44,78]",3,-3,1,0,0,1,54,215,48,1,,,
,,,,,,,,,,,,,FF,,,,,,,,1.101885,,,,,,,,,,,,,,,,,,,,,,,5f00d65cb69f9e20f144e404,60a7d7fc9a1f1edadd4bdff4,2021-05-21_16h57.03.891,Simcolourproject_2stim_asymm_v5,2020.2.10,Win32,60,60a5f9bf14d0aa2821c4bb84,,,,,2252,-55,-140,1,0,0,response5disk,,3,-3,-2,1,0,0,rectangle,-3,-2,1,0,0,5,"[187,203,155,201,96,150,274,97,307,184,144,25,297,275,87,155,301,227,44,78]",-3,-2,1,0,0,1,55,216,10,1,,,
,,,,,,,,,,,,,FF,,,,,,,,0.96716,,,,,,,,,,,,,,,,,,,,,,,5f00d65cb69f9e20f144e404,60a7d7fc9a1f1edadd4bdff4,2021-05-21_16h57.03.891,Simcolourproject_2stim_asymm_v5,2020.2.10,Win32,60,60a5f9bf14d0aa2821c4bb84,,,,,1622,51,-97,1,0,0,response3disk,,4,-31,15,1,0,0,rectangle,-31,15,1,0,0,7,"[187,203,155,201,96,150,274,97,307,184,144,25,297,275,87,155,301,227,44,78]",-31,15,1,0,0,1,56,217,106,1,,,
,,,,,,,,,,,,,FF,,,,,,,,1.234115,,,,,,,,,,,,,,,,,,,,,,,5f00d65cb69f9e20f144e404,60a7d7fc9a1f1edadd4bdff4,2021-05-21_16h57.03.891,Simcolourproject_2stim_asymm_v5,2020.2.10,Win32,60,60a5f9bf14d0aa2821c4bb84,,,,,3087,47,91,1,0,0,response1disk,,7,18,19,1,0,0,rectangle,18,19,1,0,0,3,"[187,203,155,201,96,150,274,97,307,184,144,25,297,275,87,155,301,227,44,78]",18,19,1,0,0,1,57,218,128,1,,,
,,,,,,,,,,,,,FF,,,,,,,,1.183365,,,,,,,,,,,,,,,,,,,,,,,5f00d65cb69f9e20f144e404,60a7d7fc9a1f1edadd4bdff4,2021-05-21_16h57.03.891,Simcolourproject_2stim_asymm_v5,2020.2.10,Win32,60,60a5f9bf14d0aa2821c4bb84,,,,,4017,117,58,1,0,0,response1disk,,6,11,-11,1,0,0,rectangle,11,-11,1,0,0,7,"[187,203,155,201,96,150,274,97,307,184,144,25,297,275,87,155,301,227,44,78]",11,-11,1,0,0,1,58,219,81,1,,,
,,,,,,,,,,,,,FF,,,,,,,,0.96718,,,,,,,,,,,,,,,,,,,,,,,5f00d65cb69f9e20f144e404,60a7d7fc9a1f1edadd4bdff4,2021-05-21_16h57.03.891,Simcolourproject_2stim_asymm_v5,2020.2.10,Win32,60,60a5f9bf14d0aa2821c4bb84,,,,,1818,-116,-61,1,0,0,response5disk,,6,-26,0,1,0,0,rectangle,-26,0,1,0,0,6,"[187,203,155,201,96,150,274,97,307,184,144,25,297,275,87,155,301,227,44,78]",-26,0,1,0,0,1,59,220,122,1,,,
,,,,,,,,,,,,,FF,,,,,,,,2.08504,,,,,,,,,,,,,,,,,,,,,,,5f00d65cb69f9e20f144e404,60a7d7fc9a1f1edadd4bdff4,2021-05-21_16h57.03.891,Simcolourproject_2stim_asymm_v5,2020.2.10,Win32,60,60a5f9bf14d0aa2821c4bb84,,,,,1090,100,42,1,0,0,response1disk,,6,4,-12,1,0,0,rectangle,4,-12,1,0,0,7,"[187,203,155,201,96,150,274,97,307,184,144,25,297,275,87,155,301,227,44,78]",4,-12,1,0,0,1,60,221,8,1,,,
,,,,,,,,,,,,,FF,,,,,,,,0.883815,,,,,,,,,,,,,,,,,,,,,,,5f00d65cb69f9e20f144e404,60a7d7fc9a1f1edadd4bdff4,2021-05-21_16h57.03.891,Simcolourproject_2stim_asymm_v5,2020.2.10,Win32,60,60a5f9bf14d0aa2821c4bb84,,,,,2000,77,-43,1,0,0,response3disk,,5,-20,3,1,0,0,rectangle,-20,3,1,0,0,5,"[187,203,155,201,96,150,274,97,307,184,144,25,297,275,87,155,301,227,44,78]",-20,3,1,0,0,1,61,222,102,1,,,
,,,,,,,,,,,,,FF,,,,,,,,1.050345,,,,,,,,,,,,,,,,,,,,,,,5f00d65cb69f9e20f144e404,60a7d7fc9a1f1edadd4bdff4,2021-05-21_16h57.03.891,Simcolourproject_2stim_asymm_v5,2020.2.10,Win32,60,60a5f9bf14d0aa2821c4bb84,,,,,2469,99,64,1,0,0,response1disk,,6,15,-4,1,0,0,rectangle,15,-4,1,0,0,0,"[187,203,155,201,96,150,274,97,307,184,144,25,297,275,87,155,301,227,44,78]",15,-4,1,0,0,1,62,223,34,1,,,
,,,,,,,,,,,,,FF,,,,,,,,1.31754,,,,,,,,,,,,,,,,,,,,,,,5f00d65cb69f9e20f144e404,60a7d7fc9a1f1edadd4bdff4,2021-05-21_16h57.03.891,Simcolourproject_2stim_asymm_v5,2020.2.10,Win32,60,60a5f9bf14d0aa2821c4bb84,,,,,286,80,-41,1,0,0,response3disk,,5,-15,7,1,0,0,rectangle,-15,7,1,0,0,2,"[187,203,155,201,96,150,274,97,307,184,144,25,297,275,87,155,301,227,44,78]",-15,7,1,0,0,1,63,224,83,1,,,
,,,,,,,,,,,,,FF,,,,,,,,0.95046,,,,,,,,,,,,,,,,,,,,,,,5f00d65cb69f9e20f144e404,60a7d7fc9a1f1edadd4bdff4,2021-05-21_16h57.03.891,Simcolourproject_2stim_asymm_v5,2020.2.10,Win32,60,60a5f9bf14d0aa2821c4bb84,,,,,1443,86,-58,1,0,0,response3disk,,5,17,-8,1,0,0,rectangle,17,-8,1,0,0,7,"[187,203,155,201,96,150,274,97,307,184,144,25,297,275,87,155,301,227,44,78]",17,-8,1,0,0,1,64,225,66,1,,,
,,,,,,,,,,,,,FF,,,,,,,,0.6342,,,,,,,,,,,,,,,,,,,,,,,5f00d65cb69f9e20f144e404,60a7d7fc9a1f1edadd4bdff4,2021-05-21_16h57.03.891,Simcolourproject_2stim_asymm_v5,2020.2.10,Win32,60,60a5f9bf14d0aa2821c4bb84,,,,,3890,92,-50,1,0,0,response3disk,,5,6,7,1,0,0,rectangle,-60,-117,1,0,0,3,"[187,203,155,201,96,150,274,97,307,184,144,25,297,275,87,155,301,227,44,78]",-11,4,1,0,0,1,65,226,160,1,,response5disk_3,rectangle
,,,,,,,,,,,,,FF,,,,,,,,0.78373,,,,,,,,,,,,,,,,,,,,,,,5f00d65cb69f9e20f144e404,60a7d7fc9a1f1edadd4bdff4,2021-05-21_16h57.03.891,Simcolourproject_2stim_asymm_v5,2020.2.10,Win32,60,60a5f9bf14d0aa2821c4bb84,,,,,1325,112,58,1,0,0,response1disk,,6,0,11,1,0,0,rectangle,0,11,1,0,0,0,"[187,203,155,201,96,150,274,97,307,184,144,25,297,275,87,155,301,227,44,78]",0,11,1,0,0,1,66,227,97,1,,,
,,,,,,,,,,,,,FF,,,,,,,,0.700235,,,,,,,,,,,,,,,,,,,,,,,5f00d65cb69f9e20f144e404,60a7d7fc9a1f1edadd4bdff4,2021-05-21_16h57.03.891,Simcolourproject_2stim_asymm_v5,2020.2.10,Win32,60,60a5f9bf14d0aa2821c4bb84,,,,,273,83,-47,1,0,0,response3disk,,5,-1,0,1,0,0,rectangle,-1,0,1,0,0,6,"[187,203,155,201,96,150,274,97,307,184,144,25,297,275,87,155,301,227,44,78]",-1,0,1,0,0,1,67,228,13,1,,,
,,,,,,,,,,,,,FF,,,,,,,,0.91727,,,,,,,,,,,,,,,,,,,,,,,5f00d65cb69f9e20f144e404,60a7d7fc9a1f1edadd4bdff4,2021-05-21_16h57.03.891,Simcolourproject_2stim_asymm_v5,2020.2.10,Win32,60,60a5f9bf14d0aa2821c4bb84,,,,,3200,-60,-114,1,0,0,response5disk,,3,0,3,1,0,0,rectangle,0,3,1,0,0,2,"[187,203,155,201,96,150,274,97,307,184,144,25,297,275,87,155,301,227,44,78]",0,3,1,0,0,1,68,229,51,1,,,
,,,,,,,,,,,,,FF,,,,,,,,1.23429,,,,,,,,,,,,,,,,,,,,,,,5f00d65cb69f9e20f144e404,60a7d7fc9a1f1edadd4bdff4,2021-05-21_16h57.03.891,Simcolourproject_2stim_asymm_v5,2020.2.10,Win32,60,60a5f9bf14d0aa2821c4bb84,,,,,2261,95,38,1,0,0,response1disk,,6,-12,-3,1,0,0,rectangle,-12,-3,1,0,0,0,"[187,203,155,201,96,150,274,97,307,184,144,25,297,275,87,155,301,227,44,78]",-12,-3,1,0,0,1,69,230,76,1,,,
,,,,,,,,,,,,,FF,,,,,,,,0.767565,,,,,,,,,,,,,,,,,,,,,,,5f00d65cb69f9e20f144e404,60a7d7fc9a1f1edadd4bdff4,2021-05-21_16h57.03.891,Simcolourproject_2stim_asymm_v5,2020.2.10,Win32,60,60a5f9bf14d0aa2821c4bb84,,,,,1559,99,-45,1,0,0,response3disk,,5,-4,15,1,0,0,rectangle,-4,15,1,0,0,7,"[187,203,155,201,96,150,274,97,307,184,144,25,297,275,87,155,301,227,44,78]",-4,15,1,0,0,1,70,231,15,1,,,
,,,,,,,,,,,,,FF,,,,,,,,1.03388,,,,,,,,,,,,,,,,,,,,,,,5f00d65cb69f9e20f144e404,60a7d7fc9a1f1edadd4bdff4,2021-05-21_16h57.03.891,Simcolourproject_2stim_asymm_v5,2020.2.10,Win32,60,60a5f9bf14d0aa2821c4bb84,,,,,1666,110,-37,1,0,0,response3disk,,5,-2,13,1,0,0,rectangle,-2,13,1,0,0,0,"[187,203,155,201,96,150,274,97,307,184,144,25,297,275,87,155,301,227,44,78]",-2,13,1,0,0,1,71,232,98,1,,,
,,,,,,,,,,,,,FF,,,,,,,,0.71691,,,,,,,,,,,,,,,,,,,,,,,5f00d65cb69f9e20f144e404,60a7d7fc9a1f1edadd4bdff4,2021-05-21_16h57.03.891,Simcolourproject_2stim_asymm_v5,2020.2.10,Win32,60,60a5f9bf14d0aa2821c4bb84,,,,,3962,112,-65,1,0,0,response3disk,,5,6,4,1,0,0,rectangle,6,4,1,0,0,6,"[187,203,155,201,96,150,274,97,307,184,144,25,297,275,87,155,301,227,44,78]",6,4,1,0,0,1,72,233,146,1,,,
,,,,,,,,,,,,,FF,,,,,,,,1.03402,,,,,,,,,,,,,,,,,,,,,,,5f00d65cb69f9e20f144e404,60a7d7fc9a1f1edadd4bdff4,2021-05-21_16h57.03.891,Simcolourproject_2stim_asymm_v5,2020.2.10,Win32,60,60a5f9bf14d0aa2821c4bb84,,,,,2628,115,-59,1,0,0,response3disk,,5,3,-2,1,0,0,rectangle,3,-2,1,0,0,6,"[187,203,155,201,96,150,274,97,307,184,144,25,297,275,87,155,301,227,44,78]",3,-2,1,0,0,1,73,234,25,1,,,
,,,,,,,,,,,,,FF,,,,,,,,0.81699,,,,,,,,,,,,,,,,,,,,,,,5f00d65cb69f9e20f144e404,60a7d7fc9a1f1edadd4bdff4,2021-05-21_16h57.03.891,Simcolourproject_2stim_asymm_v5,2020.2.10,Win32,60,60a5f9bf14d0aa2821c4bb84,,,,,1638,87,-56,1,0,0,response3disk,,5,-6,1,1,0,0,rectangle,-6,1,1,0,0,0,"[187,203,155,201,96,150,274,97,307,184,144,25,297,275,87,155,301,227,44,78]",-6,1,1,0,0,1,74,235,143,1,,,
,,,,,,,,,,,,,FF,,,,,,,,1.53437,,,,,,,,,,,,,,,,,,,,,,,5f00d65cb69f9e20f144e404,60a7d7fc9a1f1edadd4bdff4,2021-05-21_16h57.03.891,Simcolourproject_2stim_asymm_v5,2020.2.10,Win32,60,60a5f9bf14d0aa2821c4bb84,,,,,4268,-57,-94,1,0,0,response5disk,,3,15,-9,1,0,0,rectangle,15,-9,1,0,0,7,"[187,203,155,201,96,150,274,97,307,184,144,25,297,275,87,155,301,227,44,78]",15,-9,1,0,0,1,75,236,42,1,,,
,,,,,,,,,,,,,FF,,,,,,,,1.067425,,,,,,,,,,,,,,,,,,,,,,,5f00d65cb69f9e20f144e404,60a7d7fc9a1f1edadd4bdff4,2021-05-21_16h57.03.891,Simcolourproject_2stim_asymm_v5,2020.2.10,Win32,60,60a5f9bf14d0aa2821c4bb84,,,,,2098,-94,45,1,0,0,response7disk,,1,-2,4,1,0,0,rectangle,-2,4,1,0,0,1,"[187,203,155,201,96,150,274,97,307,184,144,25,297,275,87,155,301,227,44,78]",-2,4,1,0,0,1,76,237,16,1,,,
,,,,,,,,,,,,,FF,,,,,,,,1.00123,,,,,,,,,,,,,,,,,,,,,,,5f00d65cb69f9e20f144e404,60a7d7fc9a1f1edadd4bdff4,2021-05-21_16h57.03.891,Simcolourproject_2stim_asymm_v5,2020.2.10,Win32,60,60a5f9bf14d0aa2821c4bb84,,,,,1447,-128,69,1,0,0,response7disk,,1,-9,5,1,0,0,rectangle,-9,5,1,0,0,7,"[187,203,155,201,96,150,274,97,307,184,144,25,297,275,87,155,301,227,44,78]",-9,5,1,0,0,1,77,238,52,1,,,
,,,,,,,,,,,,,FF,,,,,,,,4.35412,,,,,,,,,,,,,,,,,,,,,,,5f00d65cb69f9e20f144e404,60a7d7fc9a1f1edadd4bdff4,2021-05-21_16h57.03.891,Simcolourproject_2stim_asymm_v5,2020.2.10,Win32,60,60a5f9bf14d0aa2821c4bb84,,,,,812,46,-85,1,0,0,response3disk,,4,-2,-4,1,0,0,rectangle,-2,-4,1,0,0,1,"[187,203,155,201,96,150,274,97,307,184,144,25,297,275,87,155,301,227,44,78]",-2,-4,1,0,0,1,78,239,124,1,,,
,,,,,,,,,,,,,FF,,,,,,,,1.3516,,,,,,,,,,,,,,,,,,,,,,,5f00d65cb69f9e20f144e404,60a7d7fc9a1f1edadd4bdff4,2021-05-21_16h57.03.891,Simcolourproject_2stim_asymm_v5,2020.2.10,Win32,60,60a5f9bf14d0aa2821c4bb84,,,,,3979,95,-50,1,0,0,response3disk,,5,13,11,1,0,0,rectangle,13,11,1,0,0,5,"[187,203,155,201,96,150,274,97,307,184,144,25,297,275,87,155,301,227,44,78]",13,11,1,0,0,1,79,240,63,1,,,
,,,,,,,,,,,,,FF,,,,,,,,0.800885,,,,,,,,,,,,,,,,,,,,,,,5f00d65cb69f9e20f144e404,60a7d7fc9a1f1edadd4bdff4,2021-05-21_16h57.03.891,Simcolourproject_2stim_asymm_v5,2020.2.10,Win32,60,60a5f9bf14d0aa2821c4bb84,,,,,1802,113,-64,1,0,0,response3disk,,5,2,-3,1,0,0,rectangle,2,-3,1,0,0,7,"[187,203,155,201,96,150,274,97,307,184,144,25,297,275,87,155,301,227,44,78]",2,-3,1,0,0,1,80,241,148,1,,,
,,,,,,,,,,,,,FF,,,,,,,,1.10062,,,,,,,,,,,,,,,,,,,,,,,5f00d65cb69f9e20f144e404,60a7d7fc9a1f1edadd4bdff4,2021-05-21_16h57.03.891,Simcolourproject_2stim_asymm_v5,2020.2.10,Win32,60,60a5f9bf14d0aa2821c4bb84,,,,,3213,-48,-85,1,0,0,response5disk,,3,17,-13,1,0,0,rectangle,17,-13,1,0,0,2,"[187,203,155,201,96,150,274,97,307,184,144,25,297,275,87,155,301,227,44,78]",17,-13,1,0,0,1,81,242,57,1,,,
,,,,,,,,,,,,,FF,,,,,,,,4.20399,,,,,,,,,,,,,,,,,,,,,,,5f00d65cb69f9e20f144e404,60a7d7fc9a1f1edadd4bdff4,2021-05-21_16h57.03.891,Simcolourproject_2stim_asymm_v5,2020.2.10,Win32,60,60a5f9bf14d0aa2821c4bb84,,,,,3874,43,-95,1,0,0,response3disk,,4,3,-14,1,0,0,rectangle,3,-14,1,0,0,0,"[187,203,155,201,96,150,274,97,307,184,144,25,297,275,87,155,301,227,44,78]",3,-14,1,0,0,1,82,243,150,1,,,
,,,,,,,,,,,,,FF,,,,,,,,1.16747,,,,,,,,,,,,,,,,,,,,,,,5f00d65cb69f9e20f144e404,60a7d7fc9a1f1edadd4bdff4,2021-05-21_16h57.03.891,Simcolourproject_2stim_asymm_v5,2020.2.10,Win32,60,60a5f9bf14d0aa2821c4bb84,,,,,2470,99,-53,1,0,0,response3disk,,5,7,-3,1,0,0,rectangle,7,-3,1,0,0,5,"[187,203,155,201,96,150,274,97,307,184,144,25,297,275,87,155,301,227,44,78]",7,-3,1,0,0,1,83,244,129,1,,,
,,,,,,,,,,,,,FF,,,,,,,,1.017125,,,,,,,,,,,,,,,,,,,,,,,5f00d65cb69f9e20f144e404,60a7d7fc9a1f1edadd4bdff4,2021-05-21_16h57.03.891,Simcolourproject_2stim_asymm_v5,2020.2.10,Win32,60,60a5f9bf14d0aa2821c4bb84,,,,,1323,93,56,1,0,0,response1disk,,6,6,3,1,0,0,rectangle,6,3,1,0,0,5,"[187,203,155,201,96,150,274,97,307,184,144,25,297,275,87,155,301,227,44,78]",6,3,1,0,0,1,84,245,87,1,,,
,,,,,,,,,,,,,FF,,,,,,,,0.86696,,,,,,,,,,,,,,,,,,,,,,,5f00d65cb69f9e20f144e404,60a7d7fc9a1f1edadd4bdff4,2021-05-21_16h57.03.891,Simcolourproject_2stim_asymm_v5,2020.2.10,Win32,60,60a5f9bf14d0aa2821c4bb84,,,,,4209,47,122,1,0,0,response1disk,,7,-2,4,1,0,0,rectangle,-2,4,1,0,0,6,"[187,203,155,201,96,150,274,97,307,184,144,25,297,275,87,155,301,227,44,78]",-2,4,1,0,0,1,85,246,73,1,,,
,,,,,,,,,,,,,FF,,,,,,,,2.069665,,,,,,,,,,,,,,,,,,,,,,,5f00d65cb69f9e20f144e404,60a7d7fc9a1f1edadd4bdff4,2021-05-21_16h57.03.891,Simcolourproject_2stim_asymm_v5,2020.2.10,Win32,60,60a5f9bf14d0aa2821c4bb84,,,,,1587,46,-100,1,0,0,response3disk,,4,-18,-3,1,0,0,rectangle,-18,-3,1,0,0,5,"[187,203,155,201,96,150,274,97,307,184,144,25,297,275,87,155,301,227,44,78]",-18,-3,1,0,0,1,86,247,6,1,,,
,,,,,,,,,,,,,FF,,,,,,,,0.750005,,,,,,,,,,,,,,,,,,,,,,,5f00d65cb69f9e20f144e404,60a7d7fc9a1f1edadd4bdff4,2021-05-21_16h57.03.891,Simcolourproject_2stim_asymm_v5,2020.2.10,Win32,60,60a5f9bf14d0aa2821c4bb84,,,,,3094,60,-116,1,0,0,response3disk,,4,4,-4,1,0,0,rectangle,4,-4,1,0,0,1,"[187,203,155,201,96,150,274,97,307,184,144,25,297,275,87,155,301,227,44,78]",4,-4,1,0,0,1,87,248,156,1,,,
