key_resp.keys,key_resp.rt,key_resp_14.keys,key_resp_14.rt,key_resp_15.keys,key_resp_15.rt,key_resp_17.keys,key_resp_17.rt,key_resp_9.keys,key_resp_9.rt,key_resp_10.keys,key_resp_10.rt,practice_comparison,Ecc,mouse_5.x,mouse_5.y,mouse_5.leftButton,mouse_5.midButton,mouse_5.rightButton,mouse_5.clicked_name,pracsimilarity,response_time,mouse_10.x,mouse_10.y,mouse_10.leftButton,mouse_10.midButton,mouse_10.rightButton,mouse_10.clicked_name,mouse_7.x,mouse_7.y,mouse_7.leftButton,mouse_7.midButton,mouse_7.rightButton,mouse_7.clicked_name,catchnumberprac,mouse_6.x,mouse_6.y,mouse_6.leftButton,mouse_6.midButton,mouse_6.rightButton,mouse_6.clicked_name,duringprac.thisRepN,duringprac.thisTrialN,duringprac.thisN,duringprac.thisIndex,duringprac.ran,participant,session,date,expName,psychopyVersion,OS,frameRate,study_id,key_resp_22.keys,key_resp_22.rt,realcomparison,mouse.x,mouse.y,mouse.leftButton,mouse.midButton,mouse.rightButton,mouse.clicked_name,Colour2,similarity,mouse_2.x,mouse_2.y,mouse_2.leftButton,mouse_2.midButton,mouse_2.rightButton,mouse_2.clicked_name,mouse_3.x,mouse_3.y,mouse_3.leftButton,mouse_3.midButton,mouse_3.rightButton,catchnumber,catchtrialorder,mouse_11.x,mouse_11.y,mouse_11.leftButton,mouse_11.midButton,mouse_11.rightButton,trials_2.thisRepN,trials_2.thisTrialN,trials_2.thisN,trials_2.thisIndex,trials_2.ran,Colour1,mouse_3.clicked_name,mouse_11.clicked_name
space,0.939425,space,15.67741,space,14.56618,space,7.81899,space,0.799795,space,3.066195,140,PF,65.33117676,-47.77233887,1,0,0,response3disk_5,5,9.67383,3.640686035,0.858154297,1,0,0,rectangle_8,-80.98553467,-32.75823975,1,0,0,response5disk_7,2,-7.77746582,-3.512573242,1,0,0,rectangle_4,0,0,0,4,1,5f3663dd7dda2100096d4a81,60a7d7fa4e3ef8b5f5a00b00,2021-05-21_17h56.26.997,Simcolourproject_2stim_asymm_v5,2020.2.10,MacIntel,60,60a5f9bf14d0aa2821c4bb84,,,,,,,,,,,,,,,,,,,,,,,,,,,,,,,,,,,,,
,,,,,,,,,,,,10,FF,-83.38409424,-46.72967529,1,0,0,response5disk_5,5,5.08421,15.93847656,-3.72454834,1,0,0,rectangle_8,-93.01025391,-61.91229248,1,0,0,response5disk_7,2,5.066589355,-5.372772217,1,0,0,rectangle_4,0,1,1,3,1,5f3663dd7dda2100096d4a81,60a7d7fa4e3ef8b5f5a00b00,2021-05-21_17h56.26.997,Simcolourproject_2stim_asymm_v5,2020.2.10,MacIntel,60,60a5f9bf14d0aa2821c4bb84,,,,,,,,,,,,,,,,,,,,,,,,,,,,,,,,,,,,,
,,,,,,,,,,,,113,FF,62.45263672,29.8425293,1,0,0,response1disk_5,6,1.94875,5.486022949,-4.74609375,1,0,0,rectangle_8,5.486022949,-4.74609375,1,0,0,,2,5.486022949,-4.74609375,1,0,0,,0,2,2,0,1,5f3663dd7dda2100096d4a81,60a7d7fa4e3ef8b5f5a00b00,2021-05-21_17h56.26.997,Simcolourproject_2stim_asymm_v5,2020.2.10,MacIntel,60,60a5f9bf14d0aa2821c4bb84,,,,,,,,,,,,,,,,,,,,,,,,,,,,,,,,,,,,,
,,,,,,,,,,,,31,PF,-39.35974121,69.92974854,1,0,0,response7disk_5,0,3.785625,5.596801758,-3.832824707,1,0,0,rectangle_8,5.596801758,-3.832824707,1,0,0,,2,5.596801758,-3.832824707,1,0,0,,0,3,3,1,1,5f3663dd7dda2100096d4a81,60a7d7fa4e3ef8b5f5a00b00,2021-05-21_17h56.26.997,Simcolourproject_2stim_asymm_v5,2020.2.10,MacIntel,60,60a5f9bf14d0aa2821c4bb84,,,,,,,,,,,,,,,,,,,,,,,,,,,,,,,,,,,,,
,,,,,,,,,,,,132,FF,57.78106689,-45.93164063,1,0,0,response3disk_5,5,3.08138,16.11859131,-11.55325317,1,0,0,rectangle_8,16.11859131,-11.55325317,1,0,0,,2,16.11859131,-11.55325317,1,0,0,,0,4,4,5,1,5f3663dd7dda2100096d4a81,60a7d7fa4e3ef8b5f5a00b00,2021-05-21_17h56.26.997,Simcolourproject_2stim_asymm_v5,2020.2.10,MacIntel,60,60a5f9bf14d0aa2821c4bb84,,,,,,,,,,,,,,,,,,,,,,,,,,,,,,,,,,,,,
,,,,,,,,,,,,111,PF,-69.99707031,39.20202637,1,0,0,response7disk_5,1,4.15202,-5.215332031,-6.587249756,1,0,0,rectangle_8,-5.215332031,-6.587249756,1,0,0,,2,-5.215332031,-6.587249756,1,0,0,,0,5,5,2,1,5f3663dd7dda2100096d4a81,60a7d7fa4e3ef8b5f5a00b00,2021-05-21_17h56.26.997,Simcolourproject_2stim_asymm_v5,2020.2.10,MacIntel,60,60a5f9bf14d0aa2821c4bb84,,,,,,,,,,,,,,,,,,,,,,,,,,,,,,,,,,,,,
,,,,,,,,,,,,149,PF,-42.02099609,61.4888916,1,0,0,response7disk_5,0,1.41632,-14.28161621,-7.289489746,1,0,0,rectangle_8,-14.28161621,-7.289489746,1,0,0,,2,-14.28161621,-7.289489746,1,0,0,,0,6,6,6,1,5f3663dd7dda2100096d4a81,60a7d7fa4e3ef8b5f5a00b00,2021-05-21_17h56.26.997,Simcolourproject_2stim_asymm_v5,2020.2.10,MacIntel,60,60a5f9bf14d0aa2821c4bb84,,,,,,,,,,,,,,,,,,,,,,,,,,,,,,,,,,,,,
,,,,,,,,,,,,,FF,,,,,,,,4.62049,,,,,,,,,,,,,,,,,,,,,,,,,5f3663dd7dda2100096d4a81,60a7d7fa4e3ef8b5f5a00b00,2021-05-21_17h56.26.997,Simcolourproject_2stim_asymm_v5,2020.2.10,MacIntel,60,60a5f9bf14d0aa2821c4bb84,space,2.98135,3350,41.13098145,-74.1696167,1,0,0,response3disk,,4,-0.829833984,-8.739379883,1,0,0,rectangle,-0.829833984,-8.739379883,1,0,0,7,"[178,301,10,40,129,266,47,195,60,64,161,165,136,43,323,279,190,79,287,108]",-0.829833984,-8.739379883,1,0,0,0,0,0,69,1,,,
,,,,,,,,,,,,,FF,,,,,,,,1.5664,,,,,,,,,,,,,,,,,,,,,,,,,5f3663dd7dda2100096d4a81,60a7d7fa4e3ef8b5f5a00b00,2021-05-21_17h56.26.997,Simcolourproject_2stim_asymm_v5,2020.2.10,MacIntel,60,60a5f9bf14d0aa2821c4bb84,,,1246,-77.32489014,55.76565552,1,0,0,response7disk,,1,1.762084961,-0.673522949,1,0,0,rectangle,1.762084961,-0.673522949,1,0,0,4,"[178,301,10,40,129,266,47,195,60,64,161,165,136,43,323,279,190,79,287,108]",1.762084961,-0.673522949,1,0,0,0,1,1,5,1,,,
,,,,,,,,,,,,,FF,,,,,,,,1.46678,,,,,,,,,,,,,,,,,,,,,,,,,5f3663dd7dda2100096d4a81,60a7d7fa4e3ef8b5f5a00b00,2021-05-21_17h56.26.997,Simcolourproject_2stim_asymm_v5,2020.2.10,MacIntel,60,60a5f9bf14d0aa2821c4bb84,,,3835,32.98168945,-51.71478271,1,0,0,response3disk,,4,-2.777832031,-1.952789307,1,0,0,rectangle,-2.777832031,-1.952789307,1,0,0,6,"[178,301,10,40,129,266,47,195,60,64,161,165,136,43,323,279,190,79,287,108]",-2.777832031,-1.952789307,1,0,0,0,2,2,38,1,,,
,,,,,,,,,,,,,FF,,,,,,,,1.616815,,,,,,,,,,,,,,,,,,,,,,,,,5f3663dd7dda2100096d4a81,60a7d7fa4e3ef8b5f5a00b00,2021-05-21_17h56.26.997,Simcolourproject_2stim_asymm_v5,2020.2.10,MacIntel,60,60a5f9bf14d0aa2821c4bb84,,,4190,61.15576172,32.26428223,1,0,0,response1disk,,6,1.345458984,-0.492980957,1,0,0,rectangle,1.345458984,-0.492980957,1,0,0,7,"[178,301,10,40,129,266,47,195,60,64,161,165,136,43,323,279,190,79,287,108]",1.345458984,-0.492980957,1,0,0,0,3,3,72,1,,,
,,,,,,,,,,,,,FF,,,,,,,,2.41705,,,,,,,,,,,,,,,,,,,,,,,,,5f3663dd7dda2100096d4a81,60a7d7fa4e3ef8b5f5a00b00,2021-05-21_17h56.26.997,Simcolourproject_2stim_asymm_v5,2020.2.10,MacIntel,60,60a5f9bf14d0aa2821c4bb84,,,2051,40.80126953,-71.76367188,1,0,0,response3disk,,4,1.427612305,-6.647033691,1,0,0,rectangle,1.427612305,-6.647033691,1,0,0,0,"[178,301,10,40,129,266,47,195,60,64,161,165,136,43,323,279,190,79,287,108]",1.427612305,-6.647033691,1,0,0,0,4,4,61,1,,,
,,,,,,,,,,,,,FF,,,,,,,,0.8987,,,,,,,,,,,,,,,,,,,,,,,,,5f3663dd7dda2100096d4a81,60a7d7fa4e3ef8b5f5a00b00,2021-05-21_17h56.26.997,Simcolourproject_2stim_asymm_v5,2020.2.10,MacIntel,60,60a5f9bf14d0aa2821c4bb84,,,3707,32.20404053,66.08197021,1,0,0,response1disk,,7,13.21728516,1.254211426,1,0,0,rectangle,13.21728516,1.254211426,1,0,0,6,"[178,301,10,40,129,266,47,195,60,64,161,165,136,43,323,279,190,79,287,108]",13.21728516,1.254211426,1,0,0,0,5,5,109,1,,,
,,,,,,,,,,,,,FF,,,,,,,,1.1673,,,,,,,,,,,,,,,,,,,,,,,,,5f3663dd7dda2100096d4a81,60a7d7fa4e3ef8b5f5a00b00,2021-05-21_17h56.26.997,Simcolourproject_2stim_asymm_v5,2020.2.10,MacIntel,60,60a5f9bf14d0aa2821c4bb84,,,3113,-32.02008057,-57.58959961,1,0,0,response5disk,,3,-11.72119141,-10.26489258,1,0,0,rectangle,-11.72119141,-10.26489258,1,0,0,3,"[178,301,10,40,129,266,47,195,60,64,161,165,136,43,323,279,190,79,287,108]",-11.72119141,-10.26489258,1,0,0,0,6,6,132,1,,,
,,,,,,,,,,,,,FF,,,,,,,,1.95003,,,,,,,,,,,,,,,,,,,,,,,,,5f3663dd7dda2100096d4a81,60a7d7fa4e3ef8b5f5a00b00,2021-05-21_17h56.26.997,Simcolourproject_2stim_asymm_v5,2020.2.10,MacIntel,60,60a5f9bf14d0aa2821c4bb84,,,2551,-75.64129639,-38.29293823,1,0,0,response5disk,,3,10.37805176,2.073181152,1,0,0,rectangle,10.37805176,2.073181152,1,0,0,5,"[178,301,10,40,129,266,47,195,60,64,161,165,136,43,323,279,190,79,287,108]",10.37805176,2.073181152,1,0,0,0,7,7,118,1,,,
,,,,,,,,,,,,,FF,,,,,,,,0.849985,,,,,,,,,,,,,,,,,,,,,,,,,5f3663dd7dda2100096d4a81,60a7d7fa4e3ef8b5f5a00b00,2021-05-21_17h56.26.997,Simcolourproject_2stim_asymm_v5,2020.2.10,MacIntel,60,60a5f9bf14d0aa2821c4bb84,,,1602,61.5279541,40.39318848,1,0,0,response1disk,,6,6.454162598,-2.853393555,1,0,0,rectangle,6.454162598,-2.853393555,1,0,0,4,"[178,301,10,40,129,266,47,195,60,64,161,165,136,43,323,279,190,79,287,108]",6.454162598,-2.853393555,1,0,0,0,8,8,14,1,,,
,,,,,,,,,,,,,FF,,,,,,,,0.733685,,,,,,,,,,,,,,,,,,,,,,,,,5f3663dd7dda2100096d4a81,60a7d7fa4e3ef8b5f5a00b00,2021-05-21_17h56.26.997,Simcolourproject_2stim_asymm_v5,2020.2.10,MacIntel,60,60a5f9bf14d0aa2821c4bb84,,,3381,46.31884766,70.9921875,1,0,0,response1disk,,7,17.0133667,-1.464599609,1,0,0,rectangle,-97.49206543,35.56341553,1,0,0,1,"[178,301,10,40,129,266,47,195,60,64,161,165,136,43,323,279,190,79,287,108]",-5.969055176,-7.879333496,1,0,0,0,9,9,114,1,,response7disk_3,rectangle
,,,,,,,,,,,,,FF,,,,,,,,1.41663,,,,,,,,,,,,,,,,,,,,,,,,,5f3663dd7dda2100096d4a81,60a7d7fa4e3ef8b5f5a00b00,2021-05-21_17h56.26.997,Simcolourproject_2stim_asymm_v5,2020.2.10,MacIntel,60,60a5f9bf14d0aa2821c4bb84,,,2803,-34.67663574,72.90270996,1,0,0,response7disk,,0,2.949645996,-8.047943115,1,0,0,rectangle,2.949645996,-8.047943115,1,0,0,5,"[178,301,10,40,129,266,47,195,60,64,161,165,136,43,323,279,190,79,287,108]",2.949645996,-8.047943115,1,0,0,0,10,10,7,1,,,
,,,,,,,,,,,,,FF,,,,,,,,0.950575,,,,,,,,,,,,,,,,,,,,,,,,,5f3663dd7dda2100096d4a81,60a7d7fa4e3ef8b5f5a00b00,2021-05-21_17h56.26.997,Simcolourproject_2stim_asymm_v5,2020.2.10,MacIntel,60,60a5f9bf14d0aa2821c4bb84,,,548,78.64801025,34.78045654,1,0,0,response1disk,,6,6.381103516,0.998962402,1,0,0,rectangle,6.381103516,0.998962402,1,0,0,0,"[178,301,10,40,129,266,47,195,60,64,161,165,136,43,323,279,190,79,287,108]",6.381103516,0.998962402,1,0,0,0,11,11,110,1,,,
,,,,,,,,,,,,,FF,,,,,,,,1.99967,,,,,,,,,,,,,,,,,,,,,,,,,5f3663dd7dda2100096d4a81,60a7d7fa4e3ef8b5f5a00b00,2021-05-21_17h56.26.997,Simcolourproject_2stim_asymm_v5,2020.2.10,MacIntel,60,60a5f9bf14d0aa2821c4bb84,,,3638,-49.24188232,-29.68960571,1,0,0,response5disk,,6,22.04370117,-0.897644043,1,0,0,rectangle,22.04370117,-0.897644043,1,0,0,2,"[178,301,10,40,129,266,47,195,60,64,161,165,136,43,323,279,190,79,287,108]",22.04370117,-0.897644043,1,0,0,0,12,12,107,1,,,
,,,,,,,,,,,,,FF,,,,,,,,0.901495,,,,,,,,,,,,,,,,,,,,,,,,,5f3663dd7dda2100096d4a81,60a7d7fa4e3ef8b5f5a00b00,2021-05-21_17h56.26.997,Simcolourproject_2stim_asymm_v5,2020.2.10,MacIntel,60,60a5f9bf14d0aa2821c4bb84,,,1644,-35.66241455,77.17895508,1,0,0,response7disk,,0,8.571594238,-0.357879639,1,0,0,rectangle,8.571594238,-0.357879639,1,0,0,5,"[178,301,10,40,129,266,47,195,60,64,161,165,136,43,323,279,190,79,287,108]",8.571594238,-0.357879639,1,0,0,0,13,13,117,1,,,
,,,,,,,,,,,,,FF,,,,,,,,0.76787,,,,,,,,,,,,,,,,,,,,,,,,,5f3663dd7dda2100096d4a81,60a7d7fa4e3ef8b5f5a00b00,2021-05-21_17h56.26.997,Simcolourproject_2stim_asymm_v5,2020.2.10,MacIntel,60,60a5f9bf14d0aa2821c4bb84,,,4161,37.44348145,78.47418213,1,0,0,response1disk,,7,13.55303955,-2.699584961,1,0,0,rectangle,13.55303955,-2.699584961,1,0,0,7,"[178,301,10,40,129,266,47,195,60,64,161,165,136,43,323,279,190,79,287,108]",13.55303955,-2.699584961,1,0,0,0,14,14,17,1,,,
,,,,,,,,,,,,,FF,,,,,,,,2.31755,,,,,,,,,,,,,,,,,,,,,,,,,5f3663dd7dda2100096d4a81,60a7d7fa4e3ef8b5f5a00b00,2021-05-21_17h56.26.997,Simcolourproject_2stim_asymm_v5,2020.2.10,MacIntel,60,60a5f9bf14d0aa2821c4bb84,,,578,-74.9196167,-37.99957275,1,0,0,response5disk,,7,-10.67602539,-2.624908447,1,0,0,rectangle,-10.67602539,-2.624908447,1,0,0,5,"[178,301,10,40,129,266,47,195,60,64,161,165,136,43,323,279,190,79,287,108]",-10.67602539,-2.624908447,1,0,0,0,15,15,101,1,,,
,,,,,,,,,,,,,FF,,,,,,,,0.882515,,,,,,,,,,,,,,,,,,,,,,,,,5f3663dd7dda2100096d4a81,60a7d7fa4e3ef8b5f5a00b00,2021-05-21_17h56.26.997,Simcolourproject_2stim_asymm_v5,2020.2.10,MacIntel,60,60a5f9bf14d0aa2821c4bb84,,,3352,-32.57861328,65.72497559,1,0,0,response7disk,,0,0.239135742,-6.290466309,1,0,0,rectangle,0.239135742,-6.290466309,1,0,0,6,"[178,301,10,40,129,266,47,195,60,64,161,165,136,43,323,279,190,79,287,108]",0.239135742,-6.290466309,1,0,0,0,16,16,94,1,,,
,,,,,,,,,,,,,FF,,,,,,,,1.116205,,,,,,,,,,,,,,,,,,,,,,,,,5f3663dd7dda2100096d4a81,60a7d7fa4e3ef8b5f5a00b00,2021-05-21_17h56.26.997,Simcolourproject_2stim_asymm_v5,2020.2.10,MacIntel,60,60a5f9bf14d0aa2821c4bb84,,,1245,-37.9005127,62.35327148,1,0,0,response7disk,,0,-6.151489258,3.74887085,1,0,0,rectangle,-6.151489258,3.74887085,1,0,0,4,"[178,301,10,40,129,266,47,195,60,64,161,165,136,43,323,279,190,79,287,108]",-6.151489258,3.74887085,1,0,0,0,17,17,36,1,,,
,,,,,,,,,,,,,FF,,,,,,,,1.00131,,,,,,,,,,,,,,,,,,,,,,,,,5f3663dd7dda2100096d4a81,60a7d7fa4e3ef8b5f5a00b00,2021-05-21_17h56.26.997,Simcolourproject_2stim_asymm_v5,2020.2.10,MacIntel,60,60a5f9bf14d0aa2821c4bb84,,,4068,-28.52026367,70.23529053,1,0,0,response7disk,,0,10.81286621,1.870300293,1,0,0,rectangle,10.81286621,1.870300293,1,0,0,7,"[178,301,10,40,129,266,47,195,60,64,161,165,136,43,323,279,190,79,287,108]",10.81286621,1.870300293,1,0,0,0,18,18,40,1,,,
,,,,,,,,,,,,,FF,,,,,,,,1.41732,,,,,,,,,,,,,,,,,,,,,,,,,5f3663dd7dda2100096d4a81,60a7d7fa4e3ef8b5f5a00b00,2021-05-21_17h56.26.997,Simcolourproject_2stim_asymm_v5,2020.2.10,MacIntel,60,60a5f9bf14d0aa2821c4bb84,,,109,-62.45825195,-37.5581665,1,0,0,response5disk,,0,-4.280578613,-4.085571289,1,0,0,rectangle,-4.280578613,-4.085571289,1,0,0,4,"[178,301,10,40,129,266,47,195,60,64,161,165,136,43,323,279,190,79,287,108]",-4.280578613,-4.085571289,1,0,0,0,19,19,56,1,,,
,,,,,,,,,,,,,FF,,,,,,,,2.00066,,,,,,,,,,,,,,,,,,,,,,,,,5f3663dd7dda2100096d4a81,60a7d7fa4e3ef8b5f5a00b00,2021-05-21_17h56.26.997,Simcolourproject_2stim_asymm_v5,2020.2.10,MacIntel,60,60a5f9bf14d0aa2821c4bb84,,,3355,-58.67700195,40.53088379,1,0,0,response7disk,,1,-24.81848145,16.02636719,1,0,0,rectangle,-24.81848145,16.02636719,1,0,0,6,"[178,301,10,40,129,266,47,195,60,64,161,165,136,43,323,279,190,79,287,108]",-24.81848145,16.02636719,1,0,0,0,20,20,124,1,,,
,,,,,,,,,,,,,FF,,,,,,,,1.71823,,,,,,,,,,,,,,,,,,,,,,,,,5f3663dd7dda2100096d4a81,60a7d7fa4e3ef8b5f5a00b00,2021-05-21_17h56.26.997,Simcolourproject_2stim_asymm_v5,2020.2.10,MacIntel,60,60a5f9bf14d0aa2821c4bb84,,,3656,-54.9631958,29.35171509,1,0,0,response7disk,,1,0.484619141,0.344421387,1,0,0,rectangle,0.484619141,0.344421387,1,0,0,6,"[178,301,10,40,129,266,47,195,60,64,161,165,136,43,323,279,190,79,287,108]",0.484619141,0.344421387,1,0,0,0,21,21,28,1,,,
,,,,,,,,,,,,,FF,,,,,,,,1.133825,,,,,,,,,,,,,,,,,,,,,,,,,5f3663dd7dda2100096d4a81,60a7d7fa4e3ef8b5f5a00b00,2021-05-21_17h56.26.997,Simcolourproject_2stim_asymm_v5,2020.2.10,MacIntel,60,60a5f9bf14d0aa2821c4bb84,,,1551,-23.16156006,64.71347046,1,0,0,response7disk,,0,3.199462891,-3.584259033,1,0,0,rectangle,3.199462891,-3.584259033,1,0,0,1,"[178,301,10,40,129,266,47,195,60,64,161,165,136,43,323,279,190,79,287,108]",3.199462891,-3.584259033,1,0,0,0,22,22,44,1,,,
,,,,,,,,,,,,,FF,,,,,,,,2.25411,,,,,,,,,,,,,,,,,,,,,,,,,5f3663dd7dda2100096d4a81,60a7d7fa4e3ef8b5f5a00b00,2021-05-21_17h56.26.997,Simcolourproject_2stim_asymm_v5,2020.2.10,MacIntel,60,60a5f9bf14d0aa2821c4bb84,,,472,-26.05444336,56.28973389,1,0,0,response7disk,,0,8.120910645,-5.85357666,1,0,0,rectangle,8.120910645,-5.85357666,1,0,0,3,"[178,301,10,40,129,266,47,195,60,64,161,165,136,43,323,279,190,79,287,108]",8.120910645,-5.85357666,1,0,0,0,23,23,158,1,,,
,,,,,,,,,,,,,FF,,,,,,,,1.314815,,,,,,,,,,,,,,,,,,,,,,,,,5f3663dd7dda2100096d4a81,60a7d7fa4e3ef8b5f5a00b00,2021-05-21_17h56.26.997,Simcolourproject_2stim_asymm_v5,2020.2.10,MacIntel,60,60a5f9bf14d0aa2821c4bb84,,,468,50.97515869,-30.2010498,1,0,0,response3disk,,5,11.22198486,-8.913513184,1,0,0,rectangle,11.22198486,-8.913513184,1,0,0,2,"[178,301,10,40,129,266,47,195,60,64,161,165,136,43,323,279,190,79,287,108]",11.22198486,-8.913513184,1,0,0,0,24,24,86,1,,,
,,,,,,,,,,,,,FF,,,,,,,,1.104555,,,,,,,,,,,,,,,,,,,,,,,,,5f3663dd7dda2100096d4a81,60a7d7fa4e3ef8b5f5a00b00,2021-05-21_17h56.26.997,Simcolourproject_2stim_asymm_v5,2020.2.10,MacIntel,60,60a5f9bf14d0aa2821c4bb84,,,237,-22.2746582,-55.93243408,1,0,0,response5disk,,3,-1.641418457,-3.372253418,1,0,0,rectangle,-1.641418457,-3.372253418,1,0,0,4,"[178,301,10,40,129,266,47,195,60,64,161,165,136,43,323,279,190,79,287,108]",-1.641418457,-3.372253418,1,0,0,0,25,25,150,1,,,
,,,,,,,,,,,,,FF,,,,,,,,3.619835,,,,,,,,,,,,,,,,,,,,,,,,,5f3663dd7dda2100096d4a81,60a7d7fa4e3ef8b5f5a00b00,2021-05-21_17h56.26.997,Simcolourproject_2stim_asymm_v5,2020.2.10,MacIntel,60,60a5f9bf14d0aa2821c4bb84,,,219,-27.16003418,64.17871094,1,0,0,response7disk,,0,-8.225830078,-9.840576172,1,0,0,rectangle,-8.225830078,-9.840576172,1,0,0,7,"[178,301,10,40,129,266,47,195,60,64,161,165,136,43,323,279,190,79,287,108]",-8.225830078,-9.840576172,1,0,0,0,26,26,76,1,,,
,,,,,,,,,,,,,FF,,,,,,,,1.884725,,,,,,,,,,,,,,,,,,,,,,,,,5f3663dd7dda2100096d4a81,60a7d7fa4e3ef8b5f5a00b00,2021-05-21_17h56.26.997,Simcolourproject_2stim_asymm_v5,2020.2.10,MacIntel,60,60a5f9bf14d0aa2821c4bb84,,,1941,-63.03796387,-38.918396,1,0,0,response5disk,,0,-6.20300293,-5.366088867,1,0,0,rectangle,-6.20300293,-5.366088867,1,0,0,1,"[178,301,10,40,129,266,47,195,60,64,161,165,136,43,323,279,190,79,287,108]",-6.20300293,-5.366088867,1,0,0,0,27,27,70,1,,,
,,,,,,,,,,,,,FF,,,,,,,,1.083355,,,,,,,,,,,,,,,,,,,,,,,,,5f3663dd7dda2100096d4a81,60a7d7fa4e3ef8b5f5a00b00,2021-05-21_17h56.26.997,Simcolourproject_2stim_asymm_v5,2020.2.10,MacIntel,60,60a5f9bf14d0aa2821c4bb84,,,4299,-72.78369141,-38.14859009,1,0,0,response5disk,,0,-6.649230957,-10.64935303,1,0,0,rectangle,-6.649230957,-10.64935303,1,0,0,6,"[178,301,10,40,129,266,47,195,60,64,161,165,136,43,323,279,190,79,287,108]",-6.649230957,-10.64935303,1,0,0,0,28,28,53,1,,,
,,,,,,,,,,,,,FF,,,,,,,,0.837655,,,,,,,,,,,,,,,,,,,,,,,,,5f3663dd7dda2100096d4a81,60a7d7fa4e3ef8b5f5a00b00,2021-05-21_17h56.26.997,Simcolourproject_2stim_asymm_v5,2020.2.10,MacIntel,60,60a5f9bf14d0aa2821c4bb84,,,3919,-39.24920654,56.0357666,1,0,0,response7disk,,0,5.237731934,-15.9942627,1,0,0,rectangle,5.237731934,-15.9942627,1,0,0,7,"[178,301,10,40,129,266,47,195,60,64,161,165,136,43,323,279,190,79,287,108]",5.237731934,-15.9942627,1,0,0,0,29,29,45,1,,,
,,,,,,,,,,,,,FF,,,,,,,,1.06524,,,,,,,,,,,,,,,,,,,,,,,,,5f3663dd7dda2100096d4a81,60a7d7fa4e3ef8b5f5a00b00,2021-05-21_17h56.26.997,Simcolourproject_2stim_asymm_v5,2020.2.10,MacIntel,60,60a5f9bf14d0aa2821c4bb84,,,1853,-49.39257813,32.49206543,1,0,0,response7disk,,1,25.67468262,-9.873168945,1,0,0,rectangle,25.67468262,-9.873168945,1,0,0,7,"[178,301,10,40,129,266,47,195,60,64,161,165,136,43,323,279,190,79,287,108]",25.67468262,-9.873168945,1,0,0,0,30,30,42,1,,,
,,,,,,,,,,,,,FF,,,,,,,,2.91913,,,,,,,,,,,,,,,,,,,,,,,,,5f3663dd7dda2100096d4a81,60a7d7fa4e3ef8b5f5a00b00,2021-05-21_17h56.26.997,Simcolourproject_2stim_asymm_v5,2020.2.10,MacIntel,60,60a5f9bf14d0aa2821c4bb84,,,51,-32.00732422,52.13534546,1,0,0,response7disk,,0,-12.51525879,-9.273284912,1,0,0,rectangle,-12.51525879,-9.273284912,1,0,0,6,"[178,301,10,40,129,266,47,195,60,64,161,165,136,43,323,279,190,79,287,108]",-12.51525879,-9.273284912,1,0,0,0,31,31,12,1,,,
,,,,,,,,,,,,,FF,,,,,,,,1.501995,,,,,,,,,,,,,,,,,,,,,,,,,5f3663dd7dda2100096d4a81,60a7d7fa4e3ef8b5f5a00b00,2021-05-21_17h56.26.997,Simcolourproject_2stim_asymm_v5,2020.2.10,MacIntel,60,60a5f9bf14d0aa2821c4bb84,,,815,58.81488037,-35.59643555,1,0,0,response3disk,,5,-5.863891602,-4.559020996,1,0,0,rectangle,-5.863891602,-4.559020996,1,0,0,2,"[178,301,10,40,129,266,47,195,60,64,161,165,136,43,323,279,190,79,287,108]",-5.863891602,-4.559020996,1,0,0,0,32,32,157,1,,,
,,,,,,,,,,,,,FF,,,,,,,,1.116975,,,,,,,,,,,,,,,,,,,,,,,,,5f3663dd7dda2100096d4a81,60a7d7fa4e3ef8b5f5a00b00,2021-05-21_17h56.26.997,Simcolourproject_2stim_asymm_v5,2020.2.10,MacIntel,60,60a5f9bf14d0aa2821c4bb84,,,2740,-64.3651123,26.65863037,1,0,0,response7disk,,1,-2.887878418,-1.640930176,1,0,0,rectangle,-2.887878418,-1.640930176,1,0,0,4,"[178,301,10,40,129,266,47,195,60,64,161,165,136,43,323,279,190,79,287,108]",-2.887878418,-1.640930176,1,0,0,0,33,33,0,1,,,
,,,,,,,,,,,,,FF,,,,,,,,1.5682,,,,,,,,,,,,,,,,,,,,,,,,,5f3663dd7dda2100096d4a81,60a7d7fa4e3ef8b5f5a00b00,2021-05-21_17h56.26.997,Simcolourproject_2stim_asymm_v5,2020.2.10,MacIntel,60,60a5f9bf14d0aa2821c4bb84,,,2,76.34564209,24.92584229,1,0,0,response1disk,,6,22.53411865,10.58117676,1,0,0,rectangle,22.53411865,10.58117676,1,0,0,4,"[178,301,10,40,129,266,47,195,60,64,161,165,136,43,323,279,190,79,287,108]",22.53411865,10.58117676,1,0,0,0,34,34,33,1,,,
,,,,,,,,,,,,,FF,,,,,,,,1.583105,,,,,,,,,,,,,,,,,,,,,,,,,5f3663dd7dda2100096d4a81,60a7d7fa4e3ef8b5f5a00b00,2021-05-21_17h56.26.997,Simcolourproject_2stim_asymm_v5,2020.2.10,MacIntel,60,60a5f9bf14d0aa2821c4bb84,,,3846,61.18914795,15.44708252,1,0,0,response1disk,,6,19.49707031,-5.213470459,1,0,0,rectangle,19.49707031,-5.213470459,1,0,0,3,"[178,301,10,40,129,266,47,195,60,64,161,165,136,43,323,279,190,79,287,108]",19.49707031,-5.213470459,1,0,0,0,35,35,85,1,,,
,,,,,,,,,,,,,FF,,,,,,,,0.752655,,,,,,,,,,,,,,,,,,,,,,,,,5f3663dd7dda2100096d4a81,60a7d7fa4e3ef8b5f5a00b00,2021-05-21_17h56.26.997,Simcolourproject_2stim_asymm_v5,2020.2.10,MacIntel,60,60a5f9bf14d0aa2821c4bb84,,,3843,35.70465088,73.89019775,1,0,0,response1disk,,7,16.35882568,8.71206665,1,0,0,rectangle,16.35882568,8.71206665,1,0,0,0,"[178,301,10,40,129,266,47,195,60,64,161,165,136,43,323,279,190,79,287,108]",16.35882568,8.71206665,1,0,0,0,36,36,54,1,,,
,,,,,,,,,,,,,FF,,,,,,,,6.336075,,,,,,,,,,,,,,,,,,,,,,,,,5f3663dd7dda2100096d4a81,60a7d7fa4e3ef8b5f5a00b00,2021-05-21_17h56.26.997,Simcolourproject_2stim_asymm_v5,2020.2.10,MacIntel,60,60a5f9bf14d0aa2821c4bb84,,,3968,22.78814697,-64.90930176,1,0,0,response3disk,,4,-2.907531738,1.758178711,1,0,0,rectangle,-2.907531738,1.758178711,1,0,0,7,"[178,301,10,40,129,266,47,195,60,64,161,165,136,43,323,279,190,79,287,108]",-2.907531738,1.758178711,1,0,0,0,37,37,11,1,,,
,,,,,,,,,,,,,FF,,,,,,,,1.90003,,,,,,,,,,,,,,,,,,,,,,,,,5f3663dd7dda2100096d4a81,60a7d7fa4e3ef8b5f5a00b00,2021-05-21_17h56.26.997,Simcolourproject_2stim_asymm_v5,2020.2.10,MacIntel,60,60a5f9bf14d0aa2821c4bb84,,,3912,-39.33398438,-52.24206543,1,0,0,response5disk,,3,22.28833008,5.335083008,1,0,0,rectangle,22.28833008,5.335083008,1,0,0,7,"[178,301,10,40,129,266,47,195,60,64,161,165,136,43,323,279,190,79,287,108]",22.28833008,5.335083008,1,0,0,0,38,38,119,1,,,
,,,,,,,,,,,,,FF,,,,,,,,1.60122,,,,,,,,,,,,,,,,,,,,,,,,,5f3663dd7dda2100096d4a81,60a7d7fa4e3ef8b5f5a00b00,2021-05-21_17h56.26.997,Simcolourproject_2stim_asymm_v5,2020.2.10,MacIntel,60,60a5f9bf14d0aa2821c4bb84,,,2030,61.53912354,-35.03118896,1,0,0,response3disk,,5,16.30688477,-7.487670898,1,0,0,rectangle,-32.54522705,88.65588379,1,0,0,0,"[178,301,10,40,129,266,47,195,60,64,161,165,136,43,323,279,190,79,287,108]",-1.863647461,-3.402648926,1,0,0,0,39,39,48,1,,response7disk_3,rectangle
,,,,,,,,,,,,,FF,,,,,,,,2.18794,,,,,,,,,,,,,,,,,,,,,,,,,5f3663dd7dda2100096d4a81,60a7d7fa4e3ef8b5f5a00b00,2021-05-21_17h56.26.997,Simcolourproject_2stim_asymm_v5,2020.2.10,MacIntel,60,60a5f9bf14d0aa2821c4bb84,,,1111,-79.57806396,-53.90142822,1,0,0,response5disk,,0,1.046386719,1.632476807,1,0,0,rectangle,1.046386719,1.632476807,1,0,0,1,"[178,301,10,40,129,266,47,195,60,64,161,165,136,43,323,279,190,79,287,108]",1.046386719,1.632476807,1,0,0,0,40,40,95,1,,,
,,,,,,,,,,,,,FF,,,,,,,,1.06988,,,,,,,,,,,,,,,,,,,,,,,,,5f3663dd7dda2100096d4a81,60a7d7fa4e3ef8b5f5a00b00,2021-05-21_17h56.26.997,Simcolourproject_2stim_asymm_v5,2020.2.10,MacIntel,60,60a5f9bf14d0aa2821c4bb84,,,1606,25.36767578,-76.9977417,1,0,0,response3disk,,4,2.037902832,-12.34875488,1,0,0,rectangle,2.037902832,-12.34875488,1,0,0,0,"[178,301,10,40,129,266,47,195,60,64,161,165,136,43,323,279,190,79,287,108]",2.037902832,-12.34875488,1,0,0,0,41,41,51,1,,,
,,,,,,,,,,,,,FF,,,,,,,,2.61842,,,,,,,,,,,,,,,,,,,,,,,,,5f3663dd7dda2100096d4a81,60a7d7fa4e3ef8b5f5a00b00,2021-05-21_17h56.26.997,Simcolourproject_2stim_asymm_v5,2020.2.10,MacIntel,60,60a5f9bf14d0aa2821c4bb84,,,3251,96.95111084,-18.87139893,1,0,0,response3disk,,5,-15.83099365,-6.876251221,1,0,0,rectangle,28.37976074,72.92428589,1,0,0,7,"[178,301,10,40,129,266,47,195,60,64,161,165,136,43,323,279,190,79,287,108]",-4.438964844,-6.118560791,1,0,0,0,42,42,80,1,,response1disk_3,rectangle
,,,,,,,,,,,,,FF,,,,,,,,6.43118,,,,,,,,,,,,,,,,,,,,,,,,,5f3663dd7dda2100096d4a81,60a7d7fa4e3ef8b5f5a00b00,2021-05-21_17h56.26.997,Simcolourproject_2stim_asymm_v5,2020.2.10,MacIntel,60,60a5f9bf14d0aa2821c4bb84,,,4288,57.72753906,-31.83795166,1,0,0,response3disk,,5,13.94714355,-0.626159668,1,0,0,rectangle,13.94714355,-0.626159668,1,0,0,6,"[178,301,10,40,129,266,47,195,60,64,161,165,136,43,323,279,190,79,287,108]",13.94714355,-0.626159668,1,0,0,0,43,43,106,1,,,
,,,,,,,,,,,,,FF,,,,,,,,2.915125,,,,,,,,,,,,,,,,,,,,,,,,,5f3663dd7dda2100096d4a81,60a7d7fa4e3ef8b5f5a00b00,2021-05-21_17h56.26.997,Simcolourproject_2stim_asymm_v5,2020.2.10,MacIntel,60,60a5f9bf14d0aa2821c4bb84,,,2575,-53.52941895,29.44897461,1,0,0,response7disk,,1,9.578735352,2.119506836,1,0,0,rectangle,9.578735352,2.119506836,1,0,0,7,"[178,301,10,40,129,266,47,195,60,64,161,165,136,43,323,279,190,79,287,108]",9.578735352,2.119506836,1,0,0,0,44,44,64,1,,,
,,,,,,,,,,,,,FF,,,,,,,,5.75364,,,,,,,,,,,,,,,,,,,,,,,,,5f3663dd7dda2100096d4a81,60a7d7fa4e3ef8b5f5a00b00,2021-05-21_17h56.26.997,Simcolourproject_2stim_asymm_v5,2020.2.10,MacIntel,60,60a5f9bf14d0aa2821c4bb84,,,1915,-48.81481934,-65.92285156,1,0,0,response5disk,,3,3.804382324,0.34463501,1,0,0,rectangle,3.804382324,0.34463501,1,0,0,7,"[178,301,10,40,129,266,47,195,60,64,161,165,136,43,323,279,190,79,287,108]",3.804382324,0.34463501,1,0,0,0,45,45,18,1,,,
,,,,,,,,,,,,,FF,,,,,,,,1.948315,,,,,,,,,,,,,,,,,,,,,,,,,5f3663dd7dda2100096d4a81,60a7d7fa4e3ef8b5f5a00b00,2021-05-21_17h56.26.997,Simcolourproject_2stim_asymm_v5,2020.2.10,MacIntel,60,60a5f9bf14d0aa2821c4bb84,,,3976,-62.39776611,-29.23974609,1,0,0,response5disk,,3,-3.13684082,-6.767791748,1,0,0,rectangle,82.67333984,-32.17776489,1,0,0,5,"[178,301,10,40,129,266,47,195,60,64,161,165,136,43,323,279,190,79,287,108]",3.020019531,-1.13092041,1,0,0,0,46,46,125,1,,response3disk_3,rectangle
,,,,,,,,,,,,,FF,,,,,,,,1.053285,,,,,,,,,,,,,,,,,,,,,,,,,5f3663dd7dda2100096d4a81,60a7d7fa4e3ef8b5f5a00b00,2021-05-21_17h56.26.997,Simcolourproject_2stim_asymm_v5,2020.2.10,MacIntel,60,60a5f9bf14d0aa2821c4bb84,,,2519,-52.00854492,25.05560303,1,0,0,response7disk,,1,-7.05847168,7.438354492,1,0,0,rectangle,-7.05847168,7.438354492,1,0,0,4,"[178,301,10,40,129,266,47,195,60,64,161,165,136,43,323,279,190,79,287,108]",-7.05847168,7.438354492,1,0,0,0,47,47,149,1,,,
,,,,,,,,,,,,,FF,,,,,,,,1.669015,,,,,,,,,,,,,,,,,,,,,,,,,5f3663dd7dda2100096d4a81,60a7d7fa4e3ef8b5f5a00b00,2021-05-21_17h56.26.997,Simcolourproject_2stim_asymm_v5,2020.2.10,MacIntel,60,60a5f9bf14d0aa2821c4bb84,,,3650,-27.56433105,55.77230835,1,0,0,response7disk,,0,-1.705444336,0.336181641,1,0,0,rectangle,-1.705444336,0.336181641,1,0,0,2,"[178,301,10,40,129,266,47,195,60,64,161,165,136,43,323,279,190,79,287,108]",-1.705444336,0.336181641,1,0,0,0,48,48,66,1,,,
,,,,,,,,,,,,,FF,,,,,,,,1.134065,,,,,,,,,,,,,,,,,,,,,,,,,5f3663dd7dda2100096d4a81,60a7d7fa4e3ef8b5f5a00b00,2021-05-21_17h56.26.997,Simcolourproject_2stim_asymm_v5,2020.2.10,MacIntel,60,60a5f9bf14d0aa2821c4bb84,,,4011,-41.96911621,67.98284912,1,0,0,response7disk,,0,16.80511475,-3.502380371,1,0,0,rectangle,16.80511475,-3.502380371,1,0,0,1,"[178,301,10,40,129,266,47,195,60,64,161,165,136,43,323,279,190,79,287,108]",16.80511475,-3.502380371,1,0,0,0,49,49,21,1,,,
,,,,,,,,,,,,,FF,,,,,,,,2.2513,,,,,,,,,,,,,,,,,,,,,,,,,5f3663dd7dda2100096d4a81,60a7d7fa4e3ef8b5f5a00b00,2021-05-21_17h56.26.997,Simcolourproject_2stim_asymm_v5,2020.2.10,MacIntel,60,60a5f9bf14d0aa2821c4bb84,,,3262,-28.89233398,69.10107422,1,0,0,response7disk,,0,-17.76251221,15.72238159,1,0,0,rectangle,-17.76251221,15.72238159,1,0,0,5,"[178,301,10,40,129,266,47,195,60,64,161,165,136,43,323,279,190,79,287,108]",-17.76251221,15.72238159,1,0,0,0,50,50,35,1,,,
,,,,,,,,,,,,,FF,,,,,,,,1.016815,,,,,,,,,,,,,,,,,,,,,,,,,5f3663dd7dda2100096d4a81,60a7d7fa4e3ef8b5f5a00b00,2021-05-21_17h56.26.997,Simcolourproject_2stim_asymm_v5,2020.2.10,MacIntel,60,60a5f9bf14d0aa2821c4bb84,,,3967,67.92785645,36.17053223,1,0,0,response1disk,,6,12.61248779,3.072143555,1,0,0,rectangle,12.61248779,3.072143555,1,0,0,6,"[178,301,10,40,129,266,47,195,60,64,161,165,136,43,323,279,190,79,287,108]",12.61248779,3.072143555,1,0,0,0,51,51,16,1,,,
,,,,,,,,,,,,,FF,,,,,,,,3.7506,,,,,,,,,,,,,,,,,,,,,,,,,5f3663dd7dda2100096d4a81,60a7d7fa4e3ef8b5f5a00b00,2021-05-21_17h56.26.997,Simcolourproject_2stim_asymm_v5,2020.2.10,MacIntel,60,60a5f9bf14d0aa2821c4bb84,,,1270,-53.54699707,27.43423462,1,0,0,response7disk,,1,-9.456848145,-1.575683594,1,0,0,rectangle,-9.456848145,-1.575683594,1,0,0,4,"[178,301,10,40,129,266,47,195,60,64,161,165,136,43,323,279,190,79,287,108]",-9.456848145,-1.575683594,1,0,0,0,52,52,43,1,,,
,,,,,,,,,,,,,FF,,,,,,,,1.03174,,,,,,,,,,,,,,,,,,,,,,,,,5f3663dd7dda2100096d4a81,60a7d7fa4e3ef8b5f5a00b00,2021-05-21_17h56.26.997,Simcolourproject_2stim_asymm_v5,2020.2.10,MacIntel,60,60a5f9bf14d0aa2821c4bb84,,,4241,-25.45098877,-71.43939209,1,0,0,response5disk,,3,-16.44970703,-0.650817871,1,0,0,rectangle,-16.44970703,-0.650817871,1,0,0,1,"[178,301,10,40,129,266,47,195,60,64,161,165,136,43,323,279,190,79,287,108]",-16.44970703,-0.650817871,1,0,0,0,53,53,75,1,,,
,,,,,,,,,,,,,FF,,,,,,,,1.18415,,,,,,,,,,,,,,,,,,,,,,,,,5f3663dd7dda2100096d4a81,60a7d7fa4e3ef8b5f5a00b00,2021-05-21_17h56.26.997,Simcolourproject_2stim_asymm_v5,2020.2.10,MacIntel,60,60a5f9bf14d0aa2821c4bb84,,,1659,-29.19549561,69.48880005,1,0,0,response7disk,,0,-5.258117676,0.324462891,1,0,0,rectangle,-5.258117676,0.324462891,1,0,0,6,"[178,301,10,40,129,266,47,195,60,64,161,165,136,43,323,279,190,79,287,108]",-5.258117676,0.324462891,1,0,0,0,54,54,8,1,,,
,,,,,,,,,,,,,FF,,,,,,,,1.199195,,,,,,,,,,,,,,,,,,,,,,,,,5f3663dd7dda2100096d4a81,60a7d7fa4e3ef8b5f5a00b00,2021-05-21_17h56.26.997,Simcolourproject_2stim_asymm_v5,2020.2.10,MacIntel,60,60a5f9bf14d0aa2821c4bb84,,,396,-53.71374512,-25.16644287,1,0,0,response5disk,,0,-5.76574707,-6.310058594,1,0,0,rectangle,-5.76574707,-6.310058594,1,0,0,0,"[178,301,10,40,129,266,47,195,60,64,161,165,136,43,323,279,190,79,287,108]",-5.76574707,-6.310058594,1,0,0,0,55,55,129,1,,,
,,,,,,,,,,,,,FF,,,,,,,,3.253505,,,,,,,,,,,,,,,,,,,,,,,,,5f3663dd7dda2100096d4a81,60a7d7fa4e3ef8b5f5a00b00,2021-05-21_17h56.26.997,Simcolourproject_2stim_asymm_v5,2020.2.10,MacIntel,60,60a5f9bf14d0aa2821c4bb84,,,1841,-46.35540771,26.70626831,1,0,0,response7disk,,1,-5.963623047,9.516052246,1,0,0,rectangle,-5.963623047,9.516052246,1,0,0,1,"[178,301,10,40,129,266,47,195,60,64,161,165,136,43,323,279,190,79,287,108]",-5.963623047,9.516052246,1,0,0,0,56,56,73,1,,,
,,,,,,,,,,,,,FF,,,,,,,,1.369815,,,,,,,,,,,,,,,,,,,,,,,,,5f3663dd7dda2100096d4a81,60a7d7fa4e3ef8b5f5a00b00,2021-05-21_17h56.26.997,Simcolourproject_2stim_asymm_v5,2020.2.10,MacIntel,60,60a5f9bf14d0aa2821c4bb84,,,1838,-29.56195068,-78.28637695,1,0,0,response5disk,,3,-0.621337891,-3.51751709,1,0,0,rectangle,-0.621337891,-3.51751709,1,0,0,4,"[178,301,10,40,129,266,47,195,60,64,161,165,136,43,323,279,190,79,287,108]",-0.621337891,-3.51751709,1,0,0,0,57,57,113,1,,,
,,,,,,,,,,,,,FF,,,,,,,,3.251565,,,,,,,,,,,,,,,,,,,,,,,,,5f3663dd7dda2100096d4a81,60a7d7fa4e3ef8b5f5a00b00,2021-05-21_17h56.26.997,Simcolourproject_2stim_asymm_v5,2020.2.10,MacIntel,60,60a5f9bf14d0aa2821c4bb84,,,1376,-47.51696777,-25.66888428,1,0,0,response5disk,,3,-7.46496582,-17.64416504,1,0,0,rectangle,-7.46496582,-17.64416504,1,0,0,6,"[178,301,10,40,129,266,47,195,60,64,161,165,136,43,323,279,190,79,287,108]",-7.46496582,-17.64416504,1,0,0,0,58,58,152,1,,,
,,,,,,,,,,,,,FF,,,,,,,,0.914585,,,,,,,,,,,,,,,,,,,,,,,,,5f3663dd7dda2100096d4a81,60a7d7fa4e3ef8b5f5a00b00,2021-05-21_17h56.26.997,Simcolourproject_2stim_asymm_v5,2020.2.10,MacIntel,60,60a5f9bf14d0aa2821c4bb84,,,85,-48.7567749,69.7956543,1,0,0,response7disk,,0,-21.18310547,3.842590332,1,0,0,rectangle,90.80834961,29.93023682,1,0,0,6,"[178,301,10,40,129,266,47,195,60,64,161,165,136,43,323,279,190,79,287,108]",16.28442383,-5.061645508,1,0,0,0,59,59,58,1,,response1disk_3,rectangle
,,,,,,,,,,,,,FF,,,,,,,,1.58593,,,,,,,,,,,,,,,,,,,,,,,,,5f3663dd7dda2100096d4a81,60a7d7fa4e3ef8b5f5a00b00,2021-05-21_17h56.26.997,Simcolourproject_2stim_asymm_v5,2020.2.10,MacIntel,60,60a5f9bf14d0aa2821c4bb84,,,1366,-73.53863525,25.80511475,1,0,0,response7disk,,1,-10.33361816,0.984436035,1,0,0,rectangle,-10.33361816,0.984436035,1,0,0,2,"[178,301,10,40,129,266,47,195,60,64,161,165,136,43,323,279,190,79,287,108]",-10.33361816,0.984436035,1,0,0,0,60,60,47,1,,,
,,,,,,,,,,,,,FF,,,,,,,,0.91527,,,,,,,,,,,,,,,,,,,,,,,,,5f3663dd7dda2100096d4a81,60a7d7fa4e3ef8b5f5a00b00,2021-05-21_17h56.26.997,Simcolourproject_2stim_asymm_v5,2020.2.10,MacIntel,60,60a5f9bf14d0aa2821c4bb84,,,2322,-48.13696289,-23.09768677,1,0,0,response5disk,,1,-0.064147949,-4.073425293,1,0,0,rectangle,-0.064147949,-4.073425293,1,0,0,5,"[178,301,10,40,129,266,47,195,60,64,161,165,136,43,323,279,190,79,287,108]",-0.064147949,-4.073425293,1,0,0,0,61,61,27,1,,,
,,,,,,,,,,,,,FF,,,,,,,,0.767075,,,,,,,,,,,,,,,,,,,,,,,,,5f3663dd7dda2100096d4a81,60a7d7fa4e3ef8b5f5a00b00,2021-05-21_17h56.26.997,Simcolourproject_2stim_asymm_v5,2020.2.10,MacIntel,60,60a5f9bf14d0aa2821c4bb84,,,2980,-26.40435791,68.3894043,1,0,0,response7disk,,0,-2.40057373,0.666931152,1,0,0,rectangle,-2.40057373,0.666931152,1,0,0,1,"[178,301,10,40,129,266,47,195,60,64,161,165,136,43,323,279,190,79,287,108]",-2.40057373,0.666931152,1,0,0,0,62,62,88,1,,,
,,,,,,,,,,,,,FF,,,,,,,,1.05099,,,,,,,,,,,,,,,,,,,,,,,,,5f3663dd7dda2100096d4a81,60a7d7fa4e3ef8b5f5a00b00,2021-05-21_17h56.26.997,Simcolourproject_2stim_asymm_v5,2020.2.10,MacIntel,60,60a5f9bf14d0aa2821c4bb84,,,3010,-69.87994385,32.26696777,1,0,0,response7disk,,1,-1.532226563,3.297241211,1,0,0,rectangle,84.32562256,-35.74514771,1,0,0,5,"[178,301,10,40,129,266,47,195,60,64,161,165,136,43,323,279,190,79,287,108]",-0.028442383,-3.744567871,1,0,0,0,63,63,37,1,,response3disk_3,rectangle
,,,,,,,,,,,,,FF,,,,,,,,1.15284,,,,,,,,,,,,,,,,,,,,,,,,,5f3663dd7dda2100096d4a81,60a7d7fa4e3ef8b5f5a00b00,2021-05-21_17h56.26.997,Simcolourproject_2stim_asymm_v5,2020.2.10,MacIntel,60,60a5f9bf14d0aa2821c4bb84,,,4088,-65.59344482,-46.0279541,1,0,0,response5disk,,5,10.36791992,-1.505004883,1,0,0,rectangle,10.36791992,-1.505004883,1,0,0,4,"[178,301,10,40,129,266,47,195,60,64,161,165,136,43,323,279,190,79,287,108]",10.36791992,-1.505004883,1,0,0,0,64,64,83,1,,,
,,,,,,,,,,,,,FF,,,,,,,,1.30451,,,,,,,,,,,,,,,,,,,,,,,,,5f3663dd7dda2100096d4a81,60a7d7fa4e3ef8b5f5a00b00,2021-05-21_17h56.26.997,Simcolourproject_2stim_asymm_v5,2020.2.10,MacIntel,60,60a5f9bf14d0aa2821c4bb84,,,1821,48.06793213,-58.93249512,1,0,0,response3disk,,4,16.34741211,-1.008117676,1,0,0,rectangle,16.34741211,-1.008117676,1,0,0,0,"[178,301,10,40,129,266,47,195,60,64,161,165,136,43,323,279,190,79,287,108]",16.34741211,-1.008117676,1,0,0,0,65,65,78,1,,,
,,,,,,,,,,,,,FF,,,,,,,,0.885345,,,,,,,,,,,,,,,,,,,,,,,,,5f3663dd7dda2100096d4a81,60a7d7fa4e3ef8b5f5a00b00,2021-05-21_17h56.26.997,Simcolourproject_2stim_asymm_v5,2020.2.10,MacIntel,60,60a5f9bf14d0aa2821c4bb84,,,442,76.24902344,-33.59082031,1,0,0,response3disk,,5,31.5838623,-8.44720459,1,0,0,rectangle,31.5838623,-8.44720459,1,0,0,1,"[178,301,10,40,129,266,47,195,60,64,161,165,136,43,323,279,190,79,287,108]",31.5838623,-8.44720459,1,0,0,0,66,66,137,1,,,
,,,,,,,,,,,,,FF,,,,,,,,0.96412,,,,,,,,,,,,,,,,,,,,,,,,,5f3663dd7dda2100096d4a81,60a7d7fa4e3ef8b5f5a00b00,2021-05-21_17h56.26.997,Simcolourproject_2stim_asymm_v5,2020.2.10,MacIntel,60,60a5f9bf14d0aa2821c4bb84,,,2028,72.65722656,-38.69400024,1,0,0,response3disk,,5,2.73815918,-5.332885742,1,0,0,rectangle,2.73815918,-5.332885742,1,0,0,7,"[178,301,10,40,129,266,47,195,60,64,161,165,136,43,323,279,190,79,287,108]",2.73815918,-5.332885742,1,0,0,0,67,67,147,1,,,
,,,,,,,,,,,,,FF,,,,,,,,1.049075,,,,,,,,,,,,,,,,,,,,,,,,,5f3663dd7dda2100096d4a81,60a7d7fa4e3ef8b5f5a00b00,2021-05-21_17h56.26.997,Simcolourproject_2stim_asymm_v5,2020.2.10,MacIntel,60,60a5f9bf14d0aa2821c4bb84,,,755,-52.68383789,-32.46697998,1,0,0,response5disk,,5,-14.85925293,-12.07110596,1,0,0,rectangle,-14.85925293,-12.07110596,1,0,0,0,"[178,301,10,40,129,266,47,195,60,64,161,165,136,43,323,279,190,79,287,108]",-14.85925293,-12.07110596,1,0,0,0,68,68,60,1,,,
,,,,,,,,,,,,,FF,,,,,,,,1.06452,,,,,,,,,,,,,,,,,,,,,,,,,5f3663dd7dda2100096d4a81,60a7d7fa4e3ef8b5f5a00b00,2021-05-21_17h56.26.997,Simcolourproject_2stim_asymm_v5,2020.2.10,MacIntel,60,60a5f9bf14d0aa2821c4bb84,,,317,-30.90808105,60.05535889,1,0,0,response7disk,,0,-10.76867676,-0.335174561,1,0,0,rectangle,-10.76867676,-0.335174561,1,0,0,6,"[178,301,10,40,129,266,47,195,60,64,161,165,136,43,323,279,190,79,287,108]",-10.76867676,-0.335174561,1,0,0,0,69,69,55,1,,,
,,,,,,,,,,,,,FF,,,,,,,,1.384,,,,,,,,,,,,,,,,,,,,,,,,,5f3663dd7dda2100096d4a81,60a7d7fa4e3ef8b5f5a00b00,2021-05-21_17h56.26.997,Simcolourproject_2stim_asymm_v5,2020.2.10,MacIntel,60,60a5f9bf14d0aa2821c4bb84,,,3577,-49.04919434,21.04168701,1,0,0,response7disk,,1,1.262512207,4.756103516,1,0,0,rectangle,1.262512207,4.756103516,1,0,0,6,"[178,301,10,40,129,266,47,195,60,64,161,165,136,43,323,279,190,79,287,108]",1.262512207,4.756103516,1,0,0,0,70,70,122,1,,,
,,,,,,,,,,,,,FF,,,,,,,,1.18617,,,,,,,,,,,,,,,,,,,,,,,,,5f3663dd7dda2100096d4a81,60a7d7fa4e3ef8b5f5a00b00,2021-05-21_17h56.26.997,Simcolourproject_2stim_asymm_v5,2020.2.10,MacIntel,60,60a5f9bf14d0aa2821c4bb84,,,1809,-62.95178223,-38.84191895,1,0,0,response5disk,,1,-8.842895508,-4.191467285,1,0,0,rectangle,-8.842895508,-4.191467285,1,0,0,4,"[178,301,10,40,129,266,47,195,60,64,161,165,136,43,323,279,190,79,287,108]",-8.842895508,-4.191467285,1,0,0,0,71,71,30,1,,,
,,,,,,,,,,,,,FF,,,,,,,,1.350515,,,,,,,,,,,,,,,,,,,,,,,,,5f3663dd7dda2100096d4a81,60a7d7fa4e3ef8b5f5a00b00,2021-05-21_17h56.26.997,Simcolourproject_2stim_asymm_v5,2020.2.10,MacIntel,60,60a5f9bf14d0aa2821c4bb84,,,3532,-38.47039795,58.00317383,1,0,0,response7disk,,0,-11.67016602,11.27853394,1,0,0,rectangle,-11.67016602,11.27853394,1,0,0,7,"[178,301,10,40,129,266,47,195,60,64,161,165,136,43,323,279,190,79,287,108]",-11.67016602,11.27853394,1,0,0,0,72,72,9,1,,,
,,,,,,,,,,,,,FF,,,,,,,,2.40206,,,,,,,,,,,,,,,,,,,,,,,,,5f3663dd7dda2100096d4a81,60a7d7fa4e3ef8b5f5a00b00,2021-05-21_17h56.26.997,Simcolourproject_2stim_asymm_v5,2020.2.10,MacIntel,60,60a5f9bf14d0aa2821c4bb84,,,2079,-47.4487915,23.65011597,1,0,0,response7disk,,1,-18.14404297,13.54281616,1,0,0,rectangle,-18.14404297,13.54281616,1,0,0,0,"[178,301,10,40,129,266,47,195,60,64,161,165,136,43,323,279,190,79,287,108]",-18.14404297,13.54281616,1,0,0,0,73,73,81,1,,,
,,,,,,,,,,,,,FF,,,,,,,,0.70005,,,,,,,,,,,,,,,,,,,,,,,,,5f3663dd7dda2100096d4a81,60a7d7fa4e3ef8b5f5a00b00,2021-05-21_17h56.26.997,Simcolourproject_2stim_asymm_v5,2020.2.10,MacIntel,60,60a5f9bf14d0aa2821c4bb84,,,3333,-22.65148926,62.67681885,1,0,0,response7disk,,0,10.53094482,-0.395172119,1,0,0,rectangle,10.53094482,-0.395172119,1,0,0,0,"[178,301,10,40,129,266,47,195,60,64,161,165,136,43,323,279,190,79,287,108]",10.53094482,-0.395172119,1,0,0,0,74,74,41,1,,,
,,,,,,,,,,,,,FF,,,,,,,,1.216765,,,,,,,,,,,,,,,,,,,,,,,,,5f3663dd7dda2100096d4a81,60a7d7fa4e3ef8b5f5a00b00,2021-05-21_17h56.26.997,Simcolourproject_2stim_asymm_v5,2020.2.10,MacIntel,60,60a5f9bf14d0aa2821c4bb84,,,3107,-32.77130127,-70.52612305,1,0,0,response5disk,,3,2.235107422,-2.264892578,1,0,0,rectangle,2.235107422,-2.264892578,1,0,0,6,"[178,301,10,40,129,266,47,195,60,64,161,165,136,43,323,279,190,79,287,108]",2.235107422,-2.264892578,1,0,0,0,75,75,29,1,,,
,,,,,,,,,,,,,FF,,,,,,,,1.382935,,,,,,,,,,,,,,,,,,,,,,,,,5f3663dd7dda2100096d4a81,60a7d7fa4e3ef8b5f5a00b00,2021-05-21_17h56.26.997,Simcolourproject_2stim_asymm_v5,2020.2.10,MacIntel,60,60a5f9bf14d0aa2821c4bb84,,,1044,-28.94372559,44.06103516,1,0,0,response7disk,,0,1.013977051,3.53729248,1,0,0,rectangle,1.013977051,3.53729248,1,0,0,6,"[178,301,10,40,129,266,47,195,60,64,161,165,136,43,323,279,190,79,287,108]",1.013977051,3.53729248,1,0,0,0,76,76,77,1,,,
,,,,,,,,,,,,,FF,,,,,,,,1.56938,,,,,,,,,,,,,,,,,,,,,,,,,5f3663dd7dda2100096d4a81,60a7d7fa4e3ef8b5f5a00b00,2021-05-21_17h56.26.997,Simcolourproject_2stim_asymm_v5,2020.2.10,MacIntel,60,60a5f9bf14d0aa2821c4bb84,,,1047,-22.13574219,65.92608643,1,0,0,response7disk,,0,-0.645690918,-4.537719727,1,0,0,rectangle,-0.645690918,-4.537719727,1,0,0,4,"[178,301,10,40,129,266,47,195,60,64,161,165,136,43,323,279,190,79,287,108]",-0.645690918,-4.537719727,1,0,0,0,77,77,142,1,,,
,,,,,,,,,,,,,FF,,,,,,,,1.151655,,,,,,,,,,,,,,,,,,,,,,,,,5f3663dd7dda2100096d4a81,60a7d7fa4e3ef8b5f5a00b00,2021-05-21_17h56.26.997,Simcolourproject_2stim_asymm_v5,2020.2.10,MacIntel,60,60a5f9bf14d0aa2821c4bb84,,,1289,-21.28063965,62.59243774,1,0,0,response7disk,,0,4.729675293,2.617919922,1,0,0,rectangle,34.20605469,-85.20172119,1,0,0,4,"[178,301,10,40,129,266,47,195,60,64,161,165,136,43,323,279,190,79,287,108]",3.997436523,-0.802246094,1,0,0,0,78,78,134,1,,response3disk_3,rectangle
,,,,,,,,,,,,,FF,,,,,,,,3.998995,,,,,,,,,,,,,,,,,,,,,,,,,5f3663dd7dda2100096d4a81,60a7d7fa4e3ef8b5f5a00b00,2021-05-21_17h56.26.997,Simcolourproject_2stim_asymm_v5,2020.2.10,MacIntel,60,60a5f9bf14d0aa2821c4bb84,,,2317,-32.71276855,64.73547363,1,0,0,response7disk,,0,-2.053283691,-13.54156494,1,0,0,rectangle,-2.053283691,-13.54156494,1,0,0,2,"[178,301,10,40,129,266,47,195,60,64,161,165,136,43,323,279,190,79,287,108]",-2.053283691,-13.54156494,1,0,0,0,79,79,154,1,,,
,,,,,,,,,,,,,FF,,,,,,,,4.285795,,,,,,,,,,,,,,,,,,,,,,,,,5f3663dd7dda2100096d4a81,60a7d7fa4e3ef8b5f5a00b00,2021-05-21_17h56.26.997,Simcolourproject_2stim_asymm_v5,2020.2.10,MacIntel,60,60a5f9bf14d0aa2821c4bb84,,,1154,-27.01721191,49.17056274,1,0,0,response7disk,,0,-5.32434082,-6.166656494,1,0,0,rectangle,-5.32434082,-6.166656494,1,0,0,0,"[178,301,10,40,129,266,47,195,60,64,161,165,136,43,323,279,190,79,287,108]",-5.32434082,-6.166656494,1,0,0,0,80,80,123,1,,,
,,,,,,,,,,,,,FF,,,,,,,,2.03358,,,,,,,,,,,,,,,,,,,,,,,,,5f3663dd7dda2100096d4a81,60a7d7fa4e3ef8b5f5a00b00,2021-05-21_17h56.26.997,Simcolourproject_2stim_asymm_v5,2020.2.10,MacIntel,60,60a5f9bf14d0aa2821c4bb84,,,3517,29.32440186,-71.66418457,1,0,0,response3disk,,4,6.037841797,-5.666900635,1,0,0,rectangle,6.037841797,-5.666900635,1,0,0,4,"[178,301,10,40,129,266,47,195,60,64,161,165,136,43,323,279,190,79,287,108]",6.037841797,-5.666900635,1,0,0,0,81,81,139,1,,,
,,,,,,,,,,,,,FF,,,,,,,,0.98329,,,,,,,,,,,,,,,,,,,,,,,,,5f3663dd7dda2100096d4a81,60a7d7fa4e3ef8b5f5a00b00,2021-05-21_17h56.26.997,Simcolourproject_2stim_asymm_v5,2020.2.10,MacIntel,60,60a5f9bf14d0aa2821c4bb84,,,2822,-23.71179199,62.20556641,1,0,0,response7disk,,0,3.950256348,-0.011871338,1,0,0,rectangle,3.950256348,-0.011871338,1,0,0,0,"[178,301,10,40,129,266,47,195,60,64,161,165,136,43,323,279,190,79,287,108]",3.950256348,-0.011871338,1,0,0,0,82,82,15,1,,,
,,,,,,,,,,,,,FF,,,,,,,,0.81907,,,,,,,,,,,,,,,,,,,,,,,,,5f3663dd7dda2100096d4a81,60a7d7fa4e3ef8b5f5a00b00,2021-05-21_17h56.26.997,Simcolourproject_2stim_asymm_v5,2020.2.10,MacIntel,60,60a5f9bf14d0aa2821c4bb84,,,1085,-35.03155518,59.43084717,1,0,0,response7disk,,0,-2.515258789,-1.976776123,1,0,0,rectangle,-2.515258789,-1.976776123,1,0,0,1,"[178,301,10,40,129,266,47,195,60,64,161,165,136,43,323,279,190,79,287,108]",-2.515258789,-1.976776123,1,0,0,0,83,83,102,1,,,
,,,,,,,,,,,,,FF,,,,,,,,1.38553,,,,,,,,,,,,,,,,,,,,,,,,,5f3663dd7dda2100096d4a81,60a7d7fa4e3ef8b5f5a00b00,2021-05-21_17h56.26.997,Simcolourproject_2stim_asymm_v5,2020.2.10,MacIntel,60,60a5f9bf14d0aa2821c4bb84,,,128,-26.4342041,63.04553223,1,0,0,response7disk,,0,10.02508545,-2.335479736,1,0,0,rectangle,10.02508545,-2.335479736,1,0,0,1,"[178,301,10,40,129,266,47,195,60,64,161,165,136,43,323,279,190,79,287,108]",10.02508545,-2.335479736,1,0,0,0,84,84,144,1,,,
,,,,,,,,,,,,,FF,,,,,,,,1.550175,,,,,,,,,,,,,,,,,,,,,,,,,5f3663dd7dda2100096d4a81,60a7d7fa4e3ef8b5f5a00b00,2021-05-21_17h56.26.997,Simcolourproject_2stim_asymm_v5,2020.2.10,MacIntel,60,60a5f9bf14d0aa2821c4bb84,,,1018,-71.72637939,30.58724976,1,0,0,response7disk,,1,-16.38153076,1.598632813,1,0,0,rectangle,-16.38153076,1.598632813,1,0,0,0,"[178,301,10,40,129,266,47,195,60,64,161,165,136,43,323,279,190,79,287,108]",-16.38153076,1.598632813,1,0,0,0,85,85,100,1,,,
,,,,,,,,,,,,,FF,,,,,,,,0.591135,,,,,,,,,,,,,,,,,,,,,,,,,5f3663dd7dda2100096d4a81,60a7d7fa4e3ef8b5f5a00b00,2021-05-21_17h56.26.997,Simcolourproject_2stim_asymm_v5,2020.2.10,MacIntel,60,60a5f9bf14d0aa2821c4bb84,,,1947,-25.89160156,67.07366943,1,0,0,response7disk,,0,4.992370605,-0.01739502,1,0,0,rectangle,4.992370605,-0.01739502,1,0,0,0,"[178,301,10,40,129,266,47,195,60,64,161,165,136,43,323,279,190,79,287,108]",4.992370605,-0.01739502,1,0,0,0,86,86,99,1,,,
,,,,,,,,,,,,,FF,,,,,,,,0.73783,,,,,,,,,,,,,,,,,,,,,,,,,5f3663dd7dda2100096d4a81,60a7d7fa4e3ef8b5f5a00b00,2021-05-21_17h56.26.997,Simcolourproject_2stim_asymm_v5,2020.2.10,MacIntel,60,60a5f9bf14d0aa2821c4bb84,,,1258,-34.91619873,55.25817871,1,0,0,response7disk,,0,-5.396972656,6.35269165,1,0,0,rectangle,-5.396972656,6.35269165,1,0,0,7,"[178,301,10,40,129,266,47,195,60,64,161,165,136,43,323,279,190,79,287,108]",-5.396972656,6.35269165,1,0,0,0,87,87,24,1,,,
,,,,,,,,,,,,,FF,,,,,,,,1.152455,,,,,,,,,,,,,,,,,,,,,,,,,5f3663dd7dda2100096d4a81,60a7d7fa4e3ef8b5f5a00b00,2021-05-21_17h56.26.997,Simcolourproject_2stim_asymm_v5,2020.2.10,MacIntel,60,60a5f9bf14d0aa2821c4bb84,,,722,74.55627441,-41.98373413,1,0,0,response3disk,,5,-2.399963379,-1.932067871,1,0,0,rectangle,-2.399963379,-1.932067871,1,0,0,1,"[178,301,10,40,129,266,47,195,60,64,161,165,136,43,323,279,190,79,287,108]",-2.399963379,-1.932067871,1,0,0,0,88,88,6,1,,,
,,,,,,,,,,,,,FF,,,,,,,,3.38827,,,,,,,,,,,,,,,,,,,,,,,,,5f3663dd7dda2100096d4a81,60a7d7fa4e3ef8b5f5a00b00,2021-05-21_17h56.26.997,Simcolourproject_2stim_asymm_v5,2020.2.10,MacIntel,60,60a5f9bf14d0aa2821c4bb84,,,1342,-31.05456543,51.00415039,1,0,0,response7disk,,0,-0.202392578,1.309570313,1,0,0,rectangle,-0.202392578,1.309570313,1,0,0,7,"[178,301,10,40,129,266,47,195,60,64,161,165,136,43,323,279,190,79,287,108]",-0.202392578,1.309570313,1,0,0,0,89,89,46,1,,,
,,,,,,,,,,,,,FF,,,,,,,,1.55182,,,,,,,,,,,,,,,,,,,,,,,,,5f3663dd7dda2100096d4a81,60a7d7fa4e3ef8b5f5a00b00,2021-05-21_17h56.26.997,Simcolourproject_2stim_asymm_v5,2020.2.10,MacIntel,60,60a5f9bf14d0aa2821c4bb84,,,3718,-32.97912598,-62.47705078,1,0,0,response5disk,,3,-2.382995605,-14.17120361,1,0,0,rectangle,-2.382995605,-14.17120361,1,0,0,5,"[178,301,10,40,129,266,47,195,60,64,161,165,136,43,323,279,190,79,287,108]",-2.382995605,-14.17120361,1,0,0,0,90,90,93,1,,,
,,,,,,,,,,,,,FF,,,,,,,,1.717805,,,,,,,,,,,,,,,,,,,,,,,,,5f3663dd7dda2100096d4a81,60a7d7fa4e3ef8b5f5a00b00,2021-05-21_17h56.26.997,Simcolourproject_2stim_asymm_v5,2020.2.10,MacIntel,60,60a5f9bf14d0aa2821c4bb84,,,1594,-56.65924072,30.31881714,1,0,0,response7disk,,1,-14.80316162,4.295410156,1,0,0,rectangle,-14.80316162,4.295410156,1,0,0,4,"[178,301,10,40,129,266,47,195,60,64,161,165,136,43,323,279,190,79,287,108]",-14.80316162,4.295410156,1,0,0,0,91,91,34,1,,,
,,,,,,,,,,,,,FF,,,,,,,,1.198215,,,,,,,,,,,,,,,,,,,,,,,,,5f3663dd7dda2100096d4a81,60a7d7fa4e3ef8b5f5a00b00,2021-05-21_17h56.26.997,Simcolourproject_2stim_asymm_v5,2020.2.10,MacIntel,60,60a5f9bf14d0aa2821c4bb84,,,3936,35.706604,76.81289673,1,0,0,response1disk,,7,15.78613281,2.037963867,1,0,0,rectangle,15.78613281,2.037963867,1,0,0,2,"[178,301,10,40,129,266,47,195,60,64,161,165,136,43,323,279,190,79,287,108]",15.78613281,2.037963867,1,0,0,0,92,92,136,1,,,
,,,,,,,,,,,,,FF,,,,,,,,1.216145,,,,,,,,,,,,,,,,,,,,,,,,,5f3663dd7dda2100096d4a81,60a7d7fa4e3ef8b5f5a00b00,2021-05-21_17h56.26.997,Simcolourproject_2stim_asymm_v5,2020.2.10,MacIntel,60,60a5f9bf14d0aa2821c4bb84,,,3964,-41.52099609,56.94702148,1,0,0,response7disk,,0,0.057373047,2.710906982,1,0,0,rectangle,0.057373047,2.710906982,1,0,0,4,"[178,301,10,40,129,266,47,195,60,64,161,165,136,43,323,279,190,79,287,108]",0.057373047,2.710906982,1,0,0,0,93,93,26,1,,,
,,,,,,,,,,,,,FF,,,,,,,,1.483925,,,,,,,,,,,,,,,,,,,,,,,,,5f3663dd7dda2100096d4a81,60a7d7fa4e3ef8b5f5a00b00,2021-05-21_17h56.26.997,Simcolourproject_2stim_asymm_v5,2020.2.10,MacIntel,60,60a5f9bf14d0aa2821c4bb84,,,4268,63.66479492,-37.01226807,1,0,0,response3disk,,5,-5.626220703,-0.235473633,1,0,0,rectangle,-5.626220703,-0.235473633,1,0,0,5,"[178,301,10,40,129,266,47,195,60,64,161,165,136,43,323,279,190,79,287,108]",-5.626220703,-0.235473633,1,0,0,0,94,94,153,1,,,
,,,,,,,,,,,,,FF,,,,,,,,0.682515,,,,,,,,,,,,,,,,,,,,,,,,,5f3663dd7dda2100096d4a81,60a7d7fa4e3ef8b5f5a00b00,2021-05-21_17h56.26.997,Simcolourproject_2stim_asymm_v5,2020.2.10,MacIntel,60,60a5f9bf14d0aa2821c4bb84,,,1755,67.58648682,-27.67700195,1,0,0,response3disk,,5,8.371337891,-9.538696289,1,0,0,rectangle,8.371337891,-9.538696289,1,0,0,6,"[178,301,10,40,129,266,47,195,60,64,161,165,136,43,323,279,190,79,287,108]",8.371337891,-9.538696289,1,0,0,0,95,95,98,1,,,
,,,,,,,,,,,,,FF,,,,,,,,1.59907,,,,,,,,,,,,,,,,,,,,,,,,,5f3663dd7dda2100096d4a81,60a7d7fa4e3ef8b5f5a00b00,2021-05-21_17h56.26.997,Simcolourproject_2stim_asymm_v5,2020.2.10,MacIntel,60,60a5f9bf14d0aa2821c4bb84,,,2581,-34.86047363,78.08422852,1,0,0,response7disk,,0,-4.778442383,12.02081299,1,0,0,rectangle,-4.778442383,12.02081299,1,0,0,1,"[178,301,10,40,129,266,47,195,60,64,161,165,136,43,323,279,190,79,287,108]",-4.778442383,12.02081299,1,0,0,0,96,96,112,1,,,
,,,,,,,,,,,,,FF,,,,,,,,0.71657,,,,,,,,,,,,,,,,,,,,,,,,,5f3663dd7dda2100096d4a81,60a7d7fa4e3ef8b5f5a00b00,2021-05-21_17h56.26.997,Simcolourproject_2stim_asymm_v5,2020.2.10,MacIntel,60,60a5f9bf14d0aa2821c4bb84,,,1650,-25.36907959,43.88186646,1,0,0,response7disk,,0,-6.165039063,6.915588379,1,0,0,rectangle,-6.165039063,6.915588379,1,0,0,4,"[178,301,10,40,129,266,47,195,60,64,161,165,136,43,323,279,190,79,287,108]",-6.165039063,6.915588379,1,0,0,0,97,97,1,1,,,
,,,,,,,,,,,,,FF,,,,,,,,1.716335,,,,,,,,,,,,,,,,,,,,,,,,,5f3663dd7dda2100096d4a81,60a7d7fa4e3ef8b5f5a00b00,2021-05-21_17h56.26.997,Simcolourproject_2stim_asymm_v5,2020.2.10,MacIntel,60,60a5f9bf14d0aa2821c4bb84,,,4075,-53.90130615,-71.20843506,1,0,0,response5disk,,3,-2.750854492,-6.815185547,1,0,0,rectangle,-2.750854492,-6.815185547,1,0,0,6,"[178,301,10,40,129,266,47,195,60,64,161,165,136,43,323,279,190,79,287,108]",-2.750854492,-6.815185547,1,0,0,0,98,98,31,1,,,
,,,,,,,,,,,,,FF,,,,,,,,1.58516,,,,,,,,,,,,,,,,,,,,,,,,,5f3663dd7dda2100096d4a81,60a7d7fa4e3ef8b5f5a00b00,2021-05-21_17h56.26.997,Simcolourproject_2stim_asymm_v5,2020.2.10,MacIntel,60,60a5f9bf14d0aa2821c4bb84,,,1898,30.09777832,-66.09960938,1,0,0,response3disk,,4,4.901245117,-6.184387207,1,0,0,rectangle,4.901245117,-6.184387207,1,0,0,6,"[178,301,10,40,129,266,47,195,60,64,161,165,136,43,323,279,190,79,287,108]",4.901245117,-6.184387207,1,0,0,0,99,99,138,1,,,
,,,,,,,,,,,,,FF,,,,,,,,1.449395,,,,,,,,,,,,,,,,,,,,,,,,,5f3663dd7dda2100096d4a81,60a7d7fa4e3ef8b5f5a00b00,2021-05-21_17h56.26.997,Simcolourproject_2stim_asymm_v5,2020.2.10,MacIntel,60,60a5f9bf14d0aa2821c4bb84,,,16,28.0144043,-66.11010742,1,0,0,response3disk,,4,-11.4175415,-0.336273193,1,0,0,rectangle,-11.4175415,-0.336273193,1,0,0,7,"[178,301,10,40,129,266,47,195,60,64,161,165,136,43,323,279,190,79,287,108]",-11.4175415,-0.336273193,1,0,0,0,100,100,39,1,,,
,,,,,,,,,,,,,FF,,,,,,,,1.264935,,,,,,,,,,,,,,,,,,,,,,,,,5f3663dd7dda2100096d4a81,60a7d7fa4e3ef8b5f5a00b00,2021-05-21_17h56.26.997,Simcolourproject_2stim_asymm_v5,2020.2.10,MacIntel,60,60a5f9bf14d0aa2821c4bb84,,,3326,-15.48779297,60.47790527,1,0,0,response7disk,,0,5.305541992,-2.999755859,1,0,0,rectangle,5.305541992,-2.999755859,1,0,0,1,"[178,301,10,40,129,266,47,195,60,64,161,165,136,43,323,279,190,79,287,108]",5.305541992,-2.999755859,1,0,0,0,101,101,68,1,,,
,,,,,,,,,,,,,FF,,,,,,,,1.197875,,,,,,,,,,,,,,,,,,,,,,,,,5f3663dd7dda2100096d4a81,60a7d7fa4e3ef8b5f5a00b00,2021-05-21_17h56.26.997,Simcolourproject_2stim_asymm_v5,2020.2.10,MacIntel,60,60a5f9bf14d0aa2821c4bb84,,,3054,-29.02001953,-50.04864502,1,0,0,response5disk,,3,-3.194213867,7.395111084,1,0,0,rectangle,-3.194213867,7.395111084,1,0,0,6,"[178,301,10,40,129,266,47,195,60,64,161,165,136,43,323,279,190,79,287,108]",-3.194213867,7.395111084,1,0,0,0,102,102,148,1,,,
,,,,,,,,,,,,,FF,,,,,,,,1.98431,,,,,,,,,,,,,,,,,,,,,,,,,5f3663dd7dda2100096d4a81,60a7d7fa4e3ef8b5f5a00b00,2021-05-21_17h56.26.997,Simcolourproject_2stim_asymm_v5,2020.2.10,MacIntel,60,60a5f9bf14d0aa2821c4bb84,,,1382,-23.31982422,-49.28375244,1,0,0,response5disk,,3,-19.15942383,-4.577697754,1,0,0,rectangle,-19.15942383,-4.577697754,1,0,0,7,"[178,301,10,40,129,266,47,195,60,64,161,165,136,43,323,279,190,79,287,108]",-19.15942383,-4.577697754,1,0,0,0,103,103,63,1,,,
,,,,,,,,,,,,,FF,,,,,,,,2.818735,,,,,,,,,,,,,,,,,,,,,,,,,5f3663dd7dda2100096d4a81,60a7d7fa4e3ef8b5f5a00b00,2021-05-21_17h56.26.997,Simcolourproject_2stim_asymm_v5,2020.2.10,MacIntel,60,60a5f9bf14d0aa2821c4bb84,,,2852,-54.49121094,27.32403564,1,0,0,response7disk,,1,-17.96282959,2.074584961,1,0,0,rectangle,-17.96282959,2.074584961,1,0,0,2,"[178,301,10,40,129,266,47,195,60,64,161,165,136,43,323,279,190,79,287,108]",-17.96282959,2.074584961,1,0,0,0,104,104,59,1,,,
,,,,,,,,,,,,,FF,,,,,,,,1.250565,,,,,,,,,,,,,,,,,,,,,,,,,5f3663dd7dda2100096d4a81,60a7d7fa4e3ef8b5f5a00b00,2021-05-21_17h56.26.997,Simcolourproject_2stim_asymm_v5,2020.2.10,MacIntel,60,60a5f9bf14d0aa2821c4bb84,,,1905,-59.61035156,-40.50231934,1,0,0,response5disk,,1,-10.65112305,-4.115570068,1,0,0,rectangle,-10.65112305,-4.115570068,1,0,0,5,"[178,301,10,40,129,266,47,195,60,64,161,165,136,43,323,279,190,79,287,108]",-10.65112305,-4.115570068,1,0,0,0,105,105,128,1,,,
,,,,,,,,,,,,,FF,,,,,,,,1.050355,,,,,,,,,,,,,,,,,,,,,,,,,5f3663dd7dda2100096d4a81,60a7d7fa4e3ef8b5f5a00b00,2021-05-21_17h56.26.997,Simcolourproject_2stim_asymm_v5,2020.2.10,MacIntel,60,60a5f9bf14d0aa2821c4bb84,,,2211,-24.0692749,63.50543213,1,0,0,response7disk,,0,-1.544189453,-16.08383179,1,0,0,rectangle,-1.544189453,-16.08383179,1,0,0,0,"[178,301,10,40,129,266,47,195,60,64,161,165,136,43,323,279,190,79,287,108]",-1.544189453,-16.08383179,1,0,0,0,106,106,160,1,,,
,,,,,,,,,,,,,FF,,,,,,,,1.00088,,,,,,,,,,,,,,,,,,,,,,,,,5f3663dd7dda2100096d4a81,60a7d7fa4e3ef8b5f5a00b00,2021-05-21_17h56.26.997,Simcolourproject_2stim_asymm_v5,2020.2.10,MacIntel,60,60a5f9bf14d0aa2821c4bb84,,,2954,35.62646484,-68.77935791,1,0,0,response3disk,,4,2.809448242,-7.114959717,1,0,0,rectangle,37.31188965,-69.67480469,1,0,0,4,"[178,301,10,40,129,266,47,195,60,64,161,165,136,43,323,279,190,79,287,108]",13.4152832,-0.401916504,1,0,0,0,107,107,103,1,,response3disk_3,rectangle
,,,,,,,,,,,,,FF,,,,,,,,1.123535,,,,,,,,,,,,,,,,,,,,,,,,,5f3663dd7dda2100096d4a81,60a7d7fa4e3ef8b5f5a00b00,2021-05-21_17h56.26.997,Simcolourproject_2stim_asymm_v5,2020.2.10,MacIntel,60,60a5f9bf14d0aa2821c4bb84,,,1572,-36.7076416,-33.44094849,1,0,0,response5disk,,4,9.866821289,-4.06463623,1,0,0,rectangle,9.866821289,-4.06463623,1,0,0,0,"[178,301,10,40,129,266,47,195,60,64,161,165,136,43,323,279,190,79,287,108]",9.866821289,-4.06463623,1,0,0,0,108,108,57,1,,,
,,,,,,,,,,,,,FF,,,,,,,,1.68348,,,,,,,,,,,,,,,,,,,,,,,,,5f3663dd7dda2100096d4a81,60a7d7fa4e3ef8b5f5a00b00,2021-05-21_17h56.26.997,Simcolourproject_2stim_asymm_v5,2020.2.10,MacIntel,60,60a5f9bf14d0aa2821c4bb84,,,754,-23.04772949,62.45031738,1,0,0,response7disk,,0,-13.6807251,6.036071777,1,0,0,rectangle,-13.6807251,6.036071777,1,0,0,1,"[178,301,10,40,129,266,47,195,60,64,161,165,136,43,323,279,190,79,287,108]",-13.6807251,6.036071777,1,0,0,0,109,109,19,1,,,
,,,,,,,,,,,,,FF,,,,,,,,1.170835,,,,,,,,,,,,,,,,,,,,,,,,,5f3663dd7dda2100096d4a81,60a7d7fa4e3ef8b5f5a00b00,2021-05-21_17h56.26.997,Simcolourproject_2stim_asymm_v5,2020.2.10,MacIntel,60,60a5f9bf14d0aa2821c4bb84,,,1423,-23.371521,64.7956543,1,0,0,response7disk,,0,-2.263793945,6.014587402,1,0,0,rectangle,-2.263793945,6.014587402,1,0,0,2,"[178,301,10,40,129,266,47,195,60,64,161,165,136,43,323,279,190,79,287,108]",-2.263793945,6.014587402,1,0,0,0,110,110,126,1,,,
,,,,,,,,,,,,,FF,,,,,,,,1.600285,,,,,,,,,,,,,,,,,,,,,,,,,5f3663dd7dda2100096d4a81,60a7d7fa4e3ef8b5f5a00b00,2021-05-21_17h56.26.997,Simcolourproject_2stim_asymm_v5,2020.2.10,MacIntel,60,60a5f9bf14d0aa2821c4bb84,,,687,-51.51086426,-25.70800781,1,0,0,response5disk,,0,4.086608887,-6.156616211,1,0,0,rectangle,4.086608887,-6.156616211,1,0,0,4,"[178,301,10,40,129,266,47,195,60,64,161,165,136,43,323,279,190,79,287,108]",4.086608887,-6.156616211,1,0,0,0,111,111,50,1,,,
,,,,,,,,,,,,,FF,,,,,,,,1.266505,,,,,,,,,,,,,,,,,,,,,,,,,5f3663dd7dda2100096d4a81,60a7d7fa4e3ef8b5f5a00b00,2021-05-21_17h56.26.997,Simcolourproject_2stim_asymm_v5,2020.2.10,MacIntel,60,60a5f9bf14d0aa2821c4bb84,,,3257,-46.69683838,-37.73388672,1,0,0,response5disk,,0,-6.135375977,1.072265625,1,0,0,rectangle,-6.135375977,1.072265625,1,0,0,2,"[178,301,10,40,129,266,47,195,60,64,161,165,136,43,323,279,190,79,287,108]",-6.135375977,1.072265625,1,0,0,0,112,112,104,1,,,
,,,,,,,,,,,,,FF,,,,,,,,2.41548,,,,,,,,,,,,,,,,,,,,,,,,,5f3663dd7dda2100096d4a81,60a7d7fa4e3ef8b5f5a00b00,2021-05-21_17h56.26.997,Simcolourproject_2stim_asymm_v5,2020.2.10,MacIntel,60,60a5f9bf14d0aa2821c4bb84,,,641,-49.32556152,-37.26104736,1,0,0,response5disk,,0,9.92980957,4.552124023,1,0,0,rectangle,9.92980957,4.552124023,1,0,0,5,"[178,301,10,40,129,266,47,195,60,64,161,165,136,43,323,279,190,79,287,108]",9.92980957,4.552124023,1,0,0,0,113,113,130,1,,,
,,,,,,,,,,,,,FF,,,,,,,,0.816815,,,,,,,,,,,,,,,,,,,,,,,,,5f3663dd7dda2100096d4a81,60a7d7fa4e3ef8b5f5a00b00,2021-05-21_17h56.26.997,Simcolourproject_2stim_asymm_v5,2020.2.10,MacIntel,60,60a5f9bf14d0aa2821c4bb84,,,205,-40.48449707,-25.65795898,1,0,0,response5disk,,0,-7.50177002,-17.33483887,1,0,0,rectangle,-7.50177002,-17.33483887,1,0,0,0,"[178,301,10,40,129,266,47,195,60,64,161,165,136,43,323,279,190,79,287,108]",-7.50177002,-17.33483887,1,0,0,0,114,114,140,1,,,
,,,,,,,,,,,,,FF,,,,,,,,0.86798,,,,,,,,,,,,,,,,,,,,,,,,,5f3663dd7dda2100096d4a81,60a7d7fa4e3ef8b5f5a00b00,2021-05-21_17h56.26.997,Simcolourproject_2stim_asymm_v5,2020.2.10,MacIntel,60,60a5f9bf14d0aa2821c4bb84,,,1864,-31.78894043,68.25939941,1,0,0,response7disk,,0,-2.143859863,2.70098877,1,0,0,rectangle,-2.143859863,2.70098877,1,0,0,7,"[178,301,10,40,129,266,47,195,60,64,161,165,136,43,323,279,190,79,287,108]",-2.143859863,2.70098877,1,0,0,0,115,115,87,1,,,
,,,,,,,,,,,,,FF,,,,,,,,2.09982,,,,,,,,,,,,,,,,,,,,,,,,,5f3663dd7dda2100096d4a81,60a7d7fa4e3ef8b5f5a00b00,2021-05-21_17h56.26.997,Simcolourproject_2stim_asymm_v5,2020.2.10,MacIntel,60,60a5f9bf14d0aa2821c4bb84,,,1601,68.22265625,21.57806396,1,0,0,response1disk,,6,21.71472168,4.539428711,1,0,0,rectangle,21.71472168,4.539428711,1,0,0,1,"[178,301,10,40,129,266,47,195,60,64,161,165,136,43,323,279,190,79,287,108]",21.71472168,4.539428711,1,0,0,0,116,116,84,1,,,
,,,,,,,,,,,,,FF,,,,,,,,0.836725,,,,,,,,,,,,,,,,,,,,,,,,,5f3663dd7dda2100096d4a81,60a7d7fa4e3ef8b5f5a00b00,2021-05-21_17h56.26.997,Simcolourproject_2stim_asymm_v5,2020.2.10,MacIntel,60,60a5f9bf14d0aa2821c4bb84,,,3593,-62.58148193,-23.48895264,1,0,0,response5disk,,6,-16.97857666,-8.812683105,1,0,0,rectangle,-16.97857666,-8.812683105,1,0,0,7,"[178,301,10,40,129,266,47,195,60,64,161,165,136,43,323,279,190,79,287,108]",-16.97857666,-8.812683105,1,0,0,0,117,117,121,1,,,
,,,,,,,,,,,,,FF,,,,,,,,0.987705,,,,,,,,,,,,,,,,,,,,,,,,,5f3663dd7dda2100096d4a81,60a7d7fa4e3ef8b5f5a00b00,2021-05-21_17h56.26.997,Simcolourproject_2stim_asymm_v5,2020.2.10,MacIntel,60,60a5f9bf14d0aa2821c4bb84,,,245,-36.38189697,18.31066895,1,0,0,response7disk,,1,-13.59313965,12.19372559,1,0,0,rectangle,-13.59313965,12.19372559,1,0,0,6,"[178,301,10,40,129,266,47,195,60,64,161,165,136,43,323,279,190,79,287,108]",-13.59313965,12.19372559,1,0,0,0,118,118,105,1,,,
,,,,,,,,,,,,,FF,,,,,,,,0.597915,,,,,,,,,,,,,,,,,,,,,,,,,5f3663dd7dda2100096d4a81,60a7d7fa4e3ef8b5f5a00b00,2021-05-21_17h56.26.997,Simcolourproject_2stim_asymm_v5,2020.2.10,MacIntel,60,60a5f9bf14d0aa2821c4bb84,,,3767,-22.35577393,64.36700439,1,0,0,response7disk,,0,-12.87304688,1.629333496,1,0,0,rectangle,-12.87304688,1.629333496,1,0,0,0,"[178,301,10,40,129,266,47,195,60,64,161,165,136,43,323,279,190,79,287,108]",-12.87304688,1.629333496,1,0,0,0,119,119,146,1,,,
,,,,,,,,,,,,,FF,,,,,,,,0.83191,,,,,,,,,,,,,,,,,,,,,,,,,5f3663dd7dda2100096d4a81,60a7d7fa4e3ef8b5f5a00b00,2021-05-21_17h56.26.997,Simcolourproject_2stim_asymm_v5,2020.2.10,MacIntel,60,60a5f9bf14d0aa2821c4bb84,,,3096,37.82214355,81.69656372,1,0,0,response1disk,,7,17.24658203,10.20477295,1,0,0,rectangle,17.24658203,10.20477295,1,0,0,1,"[178,301,10,40,129,266,47,195,60,64,161,165,136,43,323,279,190,79,287,108]",17.24658203,10.20477295,1,0,0,0,120,120,133,1,,,
,,,,,,,,,,,,,FF,,,,,,,,2.885945,,,,,,,,,,,,,,,,,,,,,,,,,5f3663dd7dda2100096d4a81,60a7d7fa4e3ef8b5f5a00b00,2021-05-21_17h56.26.997,Simcolourproject_2stim_asymm_v5,2020.2.10,MacIntel,60,60a5f9bf14d0aa2821c4bb84,,,607,-64.94067383,-32.70785522,1,0,0,response5disk,,7,-15.84527588,-10.52206421,1,0,0,rectangle,-15.84527588,-10.52206421,1,0,0,3,"[178,301,10,40,129,266,47,195,60,64,161,165,136,43,323,279,190,79,287,108]",-15.84527588,-10.52206421,1,0,0,0,121,121,131,1,,,
,,,,,,,,,,,,,FF,,,,,,,,0.76635,,,,,,,,,,,,,,,,,,,,,,,,,5f3663dd7dda2100096d4a81,60a7d7fa4e3ef8b5f5a00b00,2021-05-21_17h56.26.997,Simcolourproject_2stim_asymm_v5,2020.2.10,MacIntel,60,60a5f9bf14d0aa2821c4bb84,,,1225,-27.54052734,-53.07409668,1,0,0,response5disk,,3,-0.628540039,-2.789550781,1,0,0,rectangle,-0.628540039,-2.789550781,1,0,0,0,"[178,301,10,40,129,266,47,195,60,64,161,165,136,43,323,279,190,79,287,108]",-0.628540039,-2.789550781,1,0,0,0,122,122,13,1,,,
,,,,,,,,,,,,,FF,,,,,,,,1.335445,,,,,,,,,,,,,,,,,,,,,,,,,5f3663dd7dda2100096d4a81,60a7d7fa4e3ef8b5f5a00b00,2021-05-21_17h56.26.997,Simcolourproject_2stim_asymm_v5,2020.2.10,MacIntel,60,60a5f9bf14d0aa2821c4bb84,,,2782,76.99371338,-37.16564941,1,0,0,response3disk,,5,-7.413696289,-10.70977783,1,0,0,rectangle,-7.413696289,-10.70977783,1,0,0,7,"[178,301,10,40,129,266,47,195,60,64,161,165,136,43,323,279,190,79,287,108]",-7.413696289,-10.70977783,1,0,0,0,123,123,156,1,,,
,,,,,,,,,,,,,FF,,,,,,,,1.251905,,,,,,,,,,,,,,,,,,,,,,,,,5f3663dd7dda2100096d4a81,60a7d7fa4e3ef8b5f5a00b00,2021-05-21_17h56.26.997,Simcolourproject_2stim_asymm_v5,2020.2.10,MacIntel,60,60a5f9bf14d0aa2821c4bb84,,,3538,-26.01568604,55.57568359,1,0,0,response7disk,,0,0.542602539,6.858551025,1,0,0,rectangle,0.542602539,6.858551025,1,0,0,1,"[178,301,10,40,129,266,47,195,60,64,161,165,136,43,323,279,190,79,287,108]",0.542602539,6.858551025,1,0,0,0,124,124,141,1,,,
,,,,,,,,,,,,,FF,,,,,,,,1.021855,,,,,,,,,,,,,,,,,,,,,,,,,5f3663dd7dda2100096d4a81,60a7d7fa4e3ef8b5f5a00b00,2021-05-21_17h56.26.997,Simcolourproject_2stim_asymm_v5,2020.2.10,MacIntel,60,60a5f9bf14d0aa2821c4bb84,,,4107,-32.74407959,-55.61019897,1,0,0,response5disk,,3,-8.364807129,-11.17510986,1,0,0,rectangle,-8.364807129,-11.17510986,1,0,0,6,"[178,301,10,40,129,266,47,195,60,64,161,165,136,43,323,279,190,79,287,108]",-8.364807129,-11.17510986,1,0,0,0,125,125,120,1,,,
,,,,,,,,,,,,,FF,,,,,,,,0.716525,,,,,,,,,,,,,,,,,,,,,,,,,5f3663dd7dda2100096d4a81,60a7d7fa4e3ef8b5f5a00b00,2021-05-21_17h56.26.997,Simcolourproject_2stim_asymm_v5,2020.2.10,MacIntel,60,60a5f9bf14d0aa2821c4bb84,,,439,-31.77374268,-51.98773193,1,0,0,response5disk,,3,-14.44250488,-10.87762451,1,0,0,rectangle,-14.44250488,-10.87762451,1,0,0,2,"[178,301,10,40,129,266,47,195,60,64,161,165,136,43,323,279,190,79,287,108]",-14.44250488,-10.87762451,1,0,0,0,126,126,116,1,,,
,,,,,,,,,,,,,FF,,,,,,,,1.87424,,,,,,,,,,,,,,,,,,,,,,,,,5f3663dd7dda2100096d4a81,60a7d7fa4e3ef8b5f5a00b00,2021-05-21_17h56.26.997,Simcolourproject_2stim_asymm_v5,2020.2.10,MacIntel,60,60a5f9bf14d0aa2821c4bb84,,,2414,-60.25811768,36.13244629,1,0,0,response7disk,,1,-19.2444458,7.505126953,1,0,0,rectangle,-19.2444458,7.505126953,1,0,0,6,"[178,301,10,40,129,266,47,195,60,64,161,165,136,43,323,279,190,79,287,108]",-19.2444458,7.505126953,1,0,0,0,127,127,23,1,,,
,,,,,,,,,,,,,FF,,,,,,,,0.77017,,,,,,,,,,,,,,,,,,,,,,,,,5f3663dd7dda2100096d4a81,60a7d7fa4e3ef8b5f5a00b00,2021-05-21_17h56.26.997,Simcolourproject_2stim_asymm_v5,2020.2.10,MacIntel,60,60a5f9bf14d0aa2821c4bb84,,,469,-45.27746582,-33.40951538,1,0,0,response5disk,,1,3.604187012,-2.622375488,1,0,0,rectangle,32.793396,88.10217285,1,0,0,7,"[178,301,10,40,129,266,47,195,60,64,161,165,136,43,323,279,190,79,287,108]",6.372436523,-3.435668945,1,0,0,0,128,128,62,1,,response1disk_3,rectangle
,,,,,,,,,,,,,FF,,,,,,,,0.93217,,,,,,,,,,,,,,,,,,,,,,,,,5f3663dd7dda2100096d4a81,60a7d7fa4e3ef8b5f5a00b00,2021-05-21_17h56.26.997,Simcolourproject_2stim_asymm_v5,2020.2.10,MacIntel,60,60a5f9bf14d0aa2821c4bb84,,,1325,-35.18389893,63.88885498,1,0,0,response7disk,,0,-13.60900879,7.412231445,1,0,0,rectangle,-13.60900879,7.412231445,1,0,0,0,"[178,301,10,40,129,266,47,195,60,64,161,165,136,43,323,279,190,79,287,108]",-13.60900879,7.412231445,1,0,0,0,129,129,89,1,,,
,,,,,,,,,,,,,FF,,,,,,,,0.641855,,,,,,,,,,,,,,,,,,,,,,,,,5f3663dd7dda2100096d4a81,60a7d7fa4e3ef8b5f5a00b00,2021-05-21_17h56.26.997,Simcolourproject_2stim_asymm_v5,2020.2.10,MacIntel,60,60a5f9bf14d0aa2821c4bb84,,,4232,-27.55371094,54.72796631,1,0,0,response7disk,,0,2.246337891,3.355651855,1,0,0,rectangle,2.246337891,3.355651855,1,0,0,3,"[178,301,10,40,129,266,47,195,60,64,161,165,136,43,323,279,190,79,287,108]",2.246337891,3.355651855,1,0,0,0,130,130,97,1,,,
,,,,,,,,,,,,,FF,,,,,,,,0.851995,,,,,,,,,,,,,,,,,,,,,,,,,5f3663dd7dda2100096d4a81,60a7d7fa4e3ef8b5f5a00b00,2021-05-21_17h56.26.997,Simcolourproject_2stim_asymm_v5,2020.2.10,MacIntel,60,60a5f9bf14d0aa2821c4bb84,,,3073,-62.08959961,25.75695801,1,0,0,response7disk,,1,-1.215454102,-4.199584961,1,0,0,rectangle,-1.215454102,-4.199584961,1,0,0,5,"[178,301,10,40,129,266,47,195,60,64,161,165,136,43,323,279,190,79,287,108]",-1.215454102,-4.199584961,1,0,0,0,131,131,91,1,,,
,,,,,,,,,,,,,FF,,,,,,,,0.96439,,,,,,,,,,,,,,,,,,,,,,,,,5f3663dd7dda2100096d4a81,60a7d7fa4e3ef8b5f5a00b00,2021-05-21_17h56.26.997,Simcolourproject_2stim_asymm_v5,2020.2.10,MacIntel,60,60a5f9bf14d0aa2821c4bb84,,,1117,-26.89953613,-60.93521118,1,0,0,response5disk,,3,-8.313842773,-6.628326416,1,0,0,rectangle,-8.313842773,-6.628326416,1,0,0,7,"[178,301,10,40,129,266,47,195,60,64,161,165,136,43,323,279,190,79,287,108]",-8.313842773,-6.628326416,1,0,0,0,132,132,20,1,,,
,,,,,,,,,,,,,FF,,,,,,,,1.363695,,,,,,,,,,,,,,,,,,,,,,,,,5f3663dd7dda2100096d4a81,60a7d7fa4e3ef8b5f5a00b00,2021-05-21_17h56.26.997,Simcolourproject_2stim_asymm_v5,2020.2.10,MacIntel,60,60a5f9bf14d0aa2821c4bb84,,,3772,-46.46630859,-35.34295654,1,0,0,response5disk,,3,2.582397461,2.691864014,1,0,0,rectangle,2.582397461,2.691864014,1,0,0,6,"[178,301,10,40,129,266,47,195,60,64,161,165,136,43,323,279,190,79,287,108]",2.582397461,2.691864014,1,0,0,0,133,133,155,1,,,
,,,,,,,,,,,,,FF,,,,,,,,0.64949,,,,,,,,,,,,,,,,,,,,,,,,,5f3663dd7dda2100096d4a81,60a7d7fa4e3ef8b5f5a00b00,2021-05-21_17h56.26.997,Simcolourproject_2stim_asymm_v5,2020.2.10,MacIntel,60,60a5f9bf14d0aa2821c4bb84,,,2189,-22.97436523,65.69207764,1,0,0,response7disk,,0,5.829345703,-0.061431885,1,0,0,rectangle,5.829345703,-0.061431885,1,0,0,4,"[178,301,10,40,129,266,47,195,60,64,161,165,136,43,323,279,190,79,287,108]",5.829345703,-0.061431885,1,0,0,0,134,134,49,1,,,
,,,,,,,,,,,,,FF,,,,,,,,1.16791,,,,,,,,,,,,,,,,,,,,,,,,,5f3663dd7dda2100096d4a81,60a7d7fa4e3ef8b5f5a00b00,2021-05-21_17h56.26.997,Simcolourproject_2stim_asymm_v5,2020.2.10,MacIntel,60,60a5f9bf14d0aa2821c4bb84,,,2202,-66.33892822,30.39907837,1,0,0,response7disk,,1,-5.006591797,-8.25289917,1,0,0,rectangle,80.59161377,47.28588867,1,0,0,6,"[178,301,10,40,129,266,47,195,60,64,161,165,136,43,323,279,190,79,287,108]",8.890319824,2.824859619,1,0,0,0,135,135,115,1,,response1disk_3,rectangle
,,,,,,,,,,,,,FF,,,,,,,,1.99716,,,,,,,,,,,,,,,,,,,,,,,,,5f3663dd7dda2100096d4a81,60a7d7fa4e3ef8b5f5a00b00,2021-05-21_17h56.26.997,Simcolourproject_2stim_asymm_v5,2020.2.10,MacIntel,60,60a5f9bf14d0aa2821c4bb84,,,486,-23.88458252,60.68099976,1,0,0,response7disk,,0,-1.292480469,8.564331055,1,0,0,rectangle,-1.292480469,8.564331055,1,0,0,7,"[178,301,10,40,129,266,47,195,60,64,161,165,136,43,323,279,190,79,287,108]",-1.292480469,8.564331055,1,0,0,0,136,136,3,1,,,
,,,,,,,,,,,,,FF,,,,,,,,1.33353,,,,,,,,,,,,,,,,,,,,,,,,,5f3663dd7dda2100096d4a81,60a7d7fa4e3ef8b5f5a00b00,2021-05-21_17h56.26.997,Simcolourproject_2stim_asymm_v5,2020.2.10,MacIntel,60,60a5f9bf14d0aa2821c4bb84,,,1725,-66.54614258,-41.77636719,1,0,0,response5disk,,0,-5.576477051,-3.900634766,1,0,0,rectangle,-5.576477051,-3.900634766,1,0,0,7,"[178,301,10,40,129,266,47,195,60,64,161,165,136,43,323,279,190,79,287,108]",-5.576477051,-3.900634766,1,0,0,0,137,137,108,1,,,
,,,,,,,,,,,,,FF,,,,,,,,1.43209,,,,,,,,,,,,,,,,,,,,,,,,,5f3663dd7dda2100096d4a81,60a7d7fa4e3ef8b5f5a00b00,2021-05-21_17h56.26.997,Simcolourproject_2stim_asymm_v5,2020.2.10,MacIntel,60,60a5f9bf14d0aa2821c4bb84,,,3716,-59.02209473,-40.99285889,1,0,0,response5disk,,0,-13.50616455,-10.1506958,1,0,0,rectangle,-13.50616455,-10.1506958,1,0,0,0,"[178,301,10,40,129,266,47,195,60,64,161,165,136,43,323,279,190,79,287,108]",-13.50616455,-10.1506958,1,0,0,0,138,138,145,1,,,
,,,,,,,,,,,,,FF,,,,,,,,0.7671,,,,,,,,,,,,,,,,,,,,,,,,,5f3663dd7dda2100096d4a81,60a7d7fa4e3ef8b5f5a00b00,2021-05-21_17h56.26.997,Simcolourproject_2stim_asymm_v5,2020.2.10,MacIntel,60,60a5f9bf14d0aa2821c4bb84,,,3122,-23.49835205,68.64562988,1,0,0,response7disk,,0,-6.315856934,0.269134521,1,0,0,rectangle,-6.315856934,0.269134521,1,0,0,0,"[178,301,10,40,129,266,47,195,60,64,161,165,136,43,323,279,190,79,287,108]",-6.315856934,0.269134521,1,0,0,0,139,139,74,1,,,
,,,,,,,,,,,,,FF,,,,,,,,0.96708,,,,,,,,,,,,,,,,,,,,,,,,,5f3663dd7dda2100096d4a81,60a7d7fa4e3ef8b5f5a00b00,2021-05-21_17h56.26.997,Simcolourproject_2stim_asymm_v5,2020.2.10,MacIntel,60,60a5f9bf14d0aa2821c4bb84,,,467,-54.11871338,-37.54193115,1,0,0,response5disk,,0,1.635375977,-5.570526123,1,0,0,rectangle,1.635375977,-5.570526123,1,0,0,2,"[178,301,10,40,129,266,47,195,60,64,161,165,136,43,323,279,190,79,287,108]",1.635375977,-5.570526123,1,0,0,0,140,140,143,1,,,
,,,,,,,,,,,,,FF,,,,,,,,3.037635,,,,,,,,,,,,,,,,,,,,,,,,,5f3663dd7dda2100096d4a81,60a7d7fa4e3ef8b5f5a00b00,2021-05-21_17h56.26.997,Simcolourproject_2stim_asymm_v5,2020.2.10,MacIntel,60,60a5f9bf14d0aa2821c4bb84,,,1042,-48.30163574,25.37487793,1,0,0,response7disk,,1,-16.76037598,2.006347656,1,0,0,rectangle,-16.76037598,2.006347656,1,0,0,6,"[178,301,10,40,129,266,47,195,60,64,161,165,136,43,323,279,190,79,287,108]",-16.76037598,2.006347656,1,0,0,0,141,141,96,1,,,
,,,,,,,,,,,,,FF,,,,,,,,0.55507,,,,,,,,,,,,,,,,,,,,,,,,,5f3663dd7dda2100096d4a81,60a7d7fa4e3ef8b5f5a00b00,2021-05-21_17h56.26.997,Simcolourproject_2stim_asymm_v5,2020.2.10,MacIntel,60,60a5f9bf14d0aa2821c4bb84,,,48,-24.66015625,59.34515381,1,0,0,response7disk,,0,-8.365966797,2.752624512,1,0,0,rectangle,-8.365966797,2.752624512,1,0,0,0,"[178,301,10,40,129,266,47,195,60,64,161,165,136,43,323,279,190,79,287,108]",-8.365966797,2.752624512,1,0,0,0,142,142,159,1,,,
,,,,,,,,,,,,,FF,,,,,,,,0.635765,,,,,,,,,,,,,,,,,,,,,,,,,5f3663dd7dda2100096d4a81,60a7d7fa4e3ef8b5f5a00b00,2021-05-21_17h56.26.997,Simcolourproject_2stim_asymm_v5,2020.2.10,MacIntel,60,60a5f9bf14d0aa2821c4bb84,,,4325,-32.5144043,67.99468994,1,0,0,response7disk,,0,0.614318848,2.765380859,1,0,0,rectangle,0.614318848,2.765380859,1,0,0,6,"[178,301,10,40,129,266,47,195,60,64,161,165,136,43,323,279,190,79,287,108]",0.614318848,2.765380859,1,0,0,0,143,143,127,1,,,
,,,,,,,,,,,,,FF,,,,,,,,0.69859,,,,,,,,,,,,,,,,,,,,,,,,,5f3663dd7dda2100096d4a81,60a7d7fa4e3ef8b5f5a00b00,2021-05-21_17h56.26.997,Simcolourproject_2stim_asymm_v5,2020.2.10,MacIntel,60,60a5f9bf14d0aa2821c4bb84,,,33,-31.02728271,58.59796143,1,0,0,response7disk,,0,-14.14611816,11.72491455,1,0,0,rectangle,-14.14611816,11.72491455,1,0,0,1,"[178,301,10,40,129,266,47,195,60,64,161,165,136,43,323,279,190,79,287,108]",-14.14611816,11.72491455,1,0,0,0,144,144,90,1,,,
,,,,,,,,,,,,,FF,,,,,,,,0.716775,,,,,,,,,,,,,,,,,,,,,,,,,5f3663dd7dda2100096d4a81,60a7d7fa4e3ef8b5f5a00b00,2021-05-21_17h56.26.997,Simcolourproject_2stim_asymm_v5,2020.2.10,MacIntel,60,60a5f9bf14d0aa2821c4bb84,,,2765,-32.17297363,61.09381104,1,0,0,response7disk,,0,-8.442260742,1.550964355,1,0,0,rectangle,-8.442260742,1.550964355,1,0,0,1,"[178,301,10,40,129,266,47,195,60,64,161,165,136,43,323,279,190,79,287,108]",-8.442260742,1.550964355,1,0,0,0,145,145,25,1,,,
,,,,,,,,,,,,,FF,,,,,,,,1.112175,,,,,,,,,,,,,,,,,,,,,,,,,5f3663dd7dda2100096d4a81,60a7d7fa4e3ef8b5f5a00b00,2021-05-21_17h56.26.997,Simcolourproject_2stim_asymm_v5,2020.2.10,MacIntel,60,60a5f9bf14d0aa2821c4bb84,,,3703,-63.59051514,25.03433228,1,0,0,response7disk,,1,-2.609619141,-0.321899414,1,0,0,rectangle,-2.609619141,-0.321899414,1,0,0,5,"[178,301,10,40,129,266,47,195,60,64,161,165,136,43,323,279,190,79,287,108]",-2.609619141,-0.321899414,1,0,0,0,146,146,22,1,,,
,,,,,,,,,,,,,FF,,,,,,,,1.28609,,,,,,,,,,,,,,,,,,,,,,,,,5f3663dd7dda2100096d4a81,60a7d7fa4e3ef8b5f5a00b00,2021-05-21_17h56.26.997,Simcolourproject_2stim_asymm_v5,2020.2.10,MacIntel,60,60a5f9bf14d0aa2821c4bb84,,,1621,-48.80297852,34.90155029,1,0,0,response7disk,,1,-10.36743164,17.61325073,1,0,0,rectangle,-10.36743164,17.61325073,1,0,0,6,"[178,301,10,40,129,266,47,195,60,64,161,165,136,43,323,279,190,79,287,108]",-10.36743164,17.61325073,1,0,0,0,147,147,92,1,,,
,,,,,,,,,,,,,FF,,,,,,,,0.95016,,,,,,,,,,,,,,,,,,,,,,,,,5f3663dd7dda2100096d4a81,60a7d7fa4e3ef8b5f5a00b00,2021-05-21_17h56.26.997,Simcolourproject_2stim_asymm_v5,2020.2.10,MacIntel,60,60a5f9bf14d0aa2821c4bb84,,,3348,-55.88494873,31.12988281,1,0,0,response7disk,,1,-16.22387695,8.737091064,1,0,0,rectangle,-16.22387695,8.737091064,1,0,0,4,"[178,301,10,40,129,266,47,195,60,64,161,165,136,43,323,279,190,79,287,108]",-16.22387695,8.737091064,1,0,0,0,148,148,67,1,,,
,,,,,,,,,,,,,FF,,,,,,,,0.86692,,,,,,,,,,,,,,,,,,,,,,,,,5f3663dd7dda2100096d4a81,60a7d7fa4e3ef8b5f5a00b00,2021-05-21_17h56.26.997,Simcolourproject_2stim_asymm_v5,2020.2.10,MacIntel,60,60a5f9bf14d0aa2821c4bb84,,,2801,-24.6854248,69.31231689,1,0,0,response7disk,,0,-11.59887695,6.685180664,1,0,0,rectangle,-11.59887695,6.685180664,1,0,0,7,"[178,301,10,40,129,266,47,195,60,64,161,165,136,43,323,279,190,79,287,108]",-11.59887695,6.685180664,1,0,0,0,149,149,2,1,,,
,,,,,,,,,,,,,FF,,,,,,,,3.499925,,,,,,,,,,,,,,,,,,,,,,,,,5f3663dd7dda2100096d4a81,60a7d7fa4e3ef8b5f5a00b00,2021-05-21_17h56.26.997,Simcolourproject_2stim_asymm_v5,2020.2.10,MacIntel,60,60a5f9bf14d0aa2821c4bb84,,,1036,20.28930664,-54.2699585,1,0,0,response3disk,,4,10.75213623,-17.78399658,1,0,0,rectangle,10.75213623,-17.78399658,1,0,0,5,"[178,301,10,40,129,266,47,195,60,64,161,165,136,43,323,279,190,79,287,108]",10.75213623,-17.78399658,1,0,0,0,150,150,4,1,,,
,,,,,,,,,,,,,FF,,,,,,,,0.73254,,,,,,,,,,,,,,,,,,,,,,,,,5f3663dd7dda2100096d4a81,60a7d7fa4e3ef8b5f5a00b00,2021-05-21_17h56.26.997,Simcolourproject_2stim_asymm_v5,2020.2.10,MacIntel,60,60a5f9bf14d0aa2821c4bb84,,,1290,31.65264893,66.86203003,1,0,0,response1disk,,7,21.13708496,-16.02127075,1,0,0,rectangle,21.13708496,-16.02127075,1,0,0,2,"[178,301,10,40,129,266,47,195,60,64,161,165,136,43,323,279,190,79,287,108]",21.13708496,-16.02127075,1,0,0,0,151,151,10,1,,,
,,,,,,,,,,,,,FF,,,,,,,,1.88644,,,,,,,,,,,,,,,,,,,,,,,,,5f3663dd7dda2100096d4a81,60a7d7fa4e3ef8b5f5a00b00,2021-05-21_17h56.26.997,Simcolourproject_2stim_asymm_v5,2020.2.10,MacIntel,60,60a5f9bf14d0aa2821c4bb84,,,1272,-59.41589355,32.01623535,1,0,0,response7disk,,1,-8.491943359,3.214569092,1,0,0,rectangle,-8.491943359,3.214569092,1,0,0,0,"[178,301,10,40,129,266,47,195,60,64,161,165,136,43,323,279,190,79,287,108]",-8.491943359,3.214569092,1,0,0,0,152,152,82,1,,,
,,,,,,,,,,,,,FF,,,,,,,,2.93349,,,,,,,,,,,,,,,,,,,,,,,,,5f3663dd7dda2100096d4a81,60a7d7fa4e3ef8b5f5a00b00,2021-05-21_17h56.26.997,Simcolourproject_2stim_asymm_v5,2020.2.10,MacIntel,60,60a5f9bf14d0aa2821c4bb84,,,4244,-71.88726807,27.95013428,1,0,0,response7disk,,1,1.333984375,-6.475463867,1,0,0,rectangle,1.333984375,-6.475463867,1,0,0,5,"[178,301,10,40,129,266,47,195,60,64,161,165,136,43,323,279,190,79,287,108]",1.333984375,-6.475463867,1,0,0,0,153,153,79,1,,,
,,,,,,,,,,,,,FF,,,,,,,,4.10037,,,,,,,,,,,,,,,,,,,,,,,,,5f3663dd7dda2100096d4a81,60a7d7fa4e3ef8b5f5a00b00,2021-05-21_17h56.26.997,Simcolourproject_2stim_asymm_v5,2020.2.10,MacIntel,60,60a5f9bf14d0aa2821c4bb84,,,3527,-40.16522217,61.61001587,1,0,0,response7disk,,0,7.68762207,-13.18460083,1,0,0,rectangle,7.68762207,-13.18460083,1,0,0,5,"[178,301,10,40,129,266,47,195,60,64,161,165,136,43,323,279,190,79,287,108]",7.68762207,-13.18460083,1,0,0,0,154,154,71,1,,,
,,,,,,,,,,,,,FF,,,,,,,,2.284895,,,,,,,,,,,,,,,,,,,,,,,,,5f3663dd7dda2100096d4a81,60a7d7fa4e3ef8b5f5a00b00,2021-05-21_17h56.26.997,Simcolourproject_2stim_asymm_v5,2020.2.10,MacIntel,60,60a5f9bf14d0aa2821c4bb84,,,180,-23.83319092,73.57180786,1,0,0,response7disk,,0,8.556762695,5.09866333,1,0,0,rectangle,8.556762695,5.09866333,1,0,0,4,"[178,301,10,40,129,266,47,195,60,64,161,165,136,43,323,279,190,79,287,108]",8.556762695,5.09866333,1,0,0,0,155,155,135,1,,,
,,,,,,,,,,,,,FF,,,,,,,,1.2173,,,,,,,,,,,,,,,,,,,,,,,,,5f3663dd7dda2100096d4a81,60a7d7fa4e3ef8b5f5a00b00,2021-05-21_17h56.26.997,Simcolourproject_2stim_asymm_v5,2020.2.10,MacIntel,60,60a5f9bf14d0aa2821c4bb84,,,1626,-20.2855835,58.39886475,1,0,0,response7disk,,0,-5.426757813,-2.24786377,1,0,0,rectangle,-5.426757813,-2.24786377,1,0,0,0,"[178,301,10,40,129,266,47,195,60,64,161,165,136,43,323,279,190,79,287,108]",-5.426757813,-2.24786377,1,0,0,0,156,156,52,1,,,
,,,,,,,,,,,,,FF,,,,,,,,3.066635,,,,,,,,,,,,,,,,,,,,,,,,,5f3663dd7dda2100096d4a81,60a7d7fa4e3ef8b5f5a00b00,2021-05-21_17h56.26.997,Simcolourproject_2stim_asymm_v5,2020.2.10,MacIntel,60,60a5f9bf14d0aa2821c4bb84,,,3655,-27.37573242,53.50601196,1,0,0,response7disk,,0,-2.862792969,9.261260986,1,0,0,rectangle,-2.862792969,9.261260986,1,0,0,6,"[178,301,10,40,129,266,47,195,60,64,161,165,136,43,323,279,190,79,287,108]",-2.862792969,9.261260986,1,0,0,0,157,157,65,1,,,
,,,,,,,,,,,,,FF,,,,,,,,1.38335,,,,,,,,,,,,,,,,,,,,,,,,,5f3663dd7dda2100096d4a81,60a7d7fa4e3ef8b5f5a00b00,2021-05-21_17h56.26.997,Simcolourproject_2stim_asymm_v5,2020.2.10,MacIntel,60,60a5f9bf14d0aa2821c4bb84,,,3374,72.55749512,36.17297363,1,0,0,response1disk,,6,5.982116699,1.295898438,1,0,0,rectangle,5.982116699,1.295898438,1,0,0,2,"[178,301,10,40,129,266,47,195,60,64,161,165,136,43,323,279,190,79,287,108]",5.982116699,1.295898438,1,0,0,0,158,158,111,1,,,
,,,,,,,,,,,,,FF,,,,,,,,1.215785,,,,,,,,,,,,,,,,,,,,,,,,,5f3663dd7dda2100096d4a81,60a7d7fa4e3ef8b5f5a00b00,2021-05-21_17h56.26.997,Simcolourproject_2stim_asymm_v5,2020.2.10,MacIntel,60,60a5f9bf14d0aa2821c4bb84,,,3473,25.81762695,-62.91546631,1,0,0,response3disk,,4,13.02856445,-7.073669434,1,0,0,rectangle,13.02856445,-7.073669434,1,0,0,6,"[178,301,10,40,129,266,47,195,60,64,161,165,136,43,323,279,190,79,287,108]",13.02856445,-7.073669434,1,0,0,0,159,159,32,1,,,
,,,,,,,,,,,,,FF,,,,,,,,0.798905,,,,,,,,,,,,,,,,,,,,,,,,,5f3663dd7dda2100096d4a81,60a7d7fa4e3ef8b5f5a00b00,2021-05-21_17h56.26.997,Simcolourproject_2stim_asymm_v5,2020.2.10,MacIntel,60,60a5f9bf14d0aa2821c4bb84,,,142,-34.72900391,60.96655273,1,0,0,response7disk,,0,-13.54504395,-2.457519531,1,0,0,rectangle,80.80725098,36.23297119,1,0,0,6,"[178,301,10,40,129,266,47,195,60,64,161,165,136,43,323,279,190,79,287,108]",19.00482178,1.836853027,1,0,0,0,160,160,151,1,,response1disk_3,rectangle
,,,,,,,,,,,,,FF,,,,,,,,0.817315,,,,,,,,,,,,,,,,,,,,,,,,,5f3663dd7dda2100096d4a81,60a7d7fa4e3ef8b5f5a00b00,2021-05-21_17h56.26.997,Simcolourproject_2stim_asymm_v5,2020.2.10,MacIntel,60,60a5f9bf14d0aa2821c4bb84,,,3313,-26.98669434,53.78598022,1,0,0,response7disk,,0,-16.23675537,-5.578826904,1,0,0,rectangle,-16.23675537,-5.578826904,1,0,0,6,"[178,301,10,40,129,266,47,195,60,64,161,165,136,43,323,279,190,79,287,108]",-16.23675537,-5.578826904,1,0,0,1,0,161,44,1,,,
,,,,,,,,,,,,,FF,,,,,,,,1.320005,,,,,,,,,,,,,,,,,,,,,,,,,5f3663dd7dda2100096d4a81,60a7d7fa4e3ef8b5f5a00b00,2021-05-21_17h56.26.997,Simcolourproject_2stim_asymm_v5,2020.2.10,MacIntel,60,60a5f9bf14d0aa2821c4bb84,,,4268,43.18933105,-62.86047363,1,0,0,response3disk,,4,10.3137207,-12.16467285,1,0,0,rectangle,10.3137207,-12.16467285,1,0,0,5,"[178,301,10,40,129,266,47,195,60,64,161,165,136,43,323,279,190,79,287,108]",10.3137207,-12.16467285,1,0,0,1,1,162,102,1,,,
,,,,,,,,,,,,,FF,,,,,,,,0.685595,,,,,,,,,,,,,,,,,,,,,,,,,5f3663dd7dda2100096d4a81,60a7d7fa4e3ef8b5f5a00b00,2021-05-21_17h56.26.997,Simcolourproject_2stim_asymm_v5,2020.2.10,MacIntel,60,60a5f9bf14d0aa2821c4bb84,,,2202,-28.79815674,56.35198975,1,0,0,response7disk,,0,-0.251220703,-7.6171875,1,0,0,rectangle,-0.251220703,-7.6171875,1,0,0,3,"[178,301,10,40,129,266,47,195,60,64,161,165,136,43,323,279,190,79,287,108]",-0.251220703,-7.6171875,1,0,0,1,2,163,53,1,,,
,,,,,,,,,,,,,FF,,,,,,,,1.518955,,,,,,,,,,,,,,,,,,,,,,,,,5f3663dd7dda2100096d4a81,60a7d7fa4e3ef8b5f5a00b00,2021-05-21_17h56.26.997,Simcolourproject_2stim_asymm_v5,2020.2.10,MacIntel,60,60a5f9bf14d0aa2821c4bb84,,,1594,-27.49731445,67.99832153,1,0,0,response7disk,,0,-6.982421875,7.880615234,1,0,0,rectangle,-36.89605713,-74.54821777,1,0,0,3,"[178,301,10,40,129,266,47,195,60,64,161,165,136,43,323,279,190,79,287,108]",-2.199829102,-7.578582764,1,0,0,1,3,164,92,1,,response5disk_3,rectangle
,,,,,,,,,,,,,FF,,,,,,,,0.999845,,,,,,,,,,,,,,,,,,,,,,,,,5f3663dd7dda2100096d4a81,60a7d7fa4e3ef8b5f5a00b00,2021-05-21_17h56.26.997,Simcolourproject_2stim_asymm_v5,2020.2.10,MacIntel,60,60a5f9bf14d0aa2821c4bb84,,,3532,-28.29022217,60.95339966,1,0,0,response7disk,,0,-15.69110107,-10.23455811,1,0,0,rectangle,-15.69110107,-10.23455811,1,0,0,5,"[178,301,10,40,129,266,47,195,60,64,161,165,136,43,323,279,190,79,287,108]",-15.69110107,-10.23455811,1,0,0,1,4,165,121,1,,,
,,,,,,,,,,,,,FF,,,,,,,,0.683775,,,,,,,,,,,,,,,,,,,,,,,,,5f3663dd7dda2100096d4a81,60a7d7fa4e3ef8b5f5a00b00,2021-05-21_17h56.26.997,Simcolourproject_2stim_asymm_v5,2020.2.10,MacIntel,60,60a5f9bf14d0aa2821c4bb84,,,3638,-45.63916016,21.53900146,1,0,0,response7disk,,1,0.075439453,-15.40264893,1,0,0,rectangle,0.075439453,-15.40264893,1,0,0,2,"[178,301,10,40,129,266,47,195,60,64,161,165,136,43,323,279,190,79,287,108]",0.075439453,-15.40264893,1,0,0,1,5,166,116,1,,,
,,,,,,,,,,,,,FF,,,,,,,,0.834905,,,,,,,,,,,,,,,,,,,,,,,,,5f3663dd7dda2100096d4a81,60a7d7fa4e3ef8b5f5a00b00,2021-05-21_17h56.26.997,Simcolourproject_2stim_asymm_v5,2020.2.10,MacIntel,60,60a5f9bf14d0aa2821c4bb84,,,128,-44.86004639,21.18048096,1,0,0,response7disk,,1,-10.58294678,3.55859375,1,0,0,rectangle,-10.58294678,3.55859375,1,0,0,2,"[178,301,10,40,129,266,47,195,60,64,161,165,136,43,323,279,190,79,287,108]",-10.58294678,3.55859375,1,0,0,1,6,167,77,1,,,
,,,,,,,,,,,,,FF,,,,,,,,0.767315,,,,,,,,,,,,,,,,,,,,,,,,,5f3663dd7dda2100096d4a81,60a7d7fa4e3ef8b5f5a00b00,2021-05-21_17h56.26.997,Simcolourproject_2stim_asymm_v5,2020.2.10,MacIntel,60,60a5f9bf14d0aa2821c4bb84,,,1947,-41.9979248,76.00134277,1,0,0,response7disk,,0,-17.10559082,9.137878418,1,0,0,rectangle,-17.10559082,9.137878418,1,0,0,5,"[178,301,10,40,129,266,47,195,60,64,161,165,136,43,323,279,190,79,287,108]",-17.10559082,9.137878418,1,0,0,1,7,168,60,1,,,
,,,,,,,,,,,,,FF,,,,,,,,1.200195,,,,,,,,,,,,,,,,,,,,,,,,,5f3663dd7dda2100096d4a81,60a7d7fa4e3ef8b5f5a00b00,2021-05-21_17h56.26.997,Simcolourproject_2stim_asymm_v5,2020.2.10,MacIntel,60,60a5f9bf14d0aa2821c4bb84,,,1036,-36.0456543,-72.13452148,1,0,0,response5disk,,3,-15.32037354,-6.583068848,1,0,0,rectangle,-15.32037354,-6.583068848,1,0,0,2,"[178,301,10,40,129,266,47,195,60,64,161,165,136,43,323,279,190,79,287,108]",-15.32037354,-6.583068848,1,0,0,1,8,169,64,1,,,
,,,,,,,,,,,,,FF,,,,,,,,2.8719,,,,,,,,,,,,,,,,,,,,,,,,,5f3663dd7dda2100096d4a81,60a7d7fa4e3ef8b5f5a00b00,2021-05-21_17h56.26.997,Simcolourproject_2stim_asymm_v5,2020.2.10,MacIntel,60,60a5f9bf14d0aa2821c4bb84,,,1621,-58.64874268,24.47427368,1,0,0,response7disk,,1,22.7333374,-15.9619751,1,0,0,rectangle,22.7333374,-15.9619751,1,0,0,0,"[178,301,10,40,129,266,47,195,60,64,161,165,136,43,323,279,190,79,287,108]",22.7333374,-15.9619751,1,0,0,1,9,170,54,1,,,
,,,,,,,,,,,,,FF,,,,,,,,0.650645,,,,,,,,,,,,,,,,,,,,,,,,,5f3663dd7dda2100096d4a81,60a7d7fa4e3ef8b5f5a00b00,2021-05-21_17h56.26.997,Simcolourproject_2stim_asymm_v5,2020.2.10,MacIntel,60,60a5f9bf14d0aa2821c4bb84,,,3073,-29.95727539,72.83407593,1,0,0,response7disk,,0,-17.71069336,11.4519043,1,0,0,rectangle,-17.71069336,11.4519043,1,0,0,4,"[178,301,10,40,129,266,47,195,60,64,161,165,136,43,323,279,190,79,287,108]",-17.71069336,11.4519043,1,0,0,1,10,171,88,1,,,
,,,,,,,,,,,,,FF,,,,,,,,0.735175,,,,,,,,,,,,,,,,,,,,,,,,,5f3663dd7dda2100096d4a81,60a7d7fa4e3ef8b5f5a00b00,2021-05-21_17h56.26.997,Simcolourproject_2stim_asymm_v5,2020.2.10,MacIntel,60,60a5f9bf14d0aa2821c4bb84,,,1258,-22.50317383,53.64129639,1,0,0,response7disk,,0,-7.924194336,9.731506348,1,0,0,rectangle,-7.924194336,9.731506348,1,0,0,4,"[178,301,10,40,129,266,47,195,60,64,161,165,136,43,323,279,190,79,287,108]",-7.924194336,9.731506348,1,0,0,1,11,172,23,1,,,
,,,,,,,,,,,,,FF,,,,,,,,1.08324,,,,,,,,,,,,,,,,,,,,,,,,,5f3663dd7dda2100096d4a81,60a7d7fa4e3ef8b5f5a00b00,2021-05-21_17h56.26.997,Simcolourproject_2stim_asymm_v5,2020.2.10,MacIntel,60,60a5f9bf14d0aa2821c4bb84,,,1382,43.71405029,-77.74584961,1,0,0,response3disk,,4,20.53088379,-4.63671875,1,0,0,rectangle,20.53088379,-4.63671875,1,0,0,1,"[178,301,10,40,129,266,47,195,60,64,161,165,136,43,323,279,190,79,287,108]",20.53088379,-4.63671875,1,0,0,1,12,173,118,1,,,
,,,,,,,,,,,,,FF,,,,,,,,1.43628,,,,,,,,,,,,,,,,,,,,,,,,,5f3663dd7dda2100096d4a81,60a7d7fa4e3ef8b5f5a00b00,2021-05-21_17h56.26.997,Simcolourproject_2stim_asymm_v5,2020.2.10,MacIntel,60,60a5f9bf14d0aa2821c4bb84,,,4075,-58.46014404,30.5317688,1,0,0,response7disk,,1,1.24987793,0.018493652,1,0,0,rectangle,1.24987793,0.018493652,1,0,0,3,"[178,301,10,40,129,266,47,195,60,64,161,165,136,43,323,279,190,79,287,108]",1.24987793,0.018493652,1,0,0,1,13,174,72,1,,,
,,,,,,,,,,,,,FF,,,,,,,,1.669855,,,,,,,,,,,,,,,,,,,,,,,,,5f3663dd7dda2100096d4a81,60a7d7fa4e3ef8b5f5a00b00,2021-05-21_17h56.26.997,Simcolourproject_2stim_asymm_v5,2020.2.10,MacIntel,60,60a5f9bf14d0aa2821c4bb84,,,2822,-19.77703857,44.99816895,1,0,0,response7disk,,0,2.590576172,3.452697754,1,0,0,rectangle,2.590576172,3.452697754,1,0,0,5,"[178,301,10,40,129,266,47,195,60,64,161,165,136,43,323,279,190,79,287,108]",2.590576172,3.452697754,1,0,0,1,14,175,120,1,,,
,,,,,,,,,,,,,FF,,,,,,,,2.03346,,,,,,,,,,,,,,,,,,,,,,,,,5f3663dd7dda2100096d4a81,60a7d7fa4e3ef8b5f5a00b00,2021-05-21_17h56.26.997,Simcolourproject_2stim_asymm_v5,2020.2.10,MacIntel,60,60a5f9bf14d0aa2821c4bb84,,,1606,-39.54412842,-69.51220703,1,0,0,response5disk,,3,-0.093811035,-2.313079834,1,0,0,rectangle,-0.093811035,-2.313079834,1,0,0,0,"[178,301,10,40,129,266,47,195,60,64,161,165,136,43,323,279,190,79,287,108]",-0.093811035,-2.313079834,1,0,0,1,15,176,25,1,,,
,,,,,,,,,,,,,FF,,,,,,,,1.758,,,,,,,,,,,,,,,,,,,,,,,,,5f3663dd7dda2100096d4a81,60a7d7fa4e3ef8b5f5a00b00,2021-05-21_17h56.26.997,Simcolourproject_2stim_asymm_v5,2020.2.10,MacIntel,60,60a5f9bf14d0aa2821c4bb84,,,3912,-56.04095459,-23.86834717,1,0,0,response5disk,,3,-15.25177002,-11.12744141,1,0,0,rectangle,77.16229248,-43.35437012,1,0,0,5,"[178,301,10,40,129,266,47,195,60,64,161,165,136,43,323,279,190,79,287,108]",17.50891113,-16.44281006,1,0,0,1,16,177,12,1,,response3disk_3,rectangle
,,,,,,,,,,,,,FF,,,,,,,,1.39837,,,,,,,,,,,,,,,,,,,,,,,,,5f3663dd7dda2100096d4a81,60a7d7fa4e3ef8b5f5a00b00,2021-05-21_17h56.26.997,Simcolourproject_2stim_asymm_v5,2020.2.10,MacIntel,60,60a5f9bf14d0aa2821c4bb84,,,1841,-53.07263184,29.61273193,1,0,0,response7disk,,1,-4.168334961,-0.853271484,1,0,0,rectangle,-4.168334961,-0.853271484,1,0,0,4,"[178,301,10,40,129,266,47,195,60,64,161,165,136,43,323,279,190,79,287,108]",-4.168334961,-0.853271484,1,0,0,1,17,178,42,1,,,
,,,,,,,,,,,,,FF,,,,,,,,0.80159,,,,,,,,,,,,,,,,,,,,,,,,,5f3663dd7dda2100096d4a81,60a7d7fa4e3ef8b5f5a00b00,2021-05-21_17h56.26.997,Simcolourproject_2stim_asymm_v5,2020.2.10,MacIntel,60,60a5f9bf14d0aa2821c4bb84,,,1246,-23.47717285,58.44390869,1,0,0,response7disk,,0,-9.004272461,-13.30407715,1,0,0,rectangle,-9.004272461,-13.30407715,1,0,0,5,"[178,301,10,40,129,266,47,195,60,64,161,165,136,43,323,279,190,79,287,108]",-9.004272461,-13.30407715,1,0,0,1,18,179,156,1,,,
,,,,,,,,,,,,,FF,,,,,,,,1.04968,,,,,,,,,,,,,,,,,,,,,,,,,5f3663dd7dda2100096d4a81,60a7d7fa4e3ef8b5f5a00b00,2021-05-21_17h56.26.997,Simcolourproject_2stim_asymm_v5,2020.2.10,MacIntel,60,60a5f9bf14d0aa2821c4bb84,,,2317,-57.07324219,13.08630371,1,0,0,response7disk,,1,-5.978759766,1.467224121,1,0,0,rectangle,-5.978759766,1.467224121,1,0,0,3,"[178,301,10,40,129,266,47,195,60,64,161,165,136,43,323,279,190,79,287,108]",-5.978759766,1.467224121,1,0,0,1,19,180,3,1,,,
,,,,,,,,,,,,,FF,,,,,,,,2.267115,,,,,,,,,,,,,,,,,,,,,,,,,5f3663dd7dda2100096d4a81,60a7d7fa4e3ef8b5f5a00b00,2021-05-21_17h56.26.997,Simcolourproject_2stim_asymm_v5,2020.2.10,MacIntel,60,60a5f9bf14d0aa2821c4bb84,,,1117,-44.71337891,-88.27960205,1,0,0,response5disk,,3,10.66375732,-10.7359314,1,0,0,rectangle,10.66375732,-10.7359314,1,0,0,6,"[178,301,10,40,129,266,47,195,60,64,161,165,136,43,323,279,190,79,287,108]",10.66375732,-10.7359314,1,0,0,1,20,181,5,1,,,
,,,,,,,,,,,,,FF,,,,,,,,1.85231,,,,,,,,,,,,,,,,,,,,,,,,,5f3663dd7dda2100096d4a81,60a7d7fa4e3ef8b5f5a00b00,2021-05-21_17h56.26.997,Simcolourproject_2stim_asymm_v5,2020.2.10,MacIntel,60,60a5f9bf14d0aa2821c4bb84,,,1272,-33.81842041,-73.18280029,1,0,0,response5disk,,3,-2.461914063,-6.884033203,1,0,0,rectangle,-2.461914063,-6.884033203,1,0,0,4,"[178,301,10,40,129,266,47,195,60,64,161,165,136,43,323,279,190,79,287,108]",-2.461914063,-6.884033203,1,0,0,1,21,182,22,1,,,
,,,,,,,,,,,,,FF,,,,,,,,2.914755,,,,,,,,,,,,,,,,,,,,,,,,,5f3663dd7dda2100096d4a81,60a7d7fa4e3ef8b5f5a00b00,2021-05-21_17h56.26.997,Simcolourproject_2stim_asymm_v5,2020.2.10,MacIntel,60,60a5f9bf14d0aa2821c4bb84,,,3718,-57.86694336,-35.61712646,1,0,0,response5disk,,3,-7.176208496,-1.033416748,1,0,0,rectangle,-7.176208496,-1.033416748,1,0,0,2,"[178,301,10,40,129,266,47,195,60,64,161,165,136,43,323,279,190,79,287,108]",-7.176208496,-1.033416748,1,0,0,1,22,183,65,1,,,
,,,,,,,,,,,,,FF,,,,,,,,3.24994,,,,,,,,,,,,,,,,,,,,,,,,,5f3663dd7dda2100096d4a81,60a7d7fa4e3ef8b5f5a00b00,2021-05-21_17h56.26.997,Simcolourproject_2stim_asymm_v5,2020.2.10,MacIntel,60,60a5f9bf14d0aa2821c4bb84,,,1111,-53.98620605,27.52416992,1,0,0,response7disk,,1,-7.689880371,8.205871582,1,0,0,rectangle,-7.689880371,8.205871582,1,0,0,6,"[178,301,10,40,129,266,47,195,60,64,161,165,136,43,323,279,190,79,287,108]",-7.689880371,8.205871582,1,0,0,1,23,184,70,1,,,
,,,,,,,,,,,,,FF,,,,,,,,1.637285,,,,,,,,,,,,,,,,,,,,,,,,,5f3663dd7dda2100096d4a81,60a7d7fa4e3ef8b5f5a00b00,2021-05-21_17h56.26.997,Simcolourproject_2stim_asymm_v5,2020.2.10,MacIntel,60,60a5f9bf14d0aa2821c4bb84,,,1325,-16.29016113,67.47155762,1,0,0,response7disk,,0,7.50982666,9.165222168,1,0,0,rectangle,7.50982666,9.165222168,1,0,0,2,"[178,301,10,40,129,266,47,195,60,64,161,165,136,43,323,279,190,79,287,108]",7.50982666,9.165222168,1,0,0,1,24,185,136,1,,,
,,,,,,,,,,,,,FF,,,,,,,,2.03377,,,,,,,,,,,,,,,,,,,,,,,,,5f3663dd7dda2100096d4a81,60a7d7fa4e3ef8b5f5a00b00,2021-05-21_17h56.26.997,Simcolourproject_2stim_asymm_v5,2020.2.10,MacIntel,60,60a5f9bf14d0aa2821c4bb84,,,4241,-41.65362549,-76.88928223,1,0,0,response5disk,,3,7.577758789,-6.686645508,1,0,0,rectangle,7.577758789,-6.686645508,1,0,0,5,"[178,301,10,40,129,266,47,195,60,64,161,165,136,43,323,279,190,79,287,108]",7.577758789,-6.686645508,1,0,0,1,25,186,84,1,,,
,,,,,,,,,,,,,FF,,,,,,,,1.333005,,,,,,,,,,,,,,,,,,,,,,,,,5f3663dd7dda2100096d4a81,60a7d7fa4e3ef8b5f5a00b00,2021-05-21_17h56.26.997,Simcolourproject_2stim_asymm_v5,2020.2.10,MacIntel,60,60a5f9bf14d0aa2821c4bb84,,,142,-19.70391846,31.05328369,1,0,0,response7disk,,0,11.46606445,-10.67572021,1,0,0,rectangle,11.46606445,-10.67572021,1,0,0,5,"[178,301,10,40,129,266,47,195,60,64,161,165,136,43,323,279,190,79,287,108]",11.46606445,-10.67572021,1,0,0,1,26,187,36,1,,,
,,,,,,,,,,,,,FF,,,,,,,,0.732725,,,,,,,,,,,,,,,,,,,,,,,,,5f3663dd7dda2100096d4a81,60a7d7fa4e3ef8b5f5a00b00,2021-05-21_17h56.26.997,Simcolourproject_2stim_asymm_v5,2020.2.10,MacIntel,60,60a5f9bf14d0aa2821c4bb84,,,2051,-46.05175781,21.82797241,1,0,0,response7disk,,1,-5.36730957,-3.351898193,1,0,0,rectangle,-5.36730957,-3.351898193,1,0,0,1,"[178,301,10,40,129,266,47,195,60,64,161,165,136,43,323,279,190,79,287,108]",-5.36730957,-3.351898193,1,0,0,1,27,188,146,1,,,
,,,,,,,,,,,,,FF,,,,,,,,0.5501,,,,,,,,,,,,,,,,,,,,,,,,,5f3663dd7dda2100096d4a81,60a7d7fa4e3ef8b5f5a00b00,2021-05-21_17h56.26.997,Simcolourproject_2stim_asymm_v5,2020.2.10,MacIntel,60,60a5f9bf14d0aa2821c4bb84,,,3767,-25.81225586,85.37145996,1,0,0,response7disk,,0,-9.769287109,5.465698242,1,0,0,rectangle,38.77746582,72.29864502,1,0,0,7,"[178,301,10,40,129,266,47,195,60,64,161,165,136,43,323,279,190,79,287,108]",4.898132324,6.214294434,1,0,0,1,28,189,16,1,,response1disk_3,rectangle
,,,,,,,,,,,,,FF,,,,,,,,1.03554,,,,,,,,,,,,,,,,,,,,,,,,,5f3663dd7dda2100096d4a81,60a7d7fa4e3ef8b5f5a00b00,2021-05-21_17h56.26.997,Simcolourproject_2stim_asymm_v5,2020.2.10,MacIntel,60,60a5f9bf14d0aa2821c4bb84,,,3967,52.39367676,18.7477417,1,0,0,response1disk,,6,10.96722412,5.731201172,1,0,0,rectangle,10.96722412,5.731201172,1,0,0,1,"[178,301,10,40,129,266,47,195,60,64,161,165,136,43,323,279,190,79,287,108]",10.96722412,5.731201172,1,0,0,1,29,190,157,1,,,
,,,,,,,,,,,,,FF,,,,,,,,0.572075,,,,,,,,,,,,,,,,,,,,,,,,,5f3663dd7dda2100096d4a81,60a7d7fa4e3ef8b5f5a00b00,2021-05-21_17h56.26.997,Simcolourproject_2stim_asymm_v5,2020.2.10,MacIntel,60,60a5f9bf14d0aa2821c4bb84,,,4325,-28.38299561,72.06842041,1,0,0,response7disk,,0,-19.7868042,-7.014770508,1,0,0,rectangle,-19.7868042,-7.014770508,1,0,0,2,"[178,301,10,40,129,266,47,195,60,64,161,165,136,43,323,279,190,79,287,108]",-19.7868042,-7.014770508,1,0,0,1,30,191,125,1,,,
,,,,,,,,,,,,,FF,,,,,,,,1.083495,,,,,,,,,,,,,,,,,,,,,,,,,5f3663dd7dda2100096d4a81,60a7d7fa4e3ef8b5f5a00b00,2021-05-21_17h56.26.997,Simcolourproject_2stim_asymm_v5,2020.2.10,MacIntel,60,60a5f9bf14d0aa2821c4bb84,,,2765,-45.53112793,25.86953735,1,0,0,response7disk,,1,-21.1229248,8.218933105,1,0,0,rectangle,-21.1229248,8.218933105,1,0,0,5,"[178,301,10,40,129,266,47,195,60,64,161,165,136,43,323,279,190,79,287,108]",-21.1229248,8.218933105,1,0,0,1,31,192,126,1,,,
,,,,,,,,,,,,,FF,,,,,,,,0.86623,,,,,,,,,,,,,,,,,,,,,,,,,5f3663dd7dda2100096d4a81,60a7d7fa4e3ef8b5f5a00b00,2021-05-21_17h56.26.997,Simcolourproject_2stim_asymm_v5,2020.2.10,MacIntel,60,60a5f9bf14d0aa2821c4bb84,,,3374,31.95300293,-75.65966797,1,0,0,response3disk,,4,3.293518066,-0.5831604,1,0,0,rectangle,3.293518066,-0.5831604,1,0,0,6,"[178,301,10,40,129,266,47,195,60,64,161,165,136,43,323,279,190,79,287,108]",3.293518066,-0.5831604,1,0,0,1,32,193,96,1,,,
,,,,,,,,,,,,,FF,,,,,,,,1.249815,,,,,,,,,,,,,,,,,,,,,,,,,5f3663dd7dda2100096d4a81,60a7d7fa4e3ef8b5f5a00b00,2021-05-21_17h56.26.997,Simcolourproject_2stim_asymm_v5,2020.2.10,MacIntel,60,60a5f9bf14d0aa2821c4bb84,,,1376,-37.63574219,-61.61105347,1,0,0,response5disk,,3,-4.57623291,-10.41583252,1,0,0,rectangle,-85.70428467,34.23480225,1,0,0,1,"[178,301,10,40,129,266,47,195,60,64,161,165,136,43,323,279,190,79,287,108]",-2.305541992,4.602966309,1,0,0,1,33,194,107,1,,response7disk_3,rectangle
,,,,,,,,,,,,,FF,,,,,,,,2.80183,,,,,,,,,,,,,,,,,,,,,,,,,5f3663dd7dda2100096d4a81,60a7d7fa4e3ef8b5f5a00b00,2021-05-21_17h56.26.997,Simcolourproject_2stim_asymm_v5,2020.2.10,MacIntel,60,60a5f9bf14d0aa2821c4bb84,,,4088,-26.37231445,66.77108765,1,0,0,response7disk,,0,-1.219970703,-0.682006836,1,0,0,rectangle,-1.219970703,-0.682006836,1,0,0,1,"[178,301,10,40,129,266,47,195,60,64,161,165,136,43,323,279,190,79,287,108]",-1.219970703,-0.682006836,1,0,0,1,34,195,68,1,,,
,,,,,,,,,,,,,FF,,,,,,,,0.898955,,,,,,,,,,,,,,,,,,,,,,,,,5f3663dd7dda2100096d4a81,60a7d7fa4e3ef8b5f5a00b00,2021-05-21_17h56.26.997,Simcolourproject_2stim_asymm_v5,2020.2.10,MacIntel,60,60a5f9bf14d0aa2821c4bb84,,,1905,21.32867432,-48.9498291,1,0,0,response3disk,,4,4.401428223,-2.19152832,1,0,0,rectangle,4.401428223,-2.19152832,1,0,0,4,"[178,301,10,40,129,266,47,195,60,64,161,165,136,43,323,279,190,79,287,108]",4.401428223,-2.19152832,1,0,0,1,35,196,40,1,,,
,,,,,,,,,,,,,FF,,,,,,,,1.02101,,,,,,,,,,,,,,,,,,,,,,,,,5f3663dd7dda2100096d4a81,60a7d7fa4e3ef8b5f5a00b00,2021-05-21_17h56.26.997,Simcolourproject_2stim_asymm_v5,2020.2.10,MacIntel,60,60a5f9bf14d0aa2821c4bb84,,,486,-51.19934082,44.88070679,1,0,0,response7disk,,1,-22.33105469,17.94970703,1,0,0,rectangle,-22.33105469,17.94970703,1,0,0,5,"[178,301,10,40,129,266,47,195,60,64,161,165,136,43,323,279,190,79,287,108]",-22.33105469,17.94970703,1,0,0,1,36,197,18,1,,,
,,,,,,,,,,,,,FF,,,,,,,,0.734985,,,,,,,,,,,,,,,,,,,,,,,,,5f3663dd7dda2100096d4a81,60a7d7fa4e3ef8b5f5a00b00,2021-05-21_17h56.26.997,Simcolourproject_2stim_asymm_v5,2020.2.10,MacIntel,60,60a5f9bf14d0aa2821c4bb84,,,3936,38.61975098,71.06893921,1,0,0,response1disk,,7,10.8527832,-3.833221436,1,0,0,rectangle,10.8527832,-3.833221436,1,0,0,2,"[178,301,10,40,129,266,47,195,60,64,161,165,136,43,323,279,190,79,287,108]",10.8527832,-3.833221436,1,0,0,1,37,198,83,1,,,
,,,,,,,,,,,,,FF,,,,,,,,0.71848,,,,,,,,,,,,,,,,,,,,,,,,,5f3663dd7dda2100096d4a81,60a7d7fa4e3ef8b5f5a00b00,2021-05-21_17h56.26.997,Simcolourproject_2stim_asymm_v5,2020.2.10,MacIntel,60,60a5f9bf14d0aa2821c4bb84,,,1602,73.69934082,20.36447144,1,0,0,response1disk,,6,6.473876953,11.75164795,1,0,0,rectangle,6.473876953,11.75164795,1,0,0,6,"[178,301,10,40,129,266,47,195,60,64,161,165,136,43,323,279,190,79,287,108]",6.473876953,11.75164795,1,0,0,1,38,199,97,1,,,
,,,,,,,,,,,,,FF,,,,,,,,0.465035,,,,,,,,,,,,,,,,,,,,,,,,,5f3663dd7dda2100096d4a81,60a7d7fa4e3ef8b5f5a00b00,2021-05-21_17h56.26.997,Simcolourproject_2stim_asymm_v5,2020.2.10,MacIntel,60,60a5f9bf14d0aa2821c4bb84,,,3707,43.52429199,70.60314941,1,0,0,response1disk,,7,13.01416016,2.739624023,1,0,0,rectangle,13.01416016,2.739624023,1,0,0,3,"[178,301,10,40,129,266,47,195,60,64,161,165,136,43,323,279,190,79,287,108]",13.01416016,2.739624023,1,0,0,1,39,200,150,1,,,
,,,,,,,,,,,,,FF,,,,,,,,0.614855,,,,,,,,,,,,,,,,,,,,,,,,,5f3663dd7dda2100096d4a81,60a7d7fa4e3ef8b5f5a00b00,2021-05-21_17h56.26.997,Simcolourproject_2stim_asymm_v5,2020.2.10,MacIntel,60,60a5f9bf14d0aa2821c4bb84,,,1755,61.67785645,26.58056641,1,0,0,response1disk,,6,5.758239746,9.444274902,1,0,0,rectangle,5.758239746,9.444274902,1,0,0,4,"[178,301,10,40,129,266,47,195,60,64,161,165,136,43,323,279,190,79,287,108]",5.758239746,9.444274902,1,0,0,1,40,201,75,1,,,
,,,,,,,,,,,,,FF,,,,,,,,0.834465,,,,,,,,,,,,,,,,,,,,,,,,,5f3663dd7dda2100096d4a81,60a7d7fa4e3ef8b5f5a00b00,2021-05-21_17h56.26.997,Simcolourproject_2stim_asymm_v5,2020.2.10,MacIntel,60,60a5f9bf14d0aa2821c4bb84,,,3919,-37.45178223,62.01568604,1,0,0,response7disk,,0,-3.199035645,-6.437103271,1,0,0,rectangle,-3.199035645,-6.437103271,1,0,0,2,"[178,301,10,40,129,266,47,195,60,64,161,165,136,43,323,279,190,79,287,108]",-3.199035645,-6.437103271,1,0,0,1,41,202,47,1,,,
,,,,,,,,,,,,,FF,,,,,,,,0.951995,,,,,,,,,,,,,,,,,,,,,,,,,5f3663dd7dda2100096d4a81,60a7d7fa4e3ef8b5f5a00b00,2021-05-21_17h56.26.997,Simcolourproject_2stim_asymm_v5,2020.2.10,MacIntel,60,60a5f9bf14d0aa2821c4bb84,,,2519,-22.71697998,42.88864136,1,0,0,response7disk,,0,-16.80999756,-5.920471191,1,0,0,rectangle,-16.80999756,-5.920471191,1,0,0,7,"[178,301,10,40,129,266,47,195,60,64,161,165,136,43,323,279,190,79,287,108]",-16.80999756,-5.920471191,1,0,0,1,42,203,49,1,,,
,,,,,,,,,,,,,FF,,,,,,,,0.600235,,,,,,,,,,,,,,,,,,,,,,,,,5f3663dd7dda2100096d4a81,60a7d7fa4e3ef8b5f5a00b00,2021-05-21_17h56.26.997,Simcolourproject_2stim_asymm_v5,2020.2.10,MacIntel,60,60a5f9bf14d0aa2821c4bb84,,,1290,42.81274414,60.62808228,1,0,0,response1disk,,7,8.442077637,0.899353027,1,0,0,rectangle,8.442077637,0.899353027,1,0,0,3,"[178,301,10,40,129,266,47,195,60,64,161,165,136,43,323,279,190,79,287,108]",8.442077637,0.899353027,1,0,0,1,43,204,151,1,,,
,,,,,,,,,,,,,FF,,,,,,,,0.61666,,,,,,,,,,,,,,,,,,,,,,,,,5f3663dd7dda2100096d4a81,60a7d7fa4e3ef8b5f5a00b00,2021-05-21_17h56.26.997,Simcolourproject_2stim_asymm_v5,2020.2.10,MacIntel,60,60a5f9bf14d0aa2821c4bb84,,,51,-37.47094727,80.86444092,1,0,0,response7disk,,0,-11.16833496,3.959838867,1,0,0,rectangle,-11.16833496,3.959838867,1,0,0,3,"[178,301,10,40,129,266,47,195,60,64,161,165,136,43,323,279,190,79,287,108]",-11.16833496,3.959838867,1,0,0,1,44,205,15,1,,,
