key_resp.keys,key_resp.rt,key_resp_14.keys,key_resp_14.rt,key_resp_15.keys,key_resp_15.rt,key_resp_17.keys,key_resp_17.rt,key_resp_9.keys,key_resp_9.rt,key_resp_10.keys,key_resp_10.rt,practice_comparison,Ecc,mouse_5.x,mouse_5.y,mouse_5.leftButton,mouse_5.midButton,mouse_5.rightButton,mouse_5.clicked_name,pracsimilarity,response_time,mouse_10.x,mouse_10.y,mouse_10.leftButton,mouse_10.midButton,mouse_10.rightButton,mouse_10.clicked_name,mouse_7.x,mouse_7.y,mouse_7.leftButton,mouse_7.midButton,mouse_7.rightButton,catchnumberprac,mouse_6.x,mouse_6.y,mouse_6.leftButton,mouse_6.midButton,mouse_6.rightButton,duringprac.thisRepN,duringprac.thisTrialN,duringprac.thisN,duringprac.thisIndex,duringprac.ran,participant,session,date,expName,psychopyVersion,OS,frameRate,study_id,mouse_7.clicked_name,mouse_6.clicked_name,key_resp_22.keys,key_resp_22.rt,realcomparison,mouse.x,mouse.y,mouse.leftButton,mouse.midButton,mouse.rightButton,mouse.clicked_name,Colour2,similarity,mouse_2.x,mouse_2.y,mouse_2.leftButton,mouse_2.midButton,mouse_2.rightButton,mouse_2.clicked_name,mouse_3.x,mouse_3.y,mouse_3.leftButton,mouse_3.midButton,mouse_3.rightButton,catchnumber,catchtrialorder,mouse_11.x,mouse_11.y,mouse_11.leftButton,mouse_11.midButton,mouse_11.rightButton,trials_2.thisRepN,trials_2.thisTrialN,trials_2.thisN,trials_2.thisIndex,trials_2.ran,Colour1,mouse_3.clicked_name,mouse_11.clicked_name
space,44.268715,space,23.6824,space,80.167575,space,38.323095,space,2.51463,space,7.77676,89,PF,111.2000131,46.1999709,1,0,0,response1disk_5,6,1.28397,-5.599988639,6.999994725,1,0,0,rectangle_8,-5.599988639,6.999994725,1,0,0,7,-5.599988639,6.999994725,1,0,0,0,0,0,6,1,5fac647436421623d15dfcf5,60a7d7fb4e53a0a5eaf92c54,2021-05-21_17h56.08.002,Simcolourproject_2stim_asymm_v5,2020.2.10,Win32,60,60a5f9bf14d0aa2821c4bb84,,,,,,,,,,,,,,,,,,,,,,,,,,,,,,,,,,,,,,,
,,,,,,,,,,,,127,FF,-83.99998981,-29.00000581,1,0,0,response5disk_5,6,1.499545,-19.19998884,8.599994749,1,0,0,rectangle_8,-19.19998884,8.599994749,1,0,0,7,-19.19998884,8.599994749,1,0,0,0,1,1,3,1,5fac647436421623d15dfcf5,60a7d7fb4e53a0a5eaf92c54,2021-05-21_17h56.08.002,Simcolourproject_2stim_asymm_v5,2020.2.10,Win32,60,60a5f9bf14d0aa2821c4bb84,,,,,,,,,,,,,,,,,,,,,,,,,,,,,,,,,,,,,,,
,,,,,,,,,,,,156,FF,-30.39994018,-72.20000646,1,0,0,response5disk_5,3,7.966675,-12.79998875,-1.80002982,1,0,0,rectangle_8,41.60006089,83.79999587,1,0,0,7,-11.99998873,-4.200005442,1,0,0,0,2,2,5,1,5fac647436421623d15dfcf5,60a7d7fb4e53a0a5eaf92c54,2021-05-21_17h56.08.002,Simcolourproject_2stim_asymm_v5,2020.2.10,Win32,60,60a5f9bf14d0aa2821c4bb84,response1disk_7,rectangle_4,,,,,,,,,,,,,,,,,,,,,,,,,,,,,,,,,,,,,
,,,,,,,,,,,,117,PF,-55.99998939,-85.00000665,1,0,0,response5disk_5,3,13.733345,4.800011516,-7.40000549,1,0,0,rectangle_8,4.800011516,-7.40000549,1,0,0,7,4.800011516,-7.40000549,1,0,0,0,3,3,4,1,5fac647436421623d15dfcf5,60a7d7fb4e53a0a5eaf92c54,2021-05-21_17h56.08.002,Simcolourproject_2stim_asymm_v5,2020.2.10,Win32,60,60a5f9bf14d0aa2821c4bb84,,,,,,,,,,,,,,,,,,,,,,,,,,,,,,,,,,,,,,,
,,,,,,,,,,,,13,PF,-99.19999003,-29.00000581,1,0,0,response5disk_5,3,4.783455,-1.59998858,1.399994642,1,0,0,rectangle_8,-1.59998858,1.399994642,1,0,0,7,-1.59998858,1.399994642,1,0,0,0,4,4,1,1,5fac647436421623d15dfcf5,60a7d7fb4e53a0a5eaf92c54,2021-05-21_17h56.08.002,Simcolourproject_2stim_asymm_v5,2020.2.10,Win32,60,60a5f9bf14d0aa2821c4bb84,,,,,,,,,,,,,,,,,,,,,,,,,,,,,,,,,,,,,,,
,,,,,,,,,,,,156,PF,76.80001259,-37.80003036,1,0,0,response3disk_5,5,7.13286,12.00001162,3.799994677,1,0,0,rectangle_8,12.00001162,3.799994677,1,0,0,7,12.00001162,3.799994677,1,0,0,0,5,5,2,1,5fac647436421623d15dfcf5,60a7d7fb4e53a0a5eaf92c54,2021-05-21_17h56.08.002,Simcolourproject_2stim_asymm_v5,2020.2.10,Win32,60,60a5f9bf14d0aa2821c4bb84,,,,,,,,,,,,,,,,,,,,,,,,,,,,,,,,,,,,,,,
,,,,,,,,,,,,50,FF,88.80001277,42.99999526,1,0,0,response1disk_5,6,4.16644,6.400011539,0.59999463,1,0,0,rectangle_8,6.400011539,0.59999463,1,0,0,7,6.400011539,0.59999463,1,0,0,0,6,6,0,1,5fac647436421623d15dfcf5,60a7d7fb4e53a0a5eaf92c54,2021-05-21_17h56.08.002,Simcolourproject_2stim_asymm_v5,2020.2.10,Win32,60,60a5f9bf14d0aa2821c4bb84,,,,,,,,,,,,,,,,,,,,,,,,,,,,,,,,,,,,,,,
,,,,,,,,,,,,,FF,,,,,,,,2.333705,,,,,,,,,,,,,,,,,,,,,,,5fac647436421623d15dfcf5,60a7d7fb4e53a0a5eaf92c54,2021-05-21_17h56.08.002,Simcolourproject_2stim_asymm_v5,2020.2.10,Win32,60,60a5f9bf14d0aa2821c4bb84,,,space,5.206295,2886,59.20001233,118.9999964,1,0,0,response1disk,,7,-3.199988604,0.59999463,1,0,0,rectangle,-3.199988604,0.59999463,1,0,0,0,"[241,9,262,242,217,310,298,17,7,246,275,211,8,277,59,78,235,315,276,268]",-3.199988604,0.59999463,1,0,0,0,0,0,21,1,,,
,,,,,,,,,,,,,FF,,,,,,,,5.0304,,,,,,,,,,,,,,,,,,,,,,,5fac647436421623d15dfcf5,60a7d7fb4e53a0a5eaf92c54,2021-05-21_17h56.08.002,Simcolourproject_2stim_asymm_v5,2020.2.10,Win32,60,60a5f9bf14d0aa2821c4bb84,,,,,3134,80.80001265,36.59999517,1,0,0,response1disk,,6,12.00001162,-1.000005394,1,0,0,rectangle,12.00001162,-1.000005394,1,0,0,5,"[241,9,262,242,217,310,298,17,7,246,275,211,8,277,59,78,235,315,276,268]",12.00001162,-1.000005394,1,0,0,0,1,1,101,1,,,
,,,,,,,,,,,,,FF,,,,,,,,3.15033,,,,,,,,,,,,,,,,,,,,,,,5fac647436421623d15dfcf5,60a7d7fb4e53a0a5eaf92c54,2021-05-21_17h56.08.002,Simcolourproject_2stim_asymm_v5,2020.2.10,Win32,60,60a5f9bf14d0aa2821c4bb84,,,,,2650,-39.99998915,-71.40000644,1,0,0,response5disk,,3,-5.599988639,1.399994642,1,0,0,rectangle,-5.599988639,1.399994642,1,0,0,7,"[241,9,262,242,217,310,298,17,7,246,275,211,8,277,59,78,235,315,276,268]",-5.599988639,1.399994642,1,0,0,0,2,2,85,1,,,
,,,,,,,,,,,,,FF,,,,,,,,4.500155,,,,,,,,,,,,,,,,,,,,,,,5fac647436421623d15dfcf5,60a7d7fb4e53a0a5eaf92c54,2021-05-21_17h56.08.002,Simcolourproject_2stim_asymm_v5,2020.2.10,Win32,60,60a5f9bf14d0aa2821c4bb84,,,,,4211,106.400013,-34.60000589,1,0,0,response3disk,,5,1.14441E-05,-0.200005382,1,0,0,rectangle,1.14441E-05,-0.200005382,1,0,0,0,"[241,9,262,242,217,310,298,17,7,246,275,211,8,277,59,78,235,315,276,268]",1.14441E-05,-0.200005382,1,0,0,0,3,3,26,1,,,
,,,,,,,,,,,,,FF,,,,,,,,3.783325,,,,,,,,,,,,,,,,,,,,,,,5fac647436421623d15dfcf5,60a7d7fb4e53a0a5eaf92c54,2021-05-21_17h56.08.002,Simcolourproject_2stim_asymm_v5,2020.2.10,Win32,60,60a5f9bf14d0aa2821c4bb84,,,,,459,-43.1999892,-71.40000644,1,0,0,response5disk,,3,16.00001168,-4.200005442,1,0,0,rectangle,16.00001168,-4.200005442,1,0,0,5,"[241,9,262,242,217,310,298,17,7,246,275,211,8,277,59,78,235,315,276,268]",16.00001168,-4.200005442,1,0,0,0,4,4,67,1,,,
,,,,,,,,,,,,,FF,,,,,,,,2.90074,,,,,,,,,,,,,,,,,,,,,,,5fac647436421623d15dfcf5,60a7d7fb4e53a0a5eaf92c54,2021-05-21_17h56.08.002,Simcolourproject_2stim_asymm_v5,2020.2.10,Win32,60,60a5f9bf14d0aa2821c4bb84,,,,,849,40.00001204,88.59999594,1,0,0,response1disk,,7,9.600060415,-11.40000555,1,0,0,rectangle,9.600060415,-11.40000555,1,0,0,6,"[241,9,262,242,217,310,298,17,7,246,275,211,8,277,59,78,235,315,276,268]",9.600060415,-11.40000555,1,0,0,0,5,5,153,1,,,
,,,,,,,,,,,,,FF,,,,,,,,9.966115,,,,,,,,,,,,,,,,,,,,,,,5fac647436421623d15dfcf5,60a7d7fb4e53a0a5eaf92c54,2021-05-21_17h56.08.002,Simcolourproject_2stim_asymm_v5,2020.2.10,Win32,60,60a5f9bf14d0aa2821c4bb84,,,,,1515,104.000013,26.99999502,1,0,0,response1disk,,6,-1.59998858,2.999994665,1,0,0,rectangle,65.60001242,-117.8000071,1,0,0,4,"[241,9,262,242,217,310,298,17,7,246,275,211,8,277,59,78,235,315,276,268]",-23.1999889,-5.000005454,1,0,0,0,6,6,32,1,,response3disk_3,rectangle
,,,,,,,,,,,,,FF,,,,,,,,34.11655,,,,,,,,,,,,,,,,,,,,,,,5fac647436421623d15dfcf5,60a7d7fb4e53a0a5eaf92c54,2021-05-21_17h56.08.002,Simcolourproject_2stim_asymm_v5,2020.2.10,Win32,60,60a5f9bf14d0aa2821c4bb84,,,,,2616,95.20001286,49.39999536,1,0,0,response1disk,,6,25.60006065,-1.80002982,1,0,0,rectangle,35.20001197,82.19997143,1,0,0,7,"[241,9,262,242,217,310,298,17,7,246,275,211,8,277,59,78,235,315,276,268]",0.800011456,-0.200005382,1,0,0,0,7,7,145,1,,response1disk_3,rectangle
,,,,,,,,,,,,,FF,,,,,,,,3.6496,,,,,,,,,,,,,,,,,,,,,,,5fac647436421623d15dfcf5,60a7d7fb4e53a0a5eaf92c54,2021-05-21_17h56.08.002,Simcolourproject_2stim_asymm_v5,2020.2.10,Win32,60,60a5f9bf14d0aa2821c4bb84,,,,,4185,-51.19998932,-85.80000666,1,0,0,response5disk,,3,-6.399939823,3.799994677,1,0,0,rectangle,80.80001265,46.1999709,1,0,0,6,"[241,9,262,242,217,310,298,17,7,246,275,211,8,277,59,78,235,315,276,268]",5.600060356,1.399994642,1,0,0,0,8,8,157,1,,response1disk_3,rectangle
,,,,,,,,,,,,,FF,,,,,,,,5.06682,,,,,,,,,,,,,,,,,,,,,,,5fac647436421623d15dfcf5,60a7d7fb4e53a0a5eaf92c54,2021-05-21_17h56.08.002,Simcolourproject_2stim_asymm_v5,2020.2.10,Win32,60,60a5f9bf14d0aa2821c4bb84,,,,,1659,89.60001278,-56.20000622,1,0,0,response3disk,,5,17.60006053,-5.000005454,1,0,0,rectangle,17.60006053,-5.000005454,1,0,0,3,"[241,9,262,242,217,310,298,17,7,246,275,211,8,277,59,78,235,315,276,268]",17.60006053,-5.000005454,1,0,0,0,9,9,16,1,,,
,,,,,,,,,,,,,FF,,,,,,,,1.816465,,,,,,,,,,,,,,,,,,,,,,,5fac647436421623d15dfcf5,60a7d7fb4e53a0a5eaf92c54,2021-05-21_17h56.08.002,Simcolourproject_2stim_asymm_v5,2020.2.10,Win32,60,60a5f9bf14d0aa2821c4bb84,,,,,2354,92.80001283,-49.80000612,1,0,0,response3disk,,5,15.20001167,9.399994761,1,0,0,rectangle,15.20001167,9.399994761,1,0,0,4,"[241,9,262,242,217,310,298,17,7,246,275,211,8,277,59,78,235,315,276,268]",15.20001167,9.399994761,1,0,0,0,10,10,3,1,,,
,,,,,,,,,,,,,FF,,,,,,,,3.750045,,,,,,,,,,,,,,,,,,,,,,,5fac647436421623d15dfcf5,60a7d7fb4e53a0a5eaf92c54,2021-05-21_17h56.08.002,Simcolourproject_2stim_asymm_v5,2020.2.10,Win32,60,60a5f9bf14d0aa2821c4bb84,,,,,1514,37.60006083,-99.40000686,1,0,0,response3disk,,4,-22.39994006,-4.200005442,1,0,0,rectangle,-22.39994006,-4.200005442,1,0,0,5,"[241,9,262,242,217,310,298,17,7,246,275,211,8,277,59,78,235,315,276,268]",-22.39994006,-4.200005442,1,0,0,0,11,11,62,1,,,
,,,,,,,,,,,,,FF,,,,,,,,4.41665,,,,,,,,,,,,,,,,,,,,,,,5fac647436421623d15dfcf5,60a7d7fb4e53a0a5eaf92c54,2021-05-21_17h56.08.002,Simcolourproject_2stim_asymm_v5,2020.2.10,Win32,60,60a5f9bf14d0aa2821c4bb84,,,,,2560,80.00001264,42.99999526,1,0,0,response1disk,,6,14.40001166,2.999994665,1,0,0,rectangle,14.40001166,2.999994665,1,0,0,1,"[241,9,262,242,217,310,298,17,7,246,275,211,8,277,59,78,235,315,276,268]",14.40001166,2.999994665,1,0,0,0,12,12,56,1,,,
,,,,,,,,,,,,,FF,,,,,,,,2.25012,,,,,,,,,,,,,,,,,,,,,,,5fac647436421623d15dfcf5,60a7d7fb4e53a0a5eaf92c54,2021-05-21_17h56.08.002,Simcolourproject_2stim_asymm_v5,2020.2.10,Win32,60,60a5f9bf14d0aa2821c4bb84,,,,,3483,32.00001192,-109.000007,1,0,0,response3disk,,4,-13.59998876,10.99999478,1,0,0,rectangle,-13.59998876,10.99999478,1,0,0,3,"[241,9,262,242,217,310,298,17,7,246,275,211,8,277,59,78,235,315,276,268]",-13.59998876,10.99999478,1,0,0,0,13,13,136,1,,,
,,,,,,,,,,,,,FF,,,,,,,,2.599915,,,,,,,,,,,,,,,,,,,,,,,5fac647436421623d15dfcf5,60a7d7fb4e53a0a5eaf92c54,2021-05-21_17h56.08.002,Simcolourproject_2stim_asymm_v5,2020.2.10,Win32,60,60a5f9bf14d0aa2821c4bb84,,,,,504,109.6000131,-52.20000616,1,0,0,response3disk,,5,-1.59998858,0.59999463,1,0,0,rectangle,-1.59998858,0.59999463,1,0,0,6,"[241,9,262,242,217,310,298,17,7,246,275,211,8,277,59,78,235,315,276,268]",-1.59998858,0.59999463,1,0,0,0,14,14,14,1,,,
,,,,,,,,,,,,,FF,,,,,,,,1.849905,,,,,,,,,,,,,,,,,,,,,,,5fac647436421623d15dfcf5,60a7d7fb4e53a0a5eaf92c54,2021-05-21_17h56.08.002,Simcolourproject_2stim_asymm_v5,2020.2.10,Win32,60,60a5f9bf14d0aa2821c4bb84,,,,,4114,-95.99998999,-49.80000612,1,0,0,response5disk,,5,8.800011575,-0.200005382,1,0,0,rectangle,8.800011575,-0.200005382,1,0,0,3,"[241,9,262,242,217,310,298,17,7,246,275,211,8,277,59,78,235,315,276,268]",8.800011575,-0.200005382,1,0,0,0,15,15,65,1,,,
,,,,,,,,,,,,,FF,,,,,,,,0.9665,,,,,,,,,,,,,,,,,,,,,,,5fac647436421623d15dfcf5,60a7d7fb4e53a0a5eaf92c54,2021-05-21_17h56.08.002,Simcolourproject_2stim_asymm_v5,2020.2.10,Win32,60,60a5f9bf14d0aa2821c4bb84,,,,,4157,-99.99999005,-42.60007926,1,0,0,response5disk,,5,-31.19998902,-0.200005382,1,0,0,rectangle,-111.1999902,55.79999545,1,0,0,1,"[241,9,262,242,217,310,298,17,7,246,275,211,8,277,59,78,235,315,276,268]",-6.399939823,1.399994642,1,0,0,0,16,16,20,1,,response7disk_3,rectangle
,,,,,,,,,,,,,FF,,,,,,,,1.483485,,,,,,,,,,,,,,,,,,,,,,,5fac647436421623d15dfcf5,60a7d7fb4e53a0a5eaf92c54,2021-05-21_17h56.08.002,Simcolourproject_2stim_asymm_v5,2020.2.10,Win32,60,60a5f9bf14d0aa2821c4bb84,,,,,2156,94.40001285,-65.80000636,1,0,0,response3disk,,5,1.600060296,-3.40000543,1,0,0,rectangle,1.600060296,-3.40000543,1,0,0,7,"[241,9,262,242,217,310,298,17,7,246,275,211,8,277,59,78,235,315,276,268]",1.600060296,-3.40000543,1,0,0,0,17,17,81,1,,,
,,,,,,,,,,,,,FF,,,,,,,,1.866735,,,,,,,,,,,,,,,,,,,,,,,5fac647436421623d15dfcf5,60a7d7fb4e53a0a5eaf92c54,2021-05-21_17h56.08.002,Simcolourproject_2stim_asymm_v5,2020.2.10,Win32,60,60a5f9bf14d0aa2821c4bb84,,,,,3425,-51.99998933,93.39999601,1,0,0,response7disk,,0,-18.39994,4.599994689,1,0,0,rectangle,-18.39994,4.599994689,1,0,0,5,"[241,9,262,242,217,310,298,17,7,246,275,211,8,277,59,78,235,315,276,268]",-18.39994,4.599994689,1,0,0,0,18,18,94,1,,,
,,,,,,,,,,,,,FF,,,,,,,,2.166905,,,,,,,,,,,,,,,,,,,,,,,5fac647436421623d15dfcf5,60a7d7fb4e53a0a5eaf92c54,2021-05-21_17h56.08.002,Simcolourproject_2stim_asymm_v5,2020.2.10,Win32,60,60a5f9bf14d0aa2821c4bb84,,,,,2349,104.000013,-56.20000622,1,0,0,response3disk,,5,10.4000116,0.59999463,1,0,0,rectangle,10.4000116,0.59999463,1,0,0,4,"[241,9,262,242,217,310,298,17,7,246,275,211,8,277,59,78,235,315,276,268]",10.4000116,0.59999463,1,0,0,0,19,19,53,1,,,
,,,,,,,,,,,,,FF,,,,,,,,1.433225,,,,,,,,,,,,,,,,,,,,,,,5fac647436421623d15dfcf5,60a7d7fb4e53a0a5eaf92c54,2021-05-21_17h56.08.002,Simcolourproject_2stim_asymm_v5,2020.2.10,Win32,60,60a5f9bf14d0aa2821c4bb84,,,,,296,44.0000121,-95.4000068,1,0,0,response3disk,,4,-0.799988568,-5.000005454,1,0,0,rectangle,-0.799988568,-5.000005454,1,0,0,3,"[241,9,262,242,217,310,298,17,7,246,275,211,8,277,59,78,235,315,276,268]",-0.799988568,-5.000005454,1,0,0,0,20,20,70,1,,,
,,,,,,,,,,,,,FF,,,,,,,,1.450085,,,,,,,,,,,,,,,,,,,,,,,5fac647436421623d15dfcf5,60a7d7fb4e53a0a5eaf92c54,2021-05-21_17h56.08.002,Simcolourproject_2stim_asymm_v5,2020.2.10,Win32,60,60a5f9bf14d0aa2821c4bb84,,,,,1866,-79.19998974,-25.80003018,1,0,0,response5disk,,4,-7.999988675,10.99999478,1,0,0,rectangle,-7.999988675,10.99999478,1,0,0,3,"[241,9,262,242,217,310,298,17,7,246,275,211,8,277,59,78,235,315,276,268]",-7.999988675,10.99999478,1,0,0,0,21,21,151,1,,,
,,,,,,,,,,,,,FF,,,,,,,,1.78349,,,,,,,,,,,,,,,,,,,,,,,5fac647436421623d15dfcf5,60a7d7fb4e53a0a5eaf92c54,2021-05-21_17h56.08.002,Simcolourproject_2stim_asymm_v5,2020.2.10,Win32,60,60a5f9bf14d0aa2821c4bb84,,,,,2880,59.20001233,-89.00000671,1,0,0,response3disk,,4,12.80001163,-8.200005502,1,0,0,rectangle,12.80001163,-8.200005502,1,0,0,3,"[241,9,262,242,217,310,298,17,7,246,275,211,8,277,59,78,235,315,276,268]",12.80001163,-8.200005502,1,0,0,0,22,22,1,1,,,
,,,,,,,,,,,,,FF,,,,,,,,1.06667,,,,,,,,,,,,,,,,,,,,,,,5fac647436421623d15dfcf5,60a7d7fb4e53a0a5eaf92c54,2021-05-21_17h56.08.002,Simcolourproject_2stim_asymm_v5,2020.2.10,Win32,60,60a5f9bf14d0aa2821c4bb84,,,,,1681,-32.79998904,-87.40000668,1,0,0,response5disk,,3,9.600060415,-5.000005454,1,0,0,rectangle,9.600060415,-5.000005454,1,0,0,0,"[241,9,262,242,217,310,298,17,7,246,275,211,8,277,59,78,235,315,276,268]",9.600060415,-5.000005454,1,0,0,0,23,23,2,1,,,
,,,,,,,,,,,,,FF,,,,,,,,2.099825,,,,,,,,,,,,,,,,,,,,,,,5fac647436421623d15dfcf5,60a7d7fb4e53a0a5eaf92c54,2021-05-21_17h56.08.002,Simcolourproject_2stim_asymm_v5,2020.2.10,Win32,60,60a5f9bf14d0aa2821c4bb84,,,,,2324,96.80001289,56.59999546,1,0,0,response1disk,,6,17.60006053,4.599994689,1,0,0,rectangle,17.60006053,4.599994689,1,0,0,7,"[241,9,262,242,217,310,298,17,7,246,275,211,8,277,59,78,235,315,276,268]",17.60006053,4.599994689,1,0,0,0,24,24,44,1,,,
,,,,,,,,,,,,,FF,,,,,,,,1.34965,,,,,,,,,,,,,,,,,,,,,,,5fac647436421623d15dfcf5,60a7d7fb4e53a0a5eaf92c54,2021-05-21_17h56.08.002,Simcolourproject_2stim_asymm_v5,2020.2.10,Win32,60,60a5f9bf14d0aa2821c4bb84,,,,,1873,30.4000119,97.39999607,1,0,0,response1disk,,7,-12.79998875,6.199970299,1,0,0,rectangle,-12.79998875,6.199970299,1,0,0,1,"[241,9,262,242,217,310,298,17,7,246,275,211,8,277,59,78,235,315,276,268]",-12.79998875,6.199970299,1,0,0,0,25,25,6,1,,,
,,,,,,,,,,,,,FF,,,,,,,,2.16657,,,,,,,,,,,,,,,,,,,,,,,5fac647436421623d15dfcf5,60a7d7fb4e53a0a5eaf92c54,2021-05-21_17h56.08.002,Simcolourproject_2stim_asymm_v5,2020.2.10,Win32,60,60a5f9bf14d0aa2821c4bb84,,,,,4323,100.0000129,-45.80003048,1,0,0,response3disk,,5,3.200011492,-3.40000543,1,0,0,rectangle,3.200011492,-3.40000543,1,0,0,5,"[241,9,262,242,217,310,298,17,7,246,275,211,8,277,59,78,235,315,276,268]",3.200011492,-3.40000543,1,0,0,0,26,26,117,1,,,
,,,,,,,,,,,,,FF,,,,,,,,1.966625,,,,,,,,,,,,,,,,,,,,,,,5fac647436421623d15dfcf5,60a7d7fb4e53a0a5eaf92c54,2021-05-21_17h56.08.002,Simcolourproject_2stim_asymm_v5,2020.2.10,Win32,60,60a5f9bf14d0aa2821c4bb84,,,,,2103,-19.99998885,-85.80000666,1,0,0,response5disk,,3,4.800011516,8.599994749,1,0,0,rectangle,4.800011516,8.599994749,1,0,0,3,"[241,9,262,242,217,310,298,17,7,246,275,211,8,277,59,78,235,315,276,268]",4.800011516,8.599994749,1,0,0,0,27,27,31,1,,,
,,,,,,,,,,,,,FF,,,,,,,,1.15,,,,,,,,,,,,,,,,,,,,,,,5fac647436421623d15dfcf5,60a7d7fb4e53a0a5eaf92c54,2021-05-21_17h56.08.002,Simcolourproject_2stim_asymm_v5,2020.2.10,Win32,60,60a5f9bf14d0aa2821c4bb84,,,,,2714,-97.59999001,-42.60007926,1,0,0,response5disk,,3,-19.19998884,6.999994725,1,0,0,rectangle,-19.19998884,6.999994725,1,0,0,0,"[241,9,262,242,217,310,298,17,7,246,275,211,8,277,59,78,235,315,276,268]",-19.19998884,6.999994725,1,0,0,0,28,28,108,1,,,
,,,,,,,,,,,,,FF,,,,,,,,1.36681,,,,,,,,,,,,,,,,,,,,,,,5fac647436421623d15dfcf5,60a7d7fb4e53a0a5eaf92c54,2021-05-21_17h56.08.002,Simcolourproject_2stim_asymm_v5,2020.2.10,Win32,60,60a5f9bf14d0aa2821c4bb84,,,,,1775,97.6000129,-61.8000063,1,0,0,response3disk,,5,-12.79998875,-0.200005382,1,0,0,rectangle,-12.79998875,-0.200005382,1,0,0,6,"[241,9,262,242,217,310,298,17,7,246,275,211,8,277,59,78,235,315,276,268]",-12.79998875,-0.200005382,1,0,0,0,29,29,4,1,,,
,,,,,,,,,,,,,FF,,,,,,,,0.966475,,,,,,,,,,,,,,,,,,,,,,,5fac647436421623d15dfcf5,60a7d7fb4e53a0a5eaf92c54,2021-05-21_17h56.08.002,Simcolourproject_2stim_asymm_v5,2020.2.10,Win32,60,60a5f9bf14d0aa2821c4bb84,,,,,92,-35.99998909,-60.20000628,1,0,0,response5disk,,3,8.000011563,8.599994749,1,0,0,rectangle,8.000011563,8.599994749,1,0,0,2,"[241,9,262,242,217,310,298,17,7,246,275,211,8,277,59,78,235,315,276,268]",8.000011563,8.599994749,1,0,0,0,30,30,152,1,,,
,,,,,,,,,,,,,FF,,,,,,,,1.23338,,,,,,,,,,,,,,,,,,,,,,,5fac647436421623d15dfcf5,60a7d7fb4e53a0a5eaf92c54,2021-05-21_17h56.08.002,Simcolourproject_2stim_asymm_v5,2020.2.10,Win32,60,60a5f9bf14d0aa2821c4bb84,,,,,3436,-35.19998908,-64.20000634,1,0,0,response5disk,,3,13.60006047,-1.80002982,1,0,0,rectangle,13.60006047,-1.80002982,1,0,0,1,"[241,9,262,242,217,310,298,17,7,246,275,211,8,277,59,78,235,315,276,268]",13.60006047,-1.80002982,1,0,0,0,31,31,135,1,,,
,,,,,,,,,,,,,FF,,,,,,,,2.783015,,,,,,,,,,,,,,,,,,,,,,,5fac647436421623d15dfcf5,60a7d7fb4e53a0a5eaf92c54,2021-05-21_17h56.08.002,Simcolourproject_2stim_asymm_v5,2020.2.10,Win32,60,60a5f9bf14d0aa2821c4bb84,,,,,3894,45.60006095,-84.20000663,1,0,0,response3disk,,4,15.20001167,1.399994642,1,0,0,rectangle,15.20001167,1.399994642,1,0,0,3,"[241,9,262,242,217,310,298,17,7,246,275,211,8,277,59,78,235,315,276,268]",15.20001167,1.399994642,1,0,0,0,32,32,149,1,,,
,,,,,,,,,,,,,FF,,,,,,,,1.549775,,,,,,,,,,,,,,,,,,,,,,,5fac647436421623d15dfcf5,60a7d7fb4e53a0a5eaf92c54,2021-05-21_17h56.08.002,Simcolourproject_2stim_asymm_v5,2020.2.10,Win32,60,60a5f9bf14d0aa2821c4bb84,,,,,3109,-50.39994048,-65.80000636,1,0,0,response5disk,,3,12.00001162,11.7999948,1,0,0,rectangle,12.00001162,11.7999948,1,0,0,1,"[241,9,262,242,217,310,298,17,7,246,275,211,8,277,59,78,235,315,276,268]",12.00001162,11.7999948,1,0,0,0,33,33,111,1,,,
,,,,,,,,,,,,,FF,,,,,,,,1.616675,,,,,,,,,,,,,,,,,,,,,,,5fac647436421623d15dfcf5,60a7d7fb4e53a0a5eaf92c54,2021-05-21_17h56.08.002,Simcolourproject_2stim_asymm_v5,2020.2.10,Win32,60,60a5f9bf14d0aa2821c4bb84,,,,,3928,44.0000121,90.19997155,1,0,0,response1disk,,7,11.20001161,3.799994677,1,0,0,rectangle,11.20001161,3.799994677,1,0,0,0,"[241,9,262,242,217,310,298,17,7,246,275,211,8,277,59,78,235,315,276,268]",11.20001161,3.799994677,1,0,0,0,34,34,33,1,,,
,,,,,,,,,,,,,FF,,,,,,,,1.49987,,,,,,,,,,,,,,,,,,,,,,,5fac647436421623d15dfcf5,60a7d7fb4e53a0a5eaf92c54,2021-05-21_17h56.08.002,Simcolourproject_2stim_asymm_v5,2020.2.10,Win32,60,60a5f9bf14d0aa2821c4bb84,,,,,3424,97.6000129,-35.40000591,1,0,0,response3disk,,5,11.20001161,2.999994665,1,0,0,rectangle,11.20001161,2.999994665,1,0,0,5,"[241,9,262,242,217,310,298,17,7,246,275,211,8,277,59,78,235,315,276,268]",11.20001161,2.999994665,1,0,0,0,35,35,121,1,,,
,,,,,,,,,,,,,FF,,,,,,,,1.09982,,,,,,,,,,,,,,,,,,,,,,,5fac647436421623d15dfcf5,60a7d7fb4e53a0a5eaf92c54,2021-05-21_17h56.08.002,Simcolourproject_2stim_asymm_v5,2020.2.10,Win32,60,60a5f9bf14d0aa2821c4bb84,,,,,566,57.6000123,96.59999606,1,0,0,response1disk,,7,30.4000119,2.199970239,1,0,0,rectangle,30.4000119,2.199970239,1,0,0,1,"[241,9,262,242,217,310,298,17,7,246,275,211,8,277,59,78,235,315,276,268]",30.4000119,2.199970239,1,0,0,0,36,36,41,1,,,
,,,,,,,,,,,,,FF,,,,,,,,0.98309,,,,,,,,,,,,,,,,,,,,,,,5fac647436421623d15dfcf5,60a7d7fb4e53a0a5eaf92c54,2021-05-21_17h56.08.002,Simcolourproject_2stim_asymm_v5,2020.2.10,Win32,60,60a5f9bf14d0aa2821c4bb84,,,,,1764,52.00001222,-76.20000651,1,0,0,response3disk,,4,8.800011575,10.99999478,1,0,0,rectangle,8.800011575,10.99999478,1,0,0,5,"[241,9,262,242,217,310,298,17,7,246,275,211,8,277,59,78,235,315,276,268]",8.800011575,10.99999478,1,0,0,0,37,37,132,1,,,
,,,,,,,,,,,,,FF,,,,,,,,1.449985,,,,,,,,,,,,,,,,,,,,,,,5fac647436421623d15dfcf5,60a7d7fb4e53a0a5eaf92c54,2021-05-21_17h56.08.002,Simcolourproject_2stim_asymm_v5,2020.2.10,Win32,60,60a5f9bf14d0aa2821c4bb84,,,,,1701,104.800013,-61.8000063,1,0,0,response3disk,,5,8.000011563,8.599994749,1,0,0,rectangle,8.000011563,8.599994749,1,0,0,1,"[241,9,262,242,217,310,298,17,7,246,275,211,8,277,59,78,235,315,276,268]",8.000011563,8.599994749,1,0,0,0,38,38,137,1,,,
,,,,,,,,,,,,,FF,,,,,,,,0.916495,,,,,,,,,,,,,,,,,,,,,,,5fac647436421623d15dfcf5,60a7d7fb4e53a0a5eaf92c54,2021-05-21_17h56.08.002,Simcolourproject_2stim_asymm_v5,2020.2.10,Win32,60,60a5f9bf14d0aa2821c4bb84,,,,,3095,37.60006083,-73.00000647,1,0,0,response3disk,,4,5.600060356,-3.40000543,1,0,0,rectangle,5.600060356,-3.40000543,1,0,0,6,"[241,9,262,242,217,310,298,17,7,246,275,211,8,277,59,78,235,315,276,268]",5.600060356,-3.40000543,1,0,0,0,39,39,129,1,,,
,,,,,,,,,,,,,FF,,,,,,,,3.066545,,,,,,,,,,,,,,,,,,,,,,,5fac647436421623d15dfcf5,60a7d7fb4e53a0a5eaf92c54,2021-05-21_17h56.08.002,Simcolourproject_2stim_asymm_v5,2020.2.10,Win32,60,60a5f9bf14d0aa2821c4bb84,,,,,1613,40.80001205,-105.0000069,1,0,0,response3disk,,4,-10.39993988,-1.000005394,1,0,0,rectangle,-10.39993988,-1.000005394,1,0,0,5,"[241,9,262,242,217,310,298,17,7,246,275,211,8,277,59,78,235,315,276,268]",-10.39993988,-1.000005394,1,0,0,0,40,40,58,1,,,
,,,,,,,,,,,,,FF,,,,,,,,1.08351,,,,,,,,,,,,,,,,,,,,,,,5fac647436421623d15dfcf5,60a7d7fb4e53a0a5eaf92c54,2021-05-21_17h56.08.002,Simcolourproject_2stim_asymm_v5,2020.2.10,Win32,60,60a5f9bf14d0aa2821c4bb84,,,,,889,-75.99998969,-58.60005508,1,0,0,response5disk,,4,16.00001168,-1.000005394,1,0,0,rectangle,16.00001168,-1.000005394,1,0,0,3,"[241,9,262,242,217,310,298,17,7,246,275,211,8,277,59,78,235,315,276,268]",16.00001168,-1.000005394,1,0,0,0,41,41,110,1,,,
,,,,,,,,,,,,,FF,,,,,,,,0.86698,,,,,,,,,,,,,,,,,,,,,,,5fac647436421623d15dfcf5,60a7d7fb4e53a0a5eaf92c54,2021-05-21_17h56.08.002,Simcolourproject_2stim_asymm_v5,2020.2.10,Win32,60,60a5f9bf14d0aa2821c4bb84,,,,,164,-44.79998922,-27.40000579,1,0,0,response5disk,,4,-10.39993988,-1.000005394,1,0,0,rectangle,-10.39993988,-1.000005394,1,0,0,5,"[241,9,262,242,217,310,298,17,7,246,275,211,8,277,59,78,235,315,276,268]",-10.39993988,-1.000005394,1,0,0,0,42,42,12,1,,,
,,,,,,,,,,,,,FF,,,,,,,,0.899945,,,,,,,,,,,,,,,,,,,,,,,5fac647436421623d15dfcf5,60a7d7fb4e53a0a5eaf92c54,2021-05-21_17h56.08.002,Simcolourproject_2stim_asymm_v5,2020.2.10,Win32,60,60a5f9bf14d0aa2821c4bb84,,,,,460,-34.39994024,-64.20000634,1,0,0,response5disk,,3,-11.99998873,-0.200005382,1,0,0,rectangle,-11.99998873,-0.200005382,1,0,0,0,"[241,9,262,242,217,310,298,17,7,246,275,211,8,277,59,78,235,315,276,268]",-11.99998873,-0.200005382,1,0,0,0,43,43,82,1,,,
,,,,,,,,,,,,,FF,,,,,,,,0.883185,,,,,,,,,,,,,,,,,,,,,,,5fac647436421623d15dfcf5,60a7d7fb4e53a0a5eaf92c54,2021-05-21_17h56.08.002,Simcolourproject_2stim_asymm_v5,2020.2.10,Win32,60,60a5f9bf14d0aa2821c4bb84,,,,,1491,76.00001258,91.79999599,1,0,0,response1disk,,7,-2.399939764,2.199970239,1,0,0,rectangle,-2.399939764,2.199970239,1,0,0,6,"[241,9,262,242,217,310,298,17,7,246,275,211,8,277,59,78,235,315,276,268]",-2.399939764,2.199970239,1,0,0,0,44,44,73,1,,,
,,,,,,,,,,,,,FF,,,,,,,,0.86649,,,,,,,,,,,,,,,,,,,,,,,5fac647436421623d15dfcf5,60a7d7fb4e53a0a5eaf92c54,2021-05-21_17h56.08.002,Simcolourproject_2stim_asymm_v5,2020.2.10,Win32,60,60a5f9bf14d0aa2821c4bb84,,,,,4204,-44.79998922,-74.60005532,1,0,0,response5disk,,3,-8.799988687,0.59999463,1,0,0,rectangle,-8.799988687,0.59999463,1,0,0,4,"[241,9,262,242,217,310,298,17,7,246,275,211,8,277,59,78,235,315,276,268]",-8.799988687,0.59999463,1,0,0,0,45,45,36,1,,,
,,,,,,,,,,,,,FF,,,,,,,,0.833345,,,,,,,,,,,,,,,,,,,,,,,5fac647436421623d15dfcf5,60a7d7fb4e53a0a5eaf92c54,2021-05-21_17h56.08.002,Simcolourproject_2stim_asymm_v5,2020.2.10,Win32,60,60a5f9bf14d0aa2821c4bb84,,,,,4133,50.4000122,90.19997155,1,0,0,response1disk,,7,1.600060296,3.799994677,1,0,0,rectangle,1.600060296,3.799994677,1,0,0,3,"[241,9,262,242,217,310,298,17,7,246,275,211,8,277,59,78,235,315,276,268]",1.600060296,3.799994677,1,0,0,0,46,46,54,1,,,
,,,,,,,,,,,,,FF,,,,,,,,0.949565,,,,,,,,,,,,,,,,,,,,,,,5fac647436421623d15dfcf5,60a7d7fb4e53a0a5eaf92c54,2021-05-21_17h56.08.002,Simcolourproject_2stim_asymm_v5,2020.2.10,Win32,60,60a5f9bf14d0aa2821c4bb84,,,,,2245,84.0000127,-24.20000574,1,0,0,response3disk,,5,-8.799988687,-1.80002982,1,0,0,rectangle,-8.799988687,-1.80002982,1,0,0,3,"[241,9,262,242,217,310,298,17,7,246,275,211,8,277,59,78,235,315,276,268]",-8.799988687,-1.80002982,1,0,0,0,47,47,92,1,,,
,,,,,,,,,,,,,FF,,,,,,,,0.84997,,,,,,,,,,,,,,,,,,,,,,,5fac647436421623d15dfcf5,60a7d7fb4e53a0a5eaf92c54,2021-05-21_17h56.08.002,Simcolourproject_2stim_asymm_v5,2020.2.10,Win32,60,60a5f9bf14d0aa2821c4bb84,,,,,3159,72.00001252,-49.00000611,1,0,0,response3disk,,5,5.600060356,12.59999481,1,0,0,rectangle,5.600060356,12.59999481,1,0,0,5,"[241,9,262,242,217,310,298,17,7,246,275,211,8,277,59,78,235,315,276,268]",5.600060356,12.59999481,1,0,0,0,48,48,119,1,,,
,,,,,,,,,,,,,FF,,,,,,,,0.90001,,,,,,,,,,,,,,,,,,,,,,,5fac647436421623d15dfcf5,60a7d7fb4e53a0a5eaf92c54,2021-05-21_17h56.08.002,Simcolourproject_2stim_asymm_v5,2020.2.10,Win32,60,60a5f9bf14d0aa2821c4bb84,,,,,956,-43.1999892,-57.80000624,1,0,0,response5disk,,3,7.200011551,4.599994689,1,0,0,rectangle,7.200011551,4.599994689,1,0,0,4,"[241,9,262,242,217,310,298,17,7,246,275,211,8,277,59,78,235,315,276,268]",7.200011551,4.599994689,1,0,0,0,49,49,50,1,,,
,,,,,,,,,,,,,FF,,,,,,,,1.049875,,,,,,,,,,,,,,,,,,,,,,,5fac647436421623d15dfcf5,60a7d7fb4e53a0a5eaf92c54,2021-05-21_17h56.08.002,Simcolourproject_2stim_asymm_v5,2020.2.10,Win32,60,60a5f9bf14d0aa2821c4bb84,,,,,3173,-39.19998914,-85.00000665,1,0,0,response5disk,,3,2.40001148,2.199970239,1,0,0,rectangle,2.40001148,2.199970239,1,0,0,1,"[241,9,262,242,217,310,298,17,7,246,275,211,8,277,59,78,235,315,276,268]",2.40001148,2.199970239,1,0,0,0,50,50,60,1,,,
,,,,,,,,,,,,,FF,,,,,,,,1.18337,,,,,,,,,,,,,,,,,,,,,,,5fac647436421623d15dfcf5,60a7d7fb4e53a0a5eaf92c54,2021-05-21_17h56.08.002,Simcolourproject_2stim_asymm_v5,2020.2.10,Win32,60,60a5f9bf14d0aa2821c4bb84,,,,,2491,107.200013,46.99999532,1,0,0,response1disk,,6,-4.799988627,5.399994701,1,0,0,rectangle,-4.799988627,5.399994701,1,0,0,2,"[241,9,262,242,217,310,298,17,7,246,275,211,8,277,59,78,235,315,276,268]",-4.799988627,5.399994701,1,0,0,0,51,51,126,1,,,
,,,,,,,,,,,,,FF,,,,,,,,1.416515,,,,,,,,,,,,,,,,,,,,,,,5fac647436421623d15dfcf5,60a7d7fb4e53a0a5eaf92c54,2021-05-21_17h56.08.002,Simcolourproject_2stim_asymm_v5,2020.2.10,Win32,60,60a5f9bf14d0aa2821c4bb84,,,,,3341,-99.19999003,-54.60005502,1,0,0,response5disk,,6,-8.799988687,0.59999463,1,0,0,rectangle,-8.799988687,0.59999463,1,0,0,4,"[241,9,262,242,217,310,298,17,7,246,275,211,8,277,59,78,235,315,276,268]",-8.799988687,0.59999463,1,0,0,0,52,52,95,1,,,
,,,,,,,,,,,,,FF,,,,,,,,0.85,,,,,,,,,,,,,,,,,,,,,,,5fac647436421623d15dfcf5,60a7d7fb4e53a0a5eaf92c54,2021-05-21_17h56.08.002,Simcolourproject_2stim_asymm_v5,2020.2.10,Win32,60,60a5f9bf14d0aa2821c4bb84,,,,,107,78.40001261,-44.20000604,1,0,0,response3disk,,5,7.200011551,8.599994749,1,0,0,rectangle,7.200011551,8.599994749,1,0,0,3,"[241,9,262,242,217,310,298,17,7,246,275,211,8,277,59,78,235,315,276,268]",7.200011551,8.599994749,1,0,0,0,53,53,138,1,,,
,,,,,,,,,,,,,FF,,,,,,,,1.099885,,,,,,,,,,,,,,,,,,,,,,,5fac647436421623d15dfcf5,60a7d7fb4e53a0a5eaf92c54,2021-05-21_17h56.08.002,Simcolourproject_2stim_asymm_v5,2020.2.10,Win32,60,60a5f9bf14d0aa2821c4bb84,,,,,1289,44.0000121,-102.6000557,1,0,0,response3disk,,4,-12.79998875,-12.20000556,1,0,0,rectangle,-12.79998875,-12.20000556,1,0,0,5,"[241,9,262,242,217,310,298,17,7,246,275,211,8,277,59,78,235,315,276,268]",-12.79998875,-12.20000556,1,0,0,0,54,54,29,1,,,
,,,,,,,,,,,,,FF,,,,,,,,0.783155,,,,,,,,,,,,,,,,,,,,,,,5fac647436421623d15dfcf5,60a7d7fb4e53a0a5eaf92c54,2021-05-21_17h56.08.002,Simcolourproject_2stim_asymm_v5,2020.2.10,Win32,60,60a5f9bf14d0aa2821c4bb84,,,,,2516,24.0000118,84.59999588,1,0,0,response1disk,,7,-23.99998891,-6.600005478,1,0,0,rectangle,-23.99998891,-6.600005478,1,0,0,7,"[241,9,262,242,217,310,298,17,7,246,275,211,8,277,59,78,235,315,276,268]",-23.99998891,-6.600005478,1,0,0,0,55,55,120,1,,,
,,,,,,,,,,,,,FF,,,,,,,,0.733135,,,,,,,,,,,,,,,,,,,,,,,5fac647436421623d15dfcf5,60a7d7fb4e53a0a5eaf92c54,2021-05-21_17h56.08.002,Simcolourproject_2stim_asymm_v5,2020.2.10,Win32,60,60a5f9bf14d0aa2821c4bb84,,,,,1996,36.00001198,63.79999557,1,0,0,response1disk,,7,-4.799988627,-2.600005418,1,0,0,rectangle,-4.799988627,-2.600005418,1,0,0,1,"[241,9,262,242,217,310,298,17,7,246,275,211,8,277,59,78,235,315,276,268]",-4.799988627,-2.600005418,1,0,0,0,56,56,22,1,,,
,,,,,,,,,,,,,FF,,,,,,,,0.766775,,,,,,,,,,,,,,,,,,,,,,,5fac647436421623d15dfcf5,60a7d7fb4e53a0a5eaf92c54,2021-05-21_17h56.08.002,Simcolourproject_2stim_asymm_v5,2020.2.10,Win32,60,60a5f9bf14d0aa2821c4bb84,,,,,3,-41.59998918,-82.60005544,1,0,0,response5disk,,3,8.000011563,4.599994689,1,0,0,rectangle,8.000011563,4.599994689,1,0,0,0,"[241,9,262,242,217,310,298,17,7,246,275,211,8,277,59,78,235,315,276,268]",8.000011563,4.599994689,1,0,0,0,57,57,0,1,,,
,,,,,,,,,,,,,FF,,,,,,,,1.00014,,,,,,,,,,,,,,,,,,,,,,,5fac647436421623d15dfcf5,60a7d7fb4e53a0a5eaf92c54,2021-05-21_17h56.08.002,Simcolourproject_2stim_asymm_v5,2020.2.10,Win32,60,60a5f9bf14d0aa2821c4bb84,,,,,1815,-47.99998927,86.19997149,1,0,0,response7disk,,0,-16.79998881,0.59999463,1,0,0,rectangle,32.00001192,60.59999552,1,0,0,7,"[241,9,262,242,217,310,298,17,7,246,275,211,8,277,59,78,235,315,276,268]",11.20001161,8.599994749,1,0,0,0,58,58,86,1,,response1disk_3,rectangle
,,,,,,,,,,,,,FF,,,,,,,,0.84985,,,,,,,,,,,,,,,,,,,,,,,5fac647436421623d15dfcf5,60a7d7fb4e53a0a5eaf92c54,2021-05-21_17h56.08.002,Simcolourproject_2stim_asymm_v5,2020.2.10,Win32,60,60a5f9bf14d0aa2821c4bb84,,,,,4012,48.00001216,114.9999963,1,0,0,response1disk,,7,-29.599989,13.39999482,1,0,0,rectangle,-29.599989,13.39999482,1,0,0,6,"[241,9,262,242,217,310,298,17,7,246,275,211,8,277,59,78,235,315,276,268]",-29.599989,13.39999482,1,0,0,0,59,59,139,1,,,
,,,,,,,,,,,,,FF,,,,,,,,1.23308,,,,,,,,,,,,,,,,,,,,,,,5fac647436421623d15dfcf5,60a7d7fb4e53a0a5eaf92c54,2021-05-21_17h56.08.002,Simcolourproject_2stim_asymm_v5,2020.2.10,Win32,60,60a5f9bf14d0aa2821c4bb84,,,,,3196,-95.19998997,-47.4000305,1,0,0,response5disk,,7,-3.199988604,-2.600005418,1,0,0,rectangle,-3.199988604,-2.600005418,1,0,0,4,"[241,9,262,242,217,310,298,17,7,246,275,211,8,277,59,78,235,315,276,268]",-3.199988604,-2.600005418,1,0,0,0,60,60,88,1,,,
,,,,,,,,,,,,,FF,,,,,,,,0.96631,,,,,,,,,,,,,,,,,,,,,,,5fac647436421623d15dfcf5,60a7d7fb4e53a0a5eaf92c54,2021-05-21_17h56.08.002,Simcolourproject_2stim_asymm_v5,2020.2.10,Win32,60,60a5f9bf14d0aa2821c4bb84,,,,,2022,36.80001199,-66.6000552,1,0,0,response3disk,,4,-1.59998858,-7.40000549,1,0,0,rectangle,-1.59998858,-7.40000549,1,0,0,2,"[241,9,262,242,217,310,298,17,7,246,275,211,8,277,59,78,235,315,276,268]",-1.59998858,-7.40000549,1,0,0,0,61,61,83,1,,,
,,,,,,,,,,,,,FF,,,,,,,,0.6665,,,,,,,,,,,,,,,,,,,,,,,5fac647436421623d15dfcf5,60a7d7fb4e53a0a5eaf92c54,2021-05-21_17h56.08.002,Simcolourproject_2stim_asymm_v5,2020.2.10,Win32,60,60a5f9bf14d0aa2821c4bb84,,,,,4037,49.60006101,106.9999962,1,0,0,response1disk,,7,5.600060356,2.199970239,1,0,0,rectangle,5.600060356,2.199970239,1,0,0,2,"[241,9,262,242,217,310,298,17,7,246,275,211,8,277,59,78,235,315,276,268]",5.600060356,2.199970239,1,0,0,0,62,62,142,1,,,
,,,,,,,,,,,,,FF,,,,,,,,1.01647,,,,,,,,,,,,,,,,,,,,,,,5fac647436421623d15dfcf5,60a7d7fb4e53a0a5eaf92c54,2021-05-21_17h56.08.002,Simcolourproject_2stim_asymm_v5,2020.2.10,Win32,60,60a5f9bf14d0aa2821c4bb84,,,,,4008,104.800013,-41.80003042,1,0,0,response3disk,,5,-2.399939764,10.19997036,1,0,0,rectangle,-2.399939764,10.19997036,1,0,0,2,"[241,9,262,242,217,310,298,17,7,246,275,211,8,277,59,78,235,315,276,268]",-2.399939764,10.19997036,1,0,0,0,63,63,18,1,,,
,,,,,,,,,,,,,FF,,,,,,,,1.11649,,,,,,,,,,,,,,,,,,,,,,,5fac647436421623d15dfcf5,60a7d7fb4e53a0a5eaf92c54,2021-05-21_17h56.08.002,Simcolourproject_2stim_asymm_v5,2020.2.10,Win32,60,60a5f9bf14d0aa2821c4bb84,,,,,2955,-26.39994012,-70.60005526,1,0,0,response5disk,,3,-14.39993994,-5.000005454,1,0,0,rectangle,-14.39993994,-5.000005454,1,0,0,4,"[241,9,262,242,217,310,298,17,7,246,275,211,8,277,59,78,235,315,276,268]",-14.39993994,-5.000005454,1,0,0,0,64,64,114,1,,,
,,,,,,,,,,,,,FF,,,,,,,,0.79971,,,,,,,,,,,,,,,,,,,,,,,5fac647436421623d15dfcf5,60a7d7fb4e53a0a5eaf92c54,2021-05-21_17h56.08.002,Simcolourproject_2stim_asymm_v5,2020.2.10,Win32,60,60a5f9bf14d0aa2821c4bb84,,,,,215,36.00001198,90.99999598,1,0,0,response1disk,,7,-5.599988639,-9.000005513,1,0,0,rectangle,-5.599988639,-9.000005513,1,0,0,2,"[241,9,262,242,217,310,298,17,7,246,275,211,8,277,59,78,235,315,276,268]",-5.599988639,-9.000005513,1,0,0,0,65,65,19,1,,,
,,,,,,,,,,,,,FF,,,,,,,,1.149895,,,,,,,,,,,,,,,,,,,,,,,5fac647436421623d15dfcf5,60a7d7fb4e53a0a5eaf92c54,2021-05-21_17h56.08.002,Simcolourproject_2stim_asymm_v5,2020.2.10,Win32,60,60a5f9bf14d0aa2821c4bb84,,,,,1783,30.4000119,108.5999962,1,0,0,response1disk,,7,-7.199988663,6.999994725,1,0,0,rectangle,-7.199988663,6.999994725,1,0,0,7,"[241,9,262,242,217,310,298,17,7,246,275,211,8,277,59,78,235,315,276,268]",-7.199988663,6.999994725,1,0,0,0,66,66,115,1,,,
,,,,,,,,,,,,,FF,,,,,,,,0.699925,,,,,,,,,,,,,,,,,,,,,,,5fac647436421623d15dfcf5,60a7d7fb4e53a0a5eaf92c54,2021-05-21_17h56.08.002,Simcolourproject_2stim_asymm_v5,2020.2.10,Win32,60,60a5f9bf14d0aa2821c4bb84,,,,,4328,43.20001209,83.79999587,1,0,0,response1disk,,7,16.80001169,0.59999463,1,0,0,rectangle,16.80001169,0.59999463,1,0,0,1,"[241,9,262,242,217,310,298,17,7,246,275,211,8,277,59,78,235,315,276,268]",16.80001169,0.59999463,1,0,0,0,67,67,134,1,,,
,,,,,,,,,,,,,FF,,,,,,,,0.966465,,,,,,,,,,,,,,,,,,,,,,,5fac647436421623d15dfcf5,60a7d7fb4e53a0a5eaf92c54,2021-05-21_17h56.08.002,Simcolourproject_2stim_asymm_v5,2020.2.10,Win32,60,60a5f9bf14d0aa2821c4bb84,,,,,1032,96.80001289,-25.00000575,1,0,0,response3disk,,5,17.60006053,3.799994677,1,0,0,rectangle,17.60006053,3.799994677,1,0,0,7,"[241,9,262,242,217,310,298,17,7,246,275,211,8,277,59,78,235,315,276,268]",17.60006053,3.799994677,1,0,0,0,68,68,61,1,,,
,,,,,,,,,,,,,FF,,,,,,,,0.76666,,,,,,,,,,,,,,,,,,,,,,,5fac647436421623d15dfcf5,60a7d7fb4e53a0a5eaf92c54,2021-05-21_17h56.08.002,Simcolourproject_2stim_asymm_v5,2020.2.10,Win32,60,60a5f9bf14d0aa2821c4bb84,,,,,1919,56.80001229,90.99999598,1,0,0,response1disk,,7,22.40001178,-12.20000556,1,0,0,rectangle,22.40001178,-12.20000556,1,0,0,6,"[241,9,262,242,217,310,298,17,7,246,275,211,8,277,59,78,235,315,276,268]",22.40001178,-12.20000556,1,0,0,0,69,69,128,1,,,
,,,,,,,,,,,,,FF,,,,,,,,0.933145,,,,,,,,,,,,,,,,,,,,,,,5fac647436421623d15dfcf5,60a7d7fb4e53a0a5eaf92c54,2021-05-21_17h56.08.002,Simcolourproject_2stim_asymm_v5,2020.2.10,Win32,60,60a5f9bf14d0aa2821c4bb84,,,,,828,42.40001208,86.99999592,1,0,0,response1disk,,7,-23.1999889,-1.000005394,1,0,0,rectangle,-23.1999889,-1.000005394,1,0,0,6,"[241,9,262,242,217,310,298,17,7,246,275,211,8,277,59,78,235,315,276,268]",-23.1999889,-1.000005394,1,0,0,0,70,70,107,1,,,
,,,,,,,,,,,,,FF,,,,,,,,1.216765,,,,,,,,,,,,,,,,,,,,,,,5fac647436421623d15dfcf5,60a7d7fb4e53a0a5eaf92c54,2021-05-21_17h56.08.002,Simcolourproject_2stim_asymm_v5,2020.2.10,Win32,60,60a5f9bf14d0aa2821c4bb84,,,,,2769,57.6000123,-76.20000651,1,0,0,response3disk,,4,11.20001161,4.599994689,1,0,0,rectangle,11.20001161,4.599994689,1,0,0,2,"[241,9,262,242,217,310,298,17,7,246,275,211,8,277,59,78,235,315,276,268]",11.20001161,4.599994689,1,0,0,0,71,71,28,1,,,
,,,,,,,,,,,,,FF,,,,,,,,1.233185,,,,,,,,,,,,,,,,,,,,,,,5fac647436421623d15dfcf5,60a7d7fb4e53a0a5eaf92c54,2021-05-21_17h56.08.002,Simcolourproject_2stim_asymm_v5,2020.2.10,Win32,60,60a5f9bf14d0aa2821c4bb84,,,,,0,-85.59998983,-47.4000305,1,0,0,response5disk,,4,-3.999988616,5.399994701,1,0,0,rectangle,-3.999988616,5.399994701,1,0,0,1,"[241,9,262,242,217,310,298,17,7,246,275,211,8,277,59,78,235,315,276,268]",-3.999988616,5.399994701,1,0,0,0,72,72,8,1,,,
,,,,,,,,,,,,,FF,,,,,,,,0.949825,,,,,,,,,,,,,,,,,,,,,,,5fac647436421623d15dfcf5,60a7d7fb4e53a0a5eaf92c54,2021-05-21_17h56.08.002,Simcolourproject_2stim_asymm_v5,2020.2.10,Win32,60,60a5f9bf14d0aa2821c4bb84,,,,,3828,48.00001216,-79.40000656,1,0,0,response3disk,,4,-11.99998873,3.799994677,1,0,0,rectangle,-11.99998873,3.799994677,1,0,0,1,"[241,9,262,242,217,310,298,17,7,246,275,211,8,277,59,78,235,315,276,268]",-11.99998873,3.799994677,1,0,0,0,73,73,9,1,,,
,,,,,,,,,,,,,FF,,,,,,,,0.983345,,,,,,,,,,,,,,,,,,,,,,,5fac647436421623d15dfcf5,60a7d7fb4e53a0a5eaf92c54,2021-05-21_17h56.08.002,Simcolourproject_2stim_asymm_v5,2020.2.10,Win32,60,60a5f9bf14d0aa2821c4bb84,,,,,1692,29.60006071,-73.00000647,1,0,0,response3disk,,4,-5.599988639,-13.00000557,1,0,0,rectangle,-5.599988639,-13.00000557,1,0,0,1,"[241,9,262,242,217,310,298,17,7,246,275,211,8,277,59,78,235,315,276,268]",-5.599988639,-13.00000557,1,0,0,0,74,74,109,1,,,
,,,,,,,,,,,,,FF,,,,,,,,0.61639,,,,,,,,,,,,,,,,,,,,,,,5fac647436421623d15dfcf5,60a7d7fb4e53a0a5eaf92c54,2021-05-21_17h56.08.002,Simcolourproject_2stim_asymm_v5,2020.2.10,Win32,60,60a5f9bf14d0aa2821c4bb84,,,,,1023,58.40001231,81.39999583,1,0,0,response1disk,,7,31.20001191,1.399994642,1,0,0,rectangle,31.20001191,1.399994642,1,0,0,5,"[241,9,262,242,217,310,298,17,7,246,275,211,8,277,59,78,235,315,276,268]",31.20001191,1.399994642,1,0,0,0,75,75,96,1,,,
,,,,,,,,,,,,,FF,,,,,,,,0.999985,,,,,,,,,,,,,,,,,,,,,,,5fac647436421623d15dfcf5,60a7d7fb4e53a0a5eaf92c54,2021-05-21_17h56.08.002,Simcolourproject_2stim_asymm_v5,2020.2.10,Win32,60,60a5f9bf14d0aa2821c4bb84,,,,,3418,87.20001274,31.79999509,1,0,0,response1disk,,6,-12.79998875,-8.200005502,1,0,0,rectangle,-12.79998875,-8.200005502,1,0,0,0,"[241,9,262,242,217,310,298,17,7,246,275,211,8,277,59,78,235,315,276,268]",-12.79998875,-8.200005502,1,0,0,0,76,76,146,1,,,
,,,,,,,,,,,,,FF,,,,,,,,0.78309,,,,,,,,,,,,,,,,,,,,,,,5fac647436421623d15dfcf5,60a7d7fb4e53a0a5eaf92c54,2021-05-21_17h56.08.002,Simcolourproject_2stim_asymm_v5,2020.2.10,Win32,60,60a5f9bf14d0aa2821c4bb84,,,,,47,51.20001221,82.99999586,1,0,0,response1disk,,7,-3.199988604,-5.80002988,1,0,0,rectangle,-78.3999409,50.19997095,1,0,0,1,"[241,9,262,242,217,310,298,17,7,246,275,211,8,277,59,78,235,315,276,268]",-21.59998888,10.99999478,1,0,0,0,77,77,76,1,,response7disk_3,rectangle
,,,,,,,,,,,,,FF,,,,,,,,0.89979,,,,,,,,,,,,,,,,,,,,,,,5fac647436421623d15dfcf5,60a7d7fb4e53a0a5eaf92c54,2021-05-21_17h56.08.002,Simcolourproject_2stim_asymm_v5,2020.2.10,Win32,60,60a5f9bf14d0aa2821c4bb84,,,,,4072,77.6000126,-51.40000615,1,0,0,response3disk,,5,-12.79998875,-1.80002982,1,0,0,rectangle,-12.79998875,-1.80002982,1,0,0,3,"[241,9,262,242,217,310,298,17,7,246,275,211,8,277,59,78,235,315,276,268]",-12.79998875,-1.80002982,1,0,0,0,78,78,140,1,,,
,,,,,,,,,,,,,FF,,,,,,,,1.00028,,,,,,,,,,,,,,,,,,,,,,,5fac647436421623d15dfcf5,60a7d7fb4e53a0a5eaf92c54,2021-05-21_17h56.08.002,Simcolourproject_2stim_asymm_v5,2020.2.10,Win32,60,60a5f9bf14d0aa2821c4bb84,,,,,2941,-90.39994107,43.79999527,1,0,0,response7disk,,1,-17.59998882,1.399994642,1,0,0,rectangle,-17.59998882,1.399994642,1,0,0,1,"[241,9,262,242,217,310,298,17,7,246,275,211,8,277,59,78,235,315,276,268]",-17.59998882,1.399994642,1,0,0,0,79,79,38,1,,,
,,,,,,,,,,,,,FF,,,,,,,,0.916665,,,,,,,,,,,,,,,,,,,,,,,5fac647436421623d15dfcf5,60a7d7fb4e53a0a5eaf92c54,2021-05-21_17h56.08.002,Simcolourproject_2stim_asymm_v5,2020.2.10,Win32,60,60a5f9bf14d0aa2821c4bb84,,,,,2731,36.00001198,-94.60005562,1,0,0,response3disk,,4,-11.99998873,9.399994761,1,0,0,rectangle,-11.99998873,9.399994761,1,0,0,5,"[241,9,262,242,217,310,298,17,7,246,275,211,8,277,59,78,235,315,276,268]",-11.99998873,9.399994761,1,0,0,0,80,80,34,1,,,
,,,,,,,,,,,,,FF,,,,,,,,0.816825,,,,,,,,,,,,,,,,,,,,,,,5fac647436421623d15dfcf5,60a7d7fb4e53a0a5eaf92c54,2021-05-21_17h56.08.002,Simcolourproject_2stim_asymm_v5,2020.2.10,Win32,60,60a5f9bf14d0aa2821c4bb84,,,,,813,45.60006095,-63.40000632,1,0,0,response3disk,,4,24.0000118,5.399994701,1,0,0,rectangle,24.0000118,5.399994701,1,0,0,5,"[241,9,262,242,217,310,298,17,7,246,275,211,8,277,59,78,235,315,276,268]",24.0000118,5.399994701,1,0,0,0,81,81,5,1,,,
,,,,,,,,,,,,,FF,,,,,,,,0.7166,,,,,,,,,,,,,,,,,,,,,,,5fac647436421623d15dfcf5,60a7d7fb4e53a0a5eaf92c54,2021-05-21_17h56.08.002,Simcolourproject_2stim_asymm_v5,2020.2.10,Win32,60,60a5f9bf14d0aa2821c4bb84,,,,,877,75.20001256,91.79999599,1,0,0,response1disk,,7,25.60006065,6.199970299,1,0,0,rectangle,25.60006065,6.199970299,1,0,0,0,"[241,9,262,242,217,310,298,17,7,246,275,211,8,277,59,78,235,315,276,268]",25.60006065,6.199970299,1,0,0,0,82,82,59,1,,,
,,,,,,,,,,,,,FF,,,,,,,,0.94991,,,,,,,,,,,,,,,,,,,,,,,5fac647436421623d15dfcf5,60a7d7fb4e53a0a5eaf92c54,2021-05-21_17h56.08.002,Simcolourproject_2stim_asymm_v5,2020.2.10,Win32,60,60a5f9bf14d0aa2821c4bb84,,,,,715,44.80001211,85.39999589,1,0,0,response1disk,,7,-1.59998858,8.599994749,1,0,0,rectangle,-1.59998858,8.599994749,1,0,0,2,"[241,9,262,242,217,310,298,17,7,246,275,211,8,277,59,78,235,315,276,268]",-1.59998858,8.599994749,1,0,0,0,83,83,15,1,,,
,,,,,,,,,,,,,FF,,,,,,,,0.6834,,,,,,,,,,,,,,,,,,,,,,,5fac647436421623d15dfcf5,60a7d7fb4e53a0a5eaf92c54,2021-05-21_17h56.08.002,Simcolourproject_2stim_asymm_v5,2020.2.10,Win32,60,60a5f9bf14d0aa2821c4bb84,,,,,3536,63.20001239,73.39999571,1,0,0,response1disk,,7,19.20001173,9.399994761,1,0,0,rectangle,19.20001173,9.399994761,1,0,0,4,"[241,9,262,242,217,310,298,17,7,246,275,211,8,277,59,78,235,315,276,268]",19.20001173,9.399994761,1,0,0,0,84,84,7,1,,,
,,,,,,,,,,,,,FF,,,,,,,,0.83319,,,,,,,,,,,,,,,,,,,,,,,5fac647436421623d15dfcf5,60a7d7fb4e53a0a5eaf92c54,2021-05-21_17h56.08.002,Simcolourproject_2stim_asymm_v5,2020.2.10,Win32,60,60a5f9bf14d0aa2821c4bb84,,,,,508,46.40001214,94.19997161,1,0,0,response1disk,,7,15.20001167,2.999994665,1,0,0,rectangle,15.20001167,2.999994665,1,0,0,4,"[241,9,262,242,217,310,298,17,7,246,275,211,8,277,59,78,235,315,276,268]",15.20001167,2.999994665,1,0,0,0,85,85,158,1,,,
,,,,,,,,,,,,,FF,,,,,,,,0.599995,,,,,,,,,,,,,,,,,,,,,,,5fac647436421623d15dfcf5,60a7d7fb4e53a0a5eaf92c54,2021-05-21_17h56.08.002,Simcolourproject_2stim_asymm_v5,2020.2.10,Win32,60,60a5f9bf14d0aa2821c4bb84,,,,,3687,60.80001235,73.39999571,1,0,0,response1disk,,7,13.60006047,4.599994689,1,0,0,rectangle,13.60006047,4.599994689,1,0,0,5,"[241,9,262,242,217,310,298,17,7,246,275,211,8,277,59,78,235,315,276,268]",13.60006047,4.599994689,1,0,0,0,86,86,123,1,,,
,,,,,,,,,,,,,FF,,,,,,,,0.63336,,,,,,,,,,,,,,,,,,,,,,,5fac647436421623d15dfcf5,60a7d7fb4e53a0a5eaf92c54,2021-05-21_17h56.08.002,Simcolourproject_2stim_asymm_v5,2020.2.10,Win32,60,60a5f9bf14d0aa2821c4bb84,,,,,1588,115.2000132,46.1999709,1,0,0,response1disk,,6,20.80001175,5.399994701,1,0,0,rectangle,20.80001175,5.399994701,1,0,0,5,"[241,9,262,242,217,310,298,17,7,246,275,211,8,277,59,78,235,315,276,268]",20.80001175,5.399994701,1,0,0,0,87,87,48,1,,,
,,,,,,,,,,,,,FF,,,,,,,,0.59977,,,,,,,,,,,,,,,,,,,,,,,5fac647436421623d15dfcf5,60a7d7fb4e53a0a5eaf92c54,2021-05-21_17h56.08.002,Simcolourproject_2stim_asymm_v5,2020.2.10,Win32,60,60a5f9bf14d0aa2821c4bb84,,,,,1508,38.40001202,81.39999583,1,0,0,response1disk,,7,17.60006053,14.19997042,1,0,0,rectangle,17.60006053,14.19997042,1,0,0,1,"[241,9,262,242,217,310,298,17,7,246,275,211,8,277,59,78,235,315,276,268]",17.60006053,14.19997042,1,0,0,0,88,88,97,1,,,
,,,,,,,,,,,,,FF,,,,,,,,0.73335,,,,,,,,,,,,,,,,,,,,,,,5fac647436421623d15dfcf5,60a7d7fb4e53a0a5eaf92c54,2021-05-21_17h56.08.002,Simcolourproject_2stim_asymm_v5,2020.2.10,Win32,60,60a5f9bf14d0aa2821c4bb84,,,,,39,88.00001276,-17.00000563,1,0,0,response3disk,,5,25.60006065,11.7999948,1,0,0,rectangle,25.60006065,11.7999948,1,0,0,5,"[241,9,262,242,217,310,298,17,7,246,275,211,8,277,59,78,235,315,276,268]",25.60006065,11.7999948,1,0,0,0,89,89,160,1,,,
,,,,,,,,,,,,,FF,,,,,,,,1.000135,,,,,,,,,,,,,,,,,,,,,,,5fac647436421623d15dfcf5,60a7d7fb4e53a0a5eaf92c54,2021-05-21_17h56.08.002,Simcolourproject_2stim_asymm_v5,2020.2.10,Win32,60,60a5f9bf14d0aa2821c4bb84,,,,,2562,80.80001265,58.9999955,1,0,0,response1disk,,6,-19.19998884,7.799994737,1,0,0,rectangle,-19.19998884,7.799994737,1,0,0,0,"[241,9,262,242,217,310,298,17,7,246,275,211,8,277,59,78,235,315,276,268]",-19.19998884,7.799994737,1,0,0,0,90,90,74,1,,,
,,,,,,,,,,,,,FF,,,,,,,,0.616425,,,,,,,,,,,,,,,,,,,,,,,5fac647436421623d15dfcf5,60a7d7fb4e53a0a5eaf92c54,2021-05-21_17h56.08.002,Simcolourproject_2stim_asymm_v5,2020.2.10,Win32,60,60a5f9bf14d0aa2821c4bb84,,,,,922,43.20001209,114.9999963,1,0,0,response1disk,,7,-31.19998902,-7.40000549,1,0,0,rectangle,-31.19998902,-7.40000549,1,0,0,0,"[241,9,262,242,217,310,298,17,7,246,275,211,8,277,59,78,235,315,276,268]",-31.19998902,-7.40000549,1,0,0,0,91,91,156,1,,,
,,,,,,,,,,,,,FF,,,,,,,,1.650225,,,,,,,,,,,,,,,,,,,,,,,5fac647436421623d15dfcf5,60a7d7fb4e53a0a5eaf92c54,2021-05-21_17h56.08.002,Simcolourproject_2stim_asymm_v5,2020.2.10,Win32,60,60a5f9bf14d0aa2821c4bb84,,,,,3383,-98.39994119,-54.60005502,1,0,0,response5disk,,7,-1.59998858,9.399994761,1,0,0,rectangle,-1.59998858,9.399994761,1,0,0,4,"[241,9,262,242,217,310,298,17,7,246,275,211,8,277,59,78,235,315,276,268]",-1.59998858,9.399994761,1,0,0,0,92,92,40,1,,,
,,,,,,,,,,,,,FF,,,,,,,,0.733245,,,,,,,,,,,,,,,,,,,,,,,5fac647436421623d15dfcf5,60a7d7fb4e53a0a5eaf92c54,2021-05-21_17h56.08.002,Simcolourproject_2stim_asymm_v5,2020.2.10,Win32,60,60a5f9bf14d0aa2821c4bb84,,,,,2280,40.00001204,72.5999957,1,0,0,response1disk,,7,-3.999988616,5.399994701,1,0,0,rectangle,-3.999988616,5.399994701,1,0,0,4,"[241,9,262,242,217,310,298,17,7,246,275,211,8,277,59,78,235,315,276,268]",-3.999988616,5.399994701,1,0,0,0,93,93,130,1,,,
,,,,,,,,,,,,,FF,,,,,,,,0.533335,,,,,,,,,,,,,,,,,,,,,,,5fac647436421623d15dfcf5,60a7d7fb4e53a0a5eaf92c54,2021-05-21_17h56.08.002,Simcolourproject_2stim_asymm_v5,2020.2.10,Win32,60,60a5f9bf14d0aa2821c4bb84,,,,,152,28.00001186,68.59999564,1,0,0,response1disk,,7,-27.19998896,-1.80002982,1,0,0,rectangle,-27.19998896,-1.80002982,1,0,0,3,"[241,9,262,242,217,310,298,17,7,246,275,211,8,277,59,78,235,315,276,268]",-27.19998896,-1.80002982,1,0,0,0,94,94,91,1,,,
,,,,,,,,,,,,,FF,,,,,,,,0.633215,,,,,,,,,,,,,,,,,,,,,,,5fac647436421623d15dfcf5,60a7d7fb4e53a0a5eaf92c54,2021-05-21_17h56.08.002,Simcolourproject_2stim_asymm_v5,2020.2.10,Win32,60,60a5f9bf14d0aa2821c4bb84,,,,,1686,34.40001196,78.9999958,1,0,0,response1disk,,7,20.80001175,11.7999948,1,0,0,rectangle,20.80001175,11.7999948,1,0,0,6,"[241,9,262,242,217,310,298,17,7,246,275,211,8,277,59,78,235,315,276,268]",20.80001175,11.7999948,1,0,0,0,95,95,57,1,,,
,,,,,,,,,,,,,FF,,,,,,,,0.61642,,,,,,,,,,,,,,,,,,,,,,,5fac647436421623d15dfcf5,60a7d7fb4e53a0a5eaf92c54,2021-05-21_17h56.08.002,Simcolourproject_2stim_asymm_v5,2020.2.10,Win32,60,60a5f9bf14d0aa2821c4bb84,,,,,2456,52.00001222,94.99999604,1,0,0,response1disk,,7,0.800011456,-8.200005502,1,0,0,rectangle,0.800011456,-8.200005502,1,0,0,3,"[241,9,262,242,217,310,298,17,7,246,275,211,8,277,59,78,235,315,276,268]",0.800011456,-8.200005502,1,0,0,0,96,96,79,1,,,
,,,,,,,,,,,,,FF,,,,,,,,0.699745,,,,,,,,,,,,,,,,,,,,,,,5fac647436421623d15dfcf5,60a7d7fb4e53a0a5eaf92c54,2021-05-21_17h56.08.002,Simcolourproject_2stim_asymm_v5,2020.2.10,Win32,60,60a5f9bf14d0aa2821c4bb84,,,,,3841,48.80001217,96.59999606,1,0,0,response1disk,,7,25.60006065,9.399994761,1,0,0,rectangle,25.60006065,9.399994761,1,0,0,6,"[241,9,262,242,217,310,298,17,7,246,275,211,8,277,59,78,235,315,276,268]",25.60006065,9.399994761,1,0,0,0,97,97,154,1,,,
,,,,,,,,,,,,,FF,,,,,,,,0.68329,,,,,,,,,,,,,,,,,,,,,,,5fac647436421623d15dfcf5,60a7d7fb4e53a0a5eaf92c54,2021-05-21_17h56.08.002,Simcolourproject_2stim_asymm_v5,2020.2.10,Win32,60,60a5f9bf14d0aa2821c4bb84,,,,,270,55.20001227,92.599996,1,0,0,response1disk,,7,11.20001161,-0.200005382,1,0,0,rectangle,11.20001161,-0.200005382,1,0,0,0,"[241,9,262,242,217,310,298,17,7,246,275,211,8,277,59,78,235,315,276,268]",11.20001161,-0.200005382,1,0,0,0,98,98,52,1,,,
,,,,,,,,,,,,,FF,,,,,,,,0.549675,,,,,,,,,,,,,,,,,,,,,,,5fac647436421623d15dfcf5,60a7d7fb4e53a0a5eaf92c54,2021-05-21_17h56.08.002,Simcolourproject_2stim_asymm_v5,2020.2.10,Win32,60,60a5f9bf14d0aa2821c4bb84,,,,,1148,47.20001215,86.99999592,1,0,0,response1disk,,7,7.200011551,-1.80002982,1,0,0,rectangle,7.200011551,-1.80002982,1,0,0,4,"[241,9,262,242,217,310,298,17,7,246,275,211,8,277,59,78,235,315,276,268]",7.200011551,-1.80002982,1,0,0,0,99,99,116,1,,,
,,,,,,,,,,,,,FF,,,,,,,,0.799805,,,,,,,,,,,,,,,,,,,,,,,5fac647436421623d15dfcf5,60a7d7fb4e53a0a5eaf92c54,2021-05-21_17h56.08.002,Simcolourproject_2stim_asymm_v5,2020.2.10,Win32,60,60a5f9bf14d0aa2821c4bb84,,,,,3515,-73.59998965,-41.00000599,1,0,0,response5disk,,7,4.000011504,10.19997036,1,0,0,rectangle,4.000011504,10.19997036,1,0,0,7,"[241,9,262,242,217,310,298,17,7,246,275,211,8,277,59,78,235,315,276,268]",4.000011504,10.19997036,1,0,0,0,100,100,93,1,,,
,,,,,,,,,,,,,FF,,,,,,,,0.96657,,,,,,,,,,,,,,,,,,,,,,,5fac647436421623d15dfcf5,60a7d7fb4e53a0a5eaf92c54,2021-05-21_17h56.08.002,Simcolourproject_2stim_asymm_v5,2020.2.10,Win32,60,60a5f9bf14d0aa2821c4bb84,,,,,191,-78.3999409,-53.00000617,1,0,0,response5disk,,7,-15.99998879,-1.80002982,1,0,0,rectangle,-15.99998879,-1.80002982,1,0,0,3,"[241,9,262,242,217,310,298,17,7,246,275,211,8,277,59,78,235,315,276,268]",-15.99998879,-1.80002982,1,0,0,0,101,101,17,1,,,
,,,,,,,,,,,,,FF,,,,,,,,1.016485,,,,,,,,,,,,,,,,,,,,,,,5fac647436421623d15dfcf5,60a7d7fb4e53a0a5eaf92c54,2021-05-21_17h56.08.002,Simcolourproject_2stim_asymm_v5,2020.2.10,Win32,60,60a5f9bf14d0aa2821c4bb84,,,,,391,36.80001199,-98.60005568,1,0,0,response3disk,,4,-17.59998882,-11.40000555,1,0,0,rectangle,-17.59998882,-11.40000555,1,0,0,0,"[241,9,262,242,217,310,298,17,7,246,275,211,8,277,59,78,235,315,276,268]",-17.59998882,-11.40000555,1,0,0,0,102,102,75,1,,,
,,,,,,,,,,,,,FF,,,,,,,,1.13331,,,,,,,,,,,,,,,,,,,,,,,5fac647436421623d15dfcf5,60a7d7fb4e53a0a5eaf92c54,2021-05-21_17h56.08.002,Simcolourproject_2stim_asymm_v5,2020.2.10,Win32,60,60a5f9bf14d0aa2821c4bb84,,,,,579,23.20001179,62.19997113,1,0,0,response1disk,,7,-25.59998894,2.999994665,1,0,0,rectangle,-25.59998894,2.999994665,1,0,0,7,"[241,9,262,242,217,310,298,17,7,246,275,211,8,277,59,78,235,315,276,268]",-25.59998894,2.999994665,1,0,0,0,103,103,144,1,,,
,,,,,,,,,,,,,FF,,,,,,,,1.349785,,,,,,,,,,,,,,,,,,,,,,,5fac647436421623d15dfcf5,60a7d7fb4e53a0a5eaf92c54,2021-05-21_17h56.08.002,Simcolourproject_2stim_asymm_v5,2020.2.10,Win32,60,60a5f9bf14d0aa2821c4bb84,,,,,4115,48.80001217,-112.2000071,1,0,0,response3disk,,4,-19.19998884,-1.80002982,1,0,0,rectangle,-19.19998884,-1.80002982,1,0,0,6,"[241,9,262,242,217,310,298,17,7,246,275,211,8,277,59,78,235,315,276,268]",-19.19998884,-1.80002982,1,0,0,0,104,104,45,1,,,
,,,,,,,,,,,,,FF,,,,,,,,0.749925,,,,,,,,,,,,,,,,,,,,,,,5fac647436421623d15dfcf5,60a7d7fb4e53a0a5eaf92c54,2021-05-21_17h56.08.002,Simcolourproject_2stim_asymm_v5,2020.2.10,Win32,60,60a5f9bf14d0aa2821c4bb84,,,,,3570,113.6000131,-54.60005502,1,0,0,response3disk,,5,7.200011551,2.199970239,1,0,0,rectangle,7.200011551,2.199970239,1,0,0,3,"[241,9,262,242,217,310,298,17,7,246,275,211,8,277,59,78,235,315,276,268]",7.200011551,2.199970239,1,0,0,0,105,105,30,1,,,
,,,,,,,,,,,,,FF,,,,,,,,1.083115,,,,,,,,,,,,,,,,,,,,,,,5fac647436421623d15dfcf5,60a7d7fb4e53a0a5eaf92c54,2021-05-21_17h56.08.002,Simcolourproject_2stim_asymm_v5,2020.2.10,Win32,60,60a5f9bf14d0aa2821c4bb84,,,,,4089,101.600013,45.3999953,1,0,0,response1disk,,6,-9.599988699,-9.000005513,1,0,0,rectangle,-9.599988699,-9.000005513,1,0,0,1,"[241,9,262,242,217,310,298,17,7,246,275,211,8,277,59,78,235,315,276,268]",-9.599988699,-9.000005513,1,0,0,0,106,106,98,1,,,
,,,,,,,,,,,,,FF,,,,,,,,1.033455,,,,,,,,,,,,,,,,,,,,,,,5fac647436421623d15dfcf5,60a7d7fb4e53a0a5eaf92c54,2021-05-21_17h56.08.002,Simcolourproject_2stim_asymm_v5,2020.2.10,Win32,60,60a5f9bf14d0aa2821c4bb84,,,,,3635,40.00001204,-101.0000069,1,0,0,response3disk,,4,14.40001166,-7.40000549,1,0,0,rectangle,14.40001166,-7.40000549,1,0,0,6,"[241,9,262,242,217,310,298,17,7,246,275,211,8,277,59,78,235,315,276,268]",14.40001166,-7.40000549,1,0,0,0,107,107,113,1,,,
,,,,,,,,,,,,,FF,,,,,,,,0.700395,,,,,,,,,,,,,,,,,,,,,,,5fac647436421623d15dfcf5,60a7d7fb4e53a0a5eaf92c54,2021-05-21_17h56.08.002,Simcolourproject_2stim_asymm_v5,2020.2.10,Win32,60,60a5f9bf14d0aa2821c4bb84,,,,,3652,61.60001236,118.9999964,1,0,0,response1disk,,7,20.80001175,-1.000005394,1,0,0,rectangle,20.80001175,-1.000005394,1,0,0,0,"[241,9,262,242,217,310,298,17,7,246,275,211,8,277,59,78,235,315,276,268]",20.80001175,-1.000005394,1,0,0,0,108,108,122,1,,,
,,,,,,,,,,,,,FF,,,,,,,,1.016755,,,,,,,,,,,,,,,,,,,,,,,5fac647436421623d15dfcf5,60a7d7fb4e53a0a5eaf92c54,2021-05-21_17h56.08.002,Simcolourproject_2stim_asymm_v5,2020.2.10,Win32,60,60a5f9bf14d0aa2821c4bb84,,,,,3704,47.20001215,-110.6000559,1,0,0,response3disk,,4,-10.39993988,-9.000005513,1,0,0,rectangle,-10.39993988,-9.000005513,1,0,0,1,"[241,9,262,242,217,310,298,17,7,246,275,211,8,277,59,78,235,315,276,268]",-10.39993988,-9.000005513,1,0,0,0,109,109,27,1,,,
,,,,,,,,,,,,,FF,,,,,,,,0.733215,,,,,,,,,,,,,,,,,,,,,,,5fac647436421623d15dfcf5,60a7d7fb4e53a0a5eaf92c54,2021-05-21_17h56.08.002,Simcolourproject_2stim_asymm_v5,2020.2.10,Win32,60,60a5f9bf14d0aa2821c4bb84,,,,,2391,47.20001215,106.9999962,1,0,0,response1disk,,7,-4.799988627,-1.000005394,1,0,0,rectangle,-4.799988627,-1.000005394,1,0,0,5,"[241,9,262,242,217,310,298,17,7,246,275,211,8,277,59,78,235,315,276,268]",-4.799988627,-1.000005394,1,0,0,0,110,110,69,1,,,
,,,,,,,,,,,,,FF,,,,,,,,0.499875,,,,,,,,,,,,,,,,,,,,,,,5fac647436421623d15dfcf5,60a7d7fb4e53a0a5eaf92c54,2021-05-21_17h56.08.002,Simcolourproject_2stim_asymm_v5,2020.2.10,Win32,60,60a5f9bf14d0aa2821c4bb84,,,,,3581,43.20001209,82.19997143,1,0,0,response1disk,,7,14.40001166,3.799994677,1,0,0,rectangle,14.40001166,3.799994677,1,0,0,7,"[241,9,262,242,217,310,298,17,7,246,275,211,8,277,59,78,235,315,276,268]",14.40001166,3.799994677,1,0,0,0,111,111,77,1,,,
,,,,,,,,,,,,,FF,,,,,,,,0.649825,,,,,,,,,,,,,,,,,,,,,,,5fac647436421623d15dfcf5,60a7d7fb4e53a0a5eaf92c54,2021-05-21_17h56.08.002,Simcolourproject_2stim_asymm_v5,2020.2.10,Win32,60,60a5f9bf14d0aa2821c4bb84,,,,,3508,102.400013,33.39999512,1,0,0,response1disk,,6,9.600060415,-0.200005382,1,0,0,rectangle,9.600060415,-0.200005382,1,0,0,0,"[241,9,262,242,217,310,298,17,7,246,275,211,8,277,59,78,235,315,276,268]",9.600060415,-0.200005382,1,0,0,0,112,112,100,1,,,
,,,,,,,,,,,,,FF,,,,,,,,1.166905,,,,,,,,,,,,,,,,,,,,,,,5fac647436421623d15dfcf5,60a7d7fb4e53a0a5eaf92c54,2021-05-21_17h56.08.002,Simcolourproject_2stim_asymm_v5,2020.2.10,Win32,60,60a5f9bf14d0aa2821c4bb84,,,,,726,-39.19998914,-113.0000071,1,0,0,response5disk,,3,20.00001174,-7.40000549,1,0,0,rectangle,20.00001174,-7.40000549,1,0,0,1,"[241,9,262,242,217,310,298,17,7,246,275,211,8,277,59,78,235,315,276,268]",20.00001174,-7.40000549,1,0,0,0,113,113,106,1,,,
,,,,,,,,,,,,,FF,,,,,,,,0.8502,,,,,,,,,,,,,,,,,,,,,,,5fac647436421623d15dfcf5,60a7d7fb4e53a0a5eaf92c54,2021-05-21_17h56.08.002,Simcolourproject_2stim_asymm_v5,2020.2.10,Win32,60,60a5f9bf14d0aa2821c4bb84,,,,,1968,-73.59998965,-45.00000605,1,0,0,response5disk,,3,18.40001172,-5.80002988,1,0,0,rectangle,18.40001172,-5.80002988,1,0,0,5,"[241,9,262,242,217,310,298,17,7,246,275,211,8,277,59,78,235,315,276,268]",18.40001172,-5.80002988,1,0,0,0,114,114,64,1,,,
,,,,,,,,,,,,,FF,,,,,,,,0.74993,,,,,,,,,,,,,,,,,,,,,,,5fac647436421623d15dfcf5,60a7d7fb4e53a0a5eaf92c54,2021-05-21_17h56.08.002,Simcolourproject_2stim_asymm_v5,2020.2.10,Win32,60,60a5f9bf14d0aa2821c4bb84,,,,,1489,70.40001249,94.19997161,1,0,0,response1disk,,7,27.20001185,-1.80002982,1,0,0,rectangle,27.20001185,-1.80002982,1,0,0,2,"[241,9,262,242,217,310,298,17,7,246,275,211,8,277,59,78,235,315,276,268]",27.20001185,-1.80002982,1,0,0,0,115,115,80,1,,,
,,,,,,,,,,,,,FF,,,,,,,,1.833135,,,,,,,,,,,,,,,,,,,,,,,5fac647436421623d15dfcf5,60a7d7fb4e53a0a5eaf92c54,2021-05-21_17h56.08.002,Simcolourproject_2stim_asymm_v5,2020.2.10,Win32,60,60a5f9bf14d0aa2821c4bb84,,,,,1592,68.00001246,-45.80003048,1,0,0,response3disk,,5,-27.19998896,12.59999481,1,0,0,rectangle,-27.19998896,12.59999481,1,0,0,4,"[241,9,262,242,217,310,298,17,7,246,275,211,8,277,59,78,235,315,276,268]",-27.19998896,12.59999481,1,0,0,0,116,116,104,1,,,
,,,,,,,,,,,,,FF,,,,,,,,0.74996,,,,,,,,,,,,,,,,,,,,,,,5fac647436421623d15dfcf5,60a7d7fb4e53a0a5eaf92c54,2021-05-21_17h56.08.002,Simcolourproject_2stim_asymm_v5,2020.2.10,Win32,60,60a5f9bf14d0aa2821c4bb84,,,,,3816,-48.79998928,-85.80000666,1,0,0,response5disk,,3,-15.99998879,-9.000005513,1,0,0,rectangle,-15.99998879,-9.000005513,1,0,0,5,"[241,9,262,242,217,310,298,17,7,246,275,211,8,277,59,78,235,315,276,268]",-15.99998879,-9.000005513,1,0,0,0,117,117,37,1,,,
,,,,,,,,,,,,,FF,,,,,,,,0.70005,,,,,,,,,,,,,,,,,,,,,,,5fac647436421623d15dfcf5,60a7d7fb4e53a0a5eaf92c54,2021-05-21_17h56.08.002,Simcolourproject_2stim_asymm_v5,2020.2.10,Win32,60,60a5f9bf14d0aa2821c4bb84,,,,,959,58.40001231,110.1999718,1,0,0,response1disk,,7,8.000011563,6.999994725,1,0,0,rectangle,8.000011563,6.999994725,1,0,0,5,"[241,9,262,242,217,310,298,17,7,246,275,211,8,277,59,78,235,315,276,268]",8.000011563,6.999994725,1,0,0,0,118,118,87,1,,,
,,,,,,,,,,,,,FF,,,,,,,,0.916705,,,,,,,,,,,,,,,,,,,,,,,5fac647436421623d15dfcf5,60a7d7fb4e53a0a5eaf92c54,2021-05-21_17h56.08.002,Simcolourproject_2stim_asymm_v5,2020.2.10,Win32,60,60a5f9bf14d0aa2821c4bb84,,,,,2802,56.80001229,129.3999965,1,0,0,response1disk,,7,-12.79998875,-0.200005382,1,0,0,rectangle,-12.79998875,-0.200005382,1,0,0,2,"[241,9,262,242,217,310,298,17,7,246,275,211,8,277,59,78,235,315,276,268]",-12.79998875,-0.200005382,1,0,0,0,119,119,23,1,,,
,,,,,,,,,,,,,FF,,,,,,,,0.649715,,,,,,,,,,,,,,,,,,,,,,,5fac647436421623d15dfcf5,60a7d7fb4e53a0a5eaf92c54,2021-05-21_17h56.08.002,Simcolourproject_2stim_asymm_v5,2020.2.10,Win32,60,60a5f9bf14d0aa2821c4bb84,,,,,2400,68.00001246,94.99999604,1,0,0,response1disk,,7,-7.199988663,0.59999463,1,0,0,rectangle,-7.199988663,0.59999463,1,0,0,5,"[241,9,262,242,217,310,298,17,7,246,275,211,8,277,59,78,235,315,276,268]",-7.199988663,0.59999463,1,0,0,0,120,120,63,1,,,
,,,,,,,,,,,,,FF,,,,,,,,1.533075,,,,,,,,,,,,,,,,,,,,,,,5fac647436421623d15dfcf5,60a7d7fb4e53a0a5eaf92c54,2021-05-21_17h56.08.002,Simcolourproject_2stim_asymm_v5,2020.2.10,Win32,60,60a5f9bf14d0aa2821c4bb84,,,,,260,-87.99998987,-57.80000624,1,0,0,response5disk,,7,22.40001178,11.7999948,1,0,0,rectangle,22.40001178,11.7999948,1,0,0,1,"[241,9,262,242,217,310,298,17,7,246,275,211,8,277,59,78,235,315,276,268]",22.40001178,11.7999948,1,0,0,0,121,121,133,1,,,
,,,,,,,,,,,,,FF,,,,,,,,0.616655,,,,,,,,,,,,,,,,,,,,,,,5fac647436421623d15dfcf5,60a7d7fb4e53a0a5eaf92c54,2021-05-21_17h56.08.002,Simcolourproject_2stim_asymm_v5,2020.2.10,Win32,60,60a5f9bf14d0aa2821c4bb84,,,,,1574,71.20001251,91.79999599,1,0,0,response1disk,,7,-3.999988616,-5.000005454,1,0,0,rectangle,-3.999988616,-5.000005454,1,0,0,7,"[241,9,262,242,217,310,298,17,7,246,275,211,8,277,59,78,235,315,276,268]",-3.999988616,-5.000005454,1,0,0,0,122,122,66,1,,,
,,,,,,,,,,,,,FF,,,,,,,,0.66662,,,,,,,,,,,,,,,,,,,,,,,5fac647436421623d15dfcf5,60a7d7fb4e53a0a5eaf92c54,2021-05-21_17h56.08.002,Simcolourproject_2stim_asymm_v5,2020.2.10,Win32,60,60a5f9bf14d0aa2821c4bb84,,,,,2885,24.0000118,76.59999576,1,0,0,response1disk,,7,-26.39994012,-1.000005394,1,0,0,rectangle,-26.39994012,-1.000005394,1,0,0,3,"[241,9,262,242,217,310,298,17,7,246,275,211,8,277,59,78,235,315,276,268]",-26.39994012,-1.000005394,1,0,0,0,123,123,150,1,,,
,,,,,,,,,,,,,FF,,,,,,,,0.583205,,,,,,,,,,,,,,,,,,,,,,,5fac647436421623d15dfcf5,60a7d7fb4e53a0a5eaf92c54,2021-05-21_17h56.08.002,Simcolourproject_2stim_asymm_v5,2020.2.10,Win32,60,60a5f9bf14d0aa2821c4bb84,,,,,3824,38.40001202,93.39999601,1,0,0,response1disk,,7,-0.799988568,-0.200005382,1,0,0,rectangle,-0.799988568,-0.200005382,1,0,0,3,"[241,9,262,242,217,310,298,17,7,246,275,211,8,277,59,78,235,315,276,268]",-0.799988568,-0.200005382,1,0,0,0,124,124,71,1,,,
,,,,,,,,,,,,,FF,,,,,,,,0.69978,,,,,,,,,,,,,,,,,,,,,,,5fac647436421623d15dfcf5,60a7d7fb4e53a0a5eaf92c54,2021-05-21_17h56.08.002,Simcolourproject_2stim_asymm_v5,2020.2.10,Win32,60,60a5f9bf14d0aa2821c4bb84,,,,,1150,45.60006095,85.39999589,1,0,0,response1disk,,7,36.80001199,-1.000005394,1,0,0,rectangle,36.80001199,-1.000005394,1,0,0,2,"[241,9,262,242,217,310,298,17,7,246,275,211,8,277,59,78,235,315,276,268]",36.80001199,-1.000005394,1,0,0,0,125,125,43,1,,,
,,,,,,,,,,,,,FF,,,,,,,,0.549885,,,,,,,,,,,,,,,,,,,,,,,5fac647436421623d15dfcf5,60a7d7fb4e53a0a5eaf92c54,2021-05-21_17h56.08.002,Simcolourproject_2stim_asymm_v5,2020.2.10,Win32,60,60a5f9bf14d0aa2821c4bb84,,,,,3533,58.40001231,109.3999963,1,0,0,response1disk,,7,12.80001163,-2.600005418,1,0,0,rectangle,12.80001163,-2.600005418,1,0,0,1,"[241,9,262,242,217,310,298,17,7,246,275,211,8,277,59,78,235,315,276,268]",12.80001163,-2.600005418,1,0,0,0,126,126,51,1,,,
,,,,,,,,,,,,,FF,,,,,,,,0.76643,,,,,,,,,,,,,,,,,,,,,,,5fac647436421623d15dfcf5,60a7d7fb4e53a0a5eaf92c54,2021-05-21_17h56.08.002,Simcolourproject_2stim_asymm_v5,2020.2.10,Win32,60,60a5f9bf14d0aa2821c4bb84,,,,,608,40.00001204,78.19997137,1,0,0,response1disk,,7,30.4000119,3.799994677,1,0,0,rectangle,30.4000119,3.799994677,1,0,0,3,"[241,9,262,242,217,310,298,17,7,246,275,211,8,277,59,78,235,315,276,268]",30.4000119,3.799994677,1,0,0,0,127,127,105,1,,,
,,,,,,,,,,,,,FF,,,,,,,,0.799595,,,,,,,,,,,,,,,,,,,,,,,5fac647436421623d15dfcf5,60a7d7fb4e53a0a5eaf92c54,2021-05-21_17h56.08.002,Simcolourproject_2stim_asymm_v5,2020.2.10,Win32,60,60a5f9bf14d0aa2821c4bb84,,,,,3172,52.00001222,-81.00000659,1,0,0,response3disk,,4,11.20001161,2.999994665,1,0,0,rectangle,11.20001161,2.999994665,1,0,0,0,"[241,9,262,242,217,310,298,17,7,246,275,211,8,277,59,78,235,315,276,268]",11.20001161,2.999994665,1,0,0,0,128,128,112,1,,,
,,,,,,,,,,,,,FF,,,,,,,,0.71626,,,,,,,,,,,,,,,,,,,,,,,5fac647436421623d15dfcf5,60a7d7fb4e53a0a5eaf92c54,2021-05-21_17h56.08.002,Simcolourproject_2stim_asymm_v5,2020.2.10,Win32,60,60a5f9bf14d0aa2821c4bb84,,,,,245,52.80001223,87.79999593,1,0,0,response1disk,,7,6.400011539,6.999994725,1,0,0,rectangle,6.400011539,6.999994725,1,0,0,0,"[241,9,262,242,217,310,298,17,7,246,275,211,8,277,59,78,235,315,276,268]",6.400011539,6.999994725,1,0,0,0,129,129,125,1,,,
,,,,,,,,,,,,,FF,,,,,,,,0.68331,,,,,,,,,,,,,,,,,,,,,,,5fac647436421623d15dfcf5,60a7d7fb4e53a0a5eaf92c54,2021-05-21_17h56.08.002,Simcolourproject_2stim_asymm_v5,2020.2.10,Win32,60,60a5f9bf14d0aa2821c4bb84,,,,,1409,66.40001243,104.5999962,1,0,0,response1disk,,7,27.20001185,6.999994725,1,0,0,rectangle,27.20001185,6.999994725,1,0,0,5,"[241,9,262,242,217,310,298,17,7,246,275,211,8,277,59,78,235,315,276,268]",27.20001185,6.999994725,1,0,0,0,130,130,11,1,,,
,,,,,,,,,,,,,FF,,,,,,,,0.666435,,,,,,,,,,,,,,,,,,,,,,,5fac647436421623d15dfcf5,60a7d7fb4e53a0a5eaf92c54,2021-05-21_17h56.08.002,Simcolourproject_2stim_asymm_v5,2020.2.10,Win32,60,60a5f9bf14d0aa2821c4bb84,,,,,583,112.8000131,67.79999563,1,0,0,response1disk,,6,-28.79998899,-6.600005478,1,0,0,rectangle,-28.79998899,-6.600005478,1,0,0,3,"[241,9,262,242,217,310,298,17,7,246,275,211,8,277,59,78,235,315,276,268]",-28.79998899,-6.600005478,1,0,0,0,131,131,147,1,,,
,,,,,,,,,,,,,FF,,,,,,,,0.682825,,,,,,,,,,,,,,,,,,,,,,,5fac647436421623d15dfcf5,60a7d7fb4e53a0a5eaf92c54,2021-05-21_17h56.08.002,Simcolourproject_2stim_asymm_v5,2020.2.10,Win32,60,60a5f9bf14d0aa2821c4bb84,,,,,1939,28.00001186,82.19997143,1,0,0,response1disk,,7,1.600060296,3.799994677,1,0,0,rectangle,1.600060296,3.799994677,1,0,0,5,"[241,9,262,242,217,310,298,17,7,246,275,211,8,277,59,78,235,315,276,268]",1.600060296,3.799994677,1,0,0,0,132,132,39,1,,,
,,,,,,,,,,,,,FF,,,,,,,,0.549985,,,,,,,,,,,,,,,,,,,,,,,5fac647436421623d15dfcf5,60a7d7fb4e53a0a5eaf92c54,2021-05-21_17h56.08.002,Simcolourproject_2stim_asymm_v5,2020.2.10,Win32,60,60a5f9bf14d0aa2821c4bb84,,,,,3217,46.40001214,74.99999574,1,0,0,response1disk,,7,15.20001167,4.599994689,1,0,0,rectangle,15.20001167,4.599994689,1,0,0,7,"[241,9,262,242,217,310,298,17,7,246,275,211,8,277,59,78,235,315,276,268]",15.20001167,4.599994689,1,0,0,0,133,133,42,1,,,
,,,,,,,,,,,,,FF,,,,,,,,0.500135,,,,,,,,,,,,,,,,,,,,,,,5fac647436421623d15dfcf5,60a7d7fb4e53a0a5eaf92c54,2021-05-21_17h56.08.002,Simcolourproject_2stim_asymm_v5,2020.2.10,Win32,60,60a5f9bf14d0aa2821c4bb84,,,,,1806,47.20001215,80.59999582,1,0,0,response1disk,,7,12.00001162,2.199970239,1,0,0,rectangle,12.00001162,2.199970239,1,0,0,1,"[241,9,262,242,217,310,298,17,7,246,275,211,8,277,59,78,235,315,276,268]",12.00001162,2.199970239,1,0,0,0,134,134,143,1,,,
,,,,,,,,,,,,,FF,,,,,,,,0.80005,,,,,,,,,,,,,,,,,,,,,,,5fac647436421623d15dfcf5,60a7d7fb4e53a0a5eaf92c54,2021-05-21_17h56.08.002,Simcolourproject_2stim_asymm_v5,2020.2.10,Win32,60,60a5f9bf14d0aa2821c4bb84,,,,,843,61.60001236,45.3999953,1,0,0,response1disk,,6,6.400011539,9.399994761,1,0,0,rectangle,6.400011539,9.399994761,1,0,0,6,"[241,9,262,242,217,310,298,17,7,246,275,211,8,277,59,78,235,315,276,268]",6.400011539,9.399994761,1,0,0,0,135,135,102,1,,,
,,,,,,,,,,,,,FF,,,,,,,,1.033415,,,,,,,,,,,,,,,,,,,,,,,5fac647436421623d15dfcf5,60a7d7fb4e53a0a5eaf92c54,2021-05-21_17h56.08.002,Simcolourproject_2stim_asymm_v5,2020.2.10,Win32,60,60a5f9bf14d0aa2821c4bb84,,,,,1639,44.0000121,89.39999595,1,0,0,response1disk,,7,-1.59998858,-5.80002988,1,0,0,rectangle,-1.59998858,-5.80002988,1,0,0,7,"[241,9,262,242,217,310,298,17,7,246,275,211,8,277,59,78,235,315,276,268]",-1.59998858,-5.80002988,1,0,0,0,136,136,78,1,,,
,,,,,,,,,,,,,FF,,,,,,,,0.683305,,,,,,,,,,,,,,,,,,,,,,,5fac647436421623d15dfcf5,60a7d7fb4e53a0a5eaf92c54,2021-05-21_17h56.08.002,Simcolourproject_2stim_asymm_v5,2020.2.10,Win32,60,60a5f9bf14d0aa2821c4bb84,,,,,184,58.40001231,80.59999582,1,0,0,response1disk,,7,22.40001178,6.999994725,1,0,0,rectangle,22.40001178,6.999994725,1,0,0,3,"[241,9,262,242,217,310,298,17,7,246,275,211,8,277,59,78,235,315,276,268]",22.40001178,6.999994725,1,0,0,0,137,137,124,1,,,
,,,,,,,,,,,,,FF,,,,,,,,0.833295,,,,,,,,,,,,,,,,,,,,,,,5fac647436421623d15dfcf5,60a7d7fb4e53a0a5eaf92c54,2021-05-21_17h56.08.002,Simcolourproject_2stim_asymm_v5,2020.2.10,Win32,60,60a5f9bf14d0aa2821c4bb84,,,,,2792,40.80001205,-80.20000657,1,0,0,response3disk,,4,11.20001161,0.59999463,1,0,0,rectangle,11.20001161,0.59999463,1,0,0,2,"[241,9,262,242,217,310,298,17,7,246,275,211,8,277,59,78,235,315,276,268]",11.20001161,0.59999463,1,0,0,0,138,138,155,1,,,
,,,,,,,,,,,,,FF,,,,,,,,0.74972,,,,,,,,,,,,,,,,,,,,,,,5fac647436421623d15dfcf5,60a7d7fb4e53a0a5eaf92c54,2021-05-21_17h56.08.002,Simcolourproject_2stim_asymm_v5,2020.2.10,Win32,60,60a5f9bf14d0aa2821c4bb84,,,,,3263,82.40001267,58.9999955,1,0,0,response1disk,,6,-6.399939823,-1.000005394,1,0,0,rectangle,-6.399939823,-1.000005394,1,0,0,7,"[241,9,262,242,217,310,298,17,7,246,275,211,8,277,59,78,235,315,276,268]",-6.399939823,-1.000005394,1,0,0,0,139,139,55,1,,,
,,,,,,,,,,,,,FF,,,,,,,,0.949685,,,,,,,,,,,,,,,,,,,,,,,5fac647436421623d15dfcf5,60a7d7fb4e53a0a5eaf92c54,2021-05-21_17h56.08.002,Simcolourproject_2stim_asymm_v5,2020.2.10,Win32,60,60a5f9bf14d0aa2821c4bb84,,,,,159,40.00001204,86.99999592,1,0,0,response1disk,,7,10.4000116,-9.000005513,1,0,0,rectangle,10.4000116,-9.000005513,1,0,0,0,"[241,9,262,242,217,310,298,17,7,246,275,211,8,277,59,78,235,315,276,268]",10.4000116,-9.000005513,1,0,0,0,140,140,49,1,,,
,,,,,,,,,,,,,FF,,,,,,,,0.699905,,,,,,,,,,,,,,,,,,,,,,,5fac647436421623d15dfcf5,60a7d7fb4e53a0a5eaf92c54,2021-05-21_17h56.08.002,Simcolourproject_2stim_asymm_v5,2020.2.10,Win32,60,60a5f9bf14d0aa2821c4bb84,,,,,3318,33.60006077,81.39999583,1,0,0,response1disk,,7,-7.199988663,-3.40000543,1,0,0,rectangle,-7.199988663,-3.40000543,1,0,0,6,"[241,9,262,242,217,310,298,17,7,246,275,211,8,277,59,78,235,315,276,268]",-7.199988663,-3.40000543,1,0,0,0,141,141,35,1,,,
,,,,,,,,,,,,,FF,,,,,,,,0.649585,,,,,,,,,,,,,,,,,,,,,,,5fac647436421623d15dfcf5,60a7d7fb4e53a0a5eaf92c54,2021-05-21_17h56.08.002,Simcolourproject_2stim_asymm_v5,2020.2.10,Win32,60,60a5f9bf14d0aa2821c4bb84,,,,,290,41.60006089,87.79999593,1,0,0,response1disk,,7,21.60006059,-9.800029939,1,0,0,rectangle,21.60006059,-9.800029939,1,0,0,2,"[241,9,262,242,217,310,298,17,7,246,275,211,8,277,59,78,235,315,276,268]",21.60006059,-9.800029939,1,0,0,0,142,142,89,1,,,
,,,,,,,,,,,,,FF,,,,,,,,0.74985,,,,,,,,,,,,,,,,,,,,,,,5fac647436421623d15dfcf5,60a7d7fb4e53a0a5eaf92c54,2021-05-21_17h56.08.002,Simcolourproject_2stim_asymm_v5,2020.2.10,Win32,60,60a5f9bf14d0aa2821c4bb84,,,,,2046,99.20001292,42.19997084,1,0,0,response1disk,,6,21.60006059,12.59999481,1,0,0,rectangle,21.60006059,12.59999481,1,0,0,6,"[241,9,262,242,217,310,298,17,7,246,275,211,8,277,59,78,235,315,276,268]",21.60006059,12.59999481,1,0,0,0,143,143,159,1,,,
,,,,,,,,,,,,,FF,,,,,,,,0.566695,,,,,,,,,,,,,,,,,,,,,,,5fac647436421623d15dfcf5,60a7d7fb4e53a0a5eaf92c54,2021-05-21_17h56.08.002,Simcolourproject_2stim_asymm_v5,2020.2.10,Win32,60,60a5f9bf14d0aa2821c4bb84,,,,,1850,59.20001233,100.5999961,1,0,0,response1disk,,7,14.40001166,5.399994701,1,0,0,rectangle,14.40001166,5.399994701,1,0,0,1,"[241,9,262,242,217,310,298,17,7,246,275,211,8,277,59,78,235,315,276,268]",14.40001166,5.399994701,1,0,0,0,144,144,99,1,,,
,,,,,,,,,,,,,FF,,,,,,,,0.433165,,,,,,,,,,,,,,,,,,,,,,,5fac647436421623d15dfcf5,60a7d7fb4e53a0a5eaf92c54,2021-05-21_17h56.08.002,Simcolourproject_2stim_asymm_v5,2020.2.10,Win32,60,60a5f9bf14d0aa2821c4bb84,,,,,1708,49.60006101,109.3999963,1,0,0,response1disk,,7,33.60006077,8.599994749,1,0,0,rectangle,33.60006077,8.599994749,1,0,0,1,"[241,9,262,242,217,310,298,17,7,246,275,211,8,277,59,78,235,315,276,268]",33.60006077,8.599994749,1,0,0,0,145,145,46,1,,,
,,,,,,,,,,,,,FF,,,,,,,,0.4831,,,,,,,,,,,,,,,,,,,,,,,5fac647436421623d15dfcf5,60a7d7fb4e53a0a5eaf92c54,2021-05-21_17h56.08.002,Simcolourproject_2stim_asymm_v5,2020.2.10,Win32,60,60a5f9bf14d0aa2821c4bb84,,,,,931,54.40001225,89.39999595,1,0,0,response1disk,,7,23.20001179,2.199970239,1,0,0,rectangle,23.20001179,2.199970239,1,0,0,6,"[241,9,262,242,217,310,298,17,7,246,275,211,8,277,59,78,235,315,276,268]",23.20001179,2.199970239,1,0,0,0,146,146,25,1,,,
,,,,,,,,,,,,,FF,,,,,,,,0.600055,,,,,,,,,,,,,,,,,,,,,,,5fac647436421623d15dfcf5,60a7d7fb4e53a0a5eaf92c54,2021-05-21_17h56.08.002,Simcolourproject_2stim_asymm_v5,2020.2.10,Win32,60,60a5f9bf14d0aa2821c4bb84,,,,,41,36.80001199,102.9999962,1,0,0,response1disk,,7,15.20001167,-6.600005478,1,0,0,rectangle,15.20001167,-6.600005478,1,0,0,5,"[241,9,262,242,217,310,298,17,7,246,275,211,8,277,59,78,235,315,276,268]",15.20001167,-6.600005478,1,0,0,0,147,147,72,1,,,
,,,,,,,,,,,,,FF,,,,,,,,0.46664,,,,,,,,,,,,,,,,,,,,,,,5fac647436421623d15dfcf5,60a7d7fb4e53a0a5eaf92c54,2021-05-21_17h56.08.002,Simcolourproject_2stim_asymm_v5,2020.2.10,Win32,60,60a5f9bf14d0aa2821c4bb84,,,,,3606,44.80001211,74.19997131,1,0,0,response1disk,,7,32.80001193,14.19997042,1,0,0,rectangle,32.80001193,14.19997042,1,0,0,1,"[241,9,262,242,217,310,298,17,7,246,275,211,8,277,59,78,235,315,276,268]",32.80001193,14.19997042,1,0,0,0,148,148,148,1,,,
,,,,,,,,,,,,,FF,,,,,,,,1.05006,,,,,,,,,,,,,,,,,,,,,,,5fac647436421623d15dfcf5,60a7d7fb4e53a0a5eaf92c54,2021-05-21_17h56.08.002,Simcolourproject_2stim_asymm_v5,2020.2.10,Win32,60,60a5f9bf14d0aa2821c4bb84,,,,,1050,-27.99998897,94.99999604,1,0,0,response7disk,,0,3.200011492,5.399994701,1,0,0,rectangle,3.200011492,5.399994701,1,0,0,1,"[241,9,262,242,217,310,298,17,7,246,275,211,8,277,59,78,235,315,276,268]",3.200011492,5.399994701,1,0,0,0,149,149,68,1,,,
,,,,,,,,,,,,,FF,,,,,,,,0.94995,,,,,,,,,,,,,,,,,,,,,,,5fac647436421623d15dfcf5,60a7d7fb4e53a0a5eaf92c54,2021-05-21_17h56.08.002,Simcolourproject_2stim_asymm_v5,2020.2.10,Win32,60,60a5f9bf14d0aa2821c4bb84,,,,,517,62.40001237,82.19997143,1,0,0,response1disk,,7,15.20001167,9.399994761,1,0,0,rectangle,15.20001167,9.399994761,1,0,0,5,"[241,9,262,242,217,310,298,17,7,246,275,211,8,277,59,78,235,315,276,268]",15.20001167,9.399994761,1,0,0,0,150,150,103,1,,,
,,,,,,,,,,,,,FF,,,,,,,,0.9998,,,,,,,,,,,,,,,,,,,,,,,5fac647436421623d15dfcf5,60a7d7fb4e53a0a5eaf92c54,2021-05-21_17h56.08.002,Simcolourproject_2stim_asymm_v5,2020.2.10,Win32,60,60a5f9bf14d0aa2821c4bb84,,,,,2032,85.60001272,-62.60005514,1,0,0,response3disk,,5,-17.59998882,1.399994642,1,0,0,rectangle,-17.59998882,1.399994642,1,0,0,7,"[241,9,262,242,217,310,298,17,7,246,275,211,8,277,59,78,235,315,276,268]",-17.59998882,1.399994642,1,0,0,0,151,151,118,1,,,
,,,,,,,,,,,,,FF,,,,,,,,1.016515,,,,,,,,,,,,,,,,,,,,,,,5fac647436421623d15dfcf5,60a7d7fb4e53a0a5eaf92c54,2021-05-21_17h56.08.002,Simcolourproject_2stim_asymm_v5,2020.2.10,Win32,60,60a5f9bf14d0aa2821c4bb84,,,,,2782,-71.19998962,-103.4000069,1,0,0,response5disk,,3,-27.19998896,-0.200005382,1,0,0,rectangle,-27.19998896,-0.200005382,1,0,0,5,"[241,9,262,242,217,310,298,17,7,246,275,211,8,277,59,78,235,315,276,268]",-27.19998896,-0.200005382,1,0,0,0,152,152,24,1,,,
,,,,,,,,,,,,,FF,,,,,,,,0.633,,,,,,,,,,,,,,,,,,,,,,,5fac647436421623d15dfcf5,60a7d7fb4e53a0a5eaf92c54,2021-05-21_17h56.08.002,Simcolourproject_2stim_asymm_v5,2020.2.10,Win32,60,60a5f9bf14d0aa2821c4bb84,,,,,3321,58.40001231,85.39999589,1,0,0,response1disk,,7,24.80001181,-0.200005382,1,0,0,rectangle,24.80001181,-0.200005382,1,0,0,5,"[241,9,262,242,217,310,298,17,7,246,275,211,8,277,59,78,235,315,276,268]",24.80001181,-0.200005382,1,0,0,0,153,153,90,1,,,
,,,,,,,,,,,,,FF,,,,,,,,0.54992,,,,,,,,,,,,,,,,,,,,,,,5fac647436421623d15dfcf5,60a7d7fb4e53a0a5eaf92c54,2021-05-21_17h56.08.002,Simcolourproject_2stim_asymm_v5,2020.2.10,Win32,60,60a5f9bf14d0aa2821c4bb84,,,,,3542,32.80001193,101.3999961,1,0,0,response1disk,,7,16.00001168,4.599994689,1,0,0,rectangle,16.00001168,4.599994689,1,0,0,6,"[241,9,262,242,217,310,298,17,7,246,275,211,8,277,59,78,235,315,276,268]",16.00001168,4.599994689,1,0,0,0,154,154,10,1,,,
,,,,,,,,,,,,,FF,,,,,,,,0.716905,,,,,,,,,,,,,,,,,,,,,,,5fac647436421623d15dfcf5,60a7d7fb4e53a0a5eaf92c54,2021-05-21_17h56.08.002,Simcolourproject_2stim_asymm_v5,2020.2.10,Win32,60,60a5f9bf14d0aa2821c4bb84,,,,,2313,45.60006095,106.9999962,1,0,0,response1disk,,7,8.000011563,6.199970299,1,0,0,rectangle,8.000011563,6.199970299,1,0,0,0,"[241,9,262,242,217,310,298,17,7,246,275,211,8,277,59,78,235,315,276,268]",8.000011563,6.199970299,1,0,0,0,155,155,131,1,,,
,,,,,,,,,,,,,FF,,,,,,,,0.91666,,,,,,,,,,,,,,,,,,,,,,,5fac647436421623d15dfcf5,60a7d7fb4e53a0a5eaf92c54,2021-05-21_17h56.08.002,Simcolourproject_2stim_asymm_v5,2020.2.10,Win32,60,60a5f9bf14d0aa2821c4bb84,,,,,2655,32.80001193,84.59999588,1,0,0,response1disk,,7,-6.399939823,1.399994642,1,0,0,rectangle,-6.399939823,1.399994642,1,0,0,7,"[241,9,262,242,217,310,298,17,7,246,275,211,8,277,59,78,235,315,276,268]",-6.399939823,1.399994642,1,0,0,0,156,156,127,1,,,
,,,,,,,,,,,,,FF,,,,,,,,0.616285,,,,,,,,,,,,,,,,,,,,,,,5fac647436421623d15dfcf5,60a7d7fb4e53a0a5eaf92c54,2021-05-21_17h56.08.002,Simcolourproject_2stim_asymm_v5,2020.2.10,Win32,60,60a5f9bf14d0aa2821c4bb84,,,,,3645,41.60006089,84.59999588,1,0,0,response1disk,,7,4.800011516,-0.200005382,1,0,0,rectangle,4.800011516,-0.200005382,1,0,0,3,"[241,9,262,242,217,310,298,17,7,246,275,211,8,277,59,78,235,315,276,268]",4.800011516,-0.200005382,1,0,0,0,157,157,84,1,,,
,,,,,,,,,,,,,FF,,,,,,,,1.16653,,,,,,,,,,,,,,,,,,,,,,,5fac647436421623d15dfcf5,60a7d7fb4e53a0a5eaf92c54,2021-05-21_17h56.08.002,Simcolourproject_2stim_asymm_v5,2020.2.10,Win32,60,60a5f9bf14d0aa2821c4bb84,,,,,439,-84.79998982,-50.60005496,1,0,0,response5disk,,7,8.000011563,4.599994689,1,0,0,rectangle,8.000011563,4.599994689,1,0,0,6,"[241,9,262,242,217,310,298,17,7,246,275,211,8,277,59,78,235,315,276,268]",8.000011563,4.599994689,1,0,0,0,158,158,47,1,,,
,,,,,,,,,,,,,FF,,,,,,,,0.999875,,,,,,,,,,,,,,,,,,,,,,,5fac647436421623d15dfcf5,60a7d7fb4e53a0a5eaf92c54,2021-05-21_17h56.08.002,Simcolourproject_2stim_asymm_v5,2020.2.10,Win32,60,60a5f9bf14d0aa2821c4bb84,,,,,2525,74.40001255,118.199972,1,0,0,response1disk,,7,24.80001181,7.799994737,1,0,0,rectangle,24.80001181,7.799994737,1,0,0,4,"[241,9,262,242,217,310,298,17,7,246,275,211,8,277,59,78,235,315,276,268]",24.80001181,7.799994737,1,0,0,0,159,159,141,1,,,
,,,,,,,,,,,,,FF,,,,,,,,0.79991,,,,,,,,,,,,,,,,,,,,,,,5fac647436421623d15dfcf5,60a7d7fb4e53a0a5eaf92c54,2021-05-21_17h56.08.002,Simcolourproject_2stim_asymm_v5,2020.2.10,Win32,60,60a5f9bf14d0aa2821c4bb84,,,,,3763,58.40001231,78.9999958,1,0,0,response1disk,,7,-3.199988604,4.599994689,1,0,0,rectangle,-3.199988604,4.599994689,1,0,0,4,"[241,9,262,242,217,310,298,17,7,246,275,211,8,277,59,78,235,315,276,268]",-3.199988604,4.599994689,1,0,0,0,160,160,13,1,,,
,,,,,,,,,,,,,FF,,,,,,,,0.599975,,,,,,,,,,,,,,,,,,,,,,,5fac647436421623d15dfcf5,60a7d7fb4e53a0a5eaf92c54,2021-05-21_17h56.08.002,Simcolourproject_2stim_asymm_v5,2020.2.10,Win32,60,60a5f9bf14d0aa2821c4bb84,,,,,3826,40.80001205,109.3999963,1,0,0,response1disk,,7,14.40001166,-13.00000557,1,0,0,rectangle,14.40001166,-13.00000557,1,0,0,0,"[241,9,262,242,217,310,298,17,7,246,275,211,8,277,59,78,235,315,276,268]",14.40001166,-13.00000557,1,0,0,1,0,161,36,1,,,
,,,,,,,,,,,,,FF,,,,,,,,0.483165,,,,,,,,,,,,,,,,,,,,,,,5fac647436421623d15dfcf5,60a7d7fb4e53a0a5eaf92c54,2021-05-21_17h56.08.002,Simcolourproject_2stim_asymm_v5,2020.2.10,Win32,60,60a5f9bf14d0aa2821c4bb84,,,,,2560,63.20001239,78.19997137,1,0,0,response1disk,,7,37.60006083,2.199970239,1,0,0,rectangle,37.60006083,2.199970239,1,0,0,7,"[241,9,262,242,217,310,298,17,7,246,275,211,8,277,59,78,235,315,276,268]",37.60006083,2.199970239,1,0,0,1,1,162,108,1,,,
,,,,,,,,,,,,,FF,,,,,,,,0.499885,,,,,,,,,,,,,,,,,,,,,,,5fac647436421623d15dfcf5,60a7d7fb4e53a0a5eaf92c54,2021-05-21_17h56.08.002,Simcolourproject_2stim_asymm_v5,2020.2.10,Win32,60,60a5f9bf14d0aa2821c4bb84,,,,,2562,51.20001221,86.99999592,1,0,0,response1disk,,7,27.20001185,6.999994725,1,0,0,rectangle,27.20001185,6.999994725,1,0,0,2,"[241,9,262,242,217,310,298,17,7,246,275,211,8,277,59,78,235,315,276,268]",27.20001185,6.999994725,1,0,0,1,2,163,49,1,,,
,,,,,,,,,,,,,FF,,,,,,,,0.983395,,,,,,,,,,,,,,,,,,,,,,,5fac647436421623d15dfcf5,60a7d7fb4e53a0a5eaf92c54,2021-05-21_17h56.08.002,Simcolourproject_2stim_asymm_v5,2020.2.10,Win32,60,60a5f9bf14d0aa2821c4bb84,,,,,1815,-88.79998988,31.79999509,1,0,0,response7disk,,1,-21.59998888,5.399994701,1,0,0,rectangle,-21.59998888,5.399994701,1,0,0,6,"[241,9,262,242,217,310,298,17,7,246,275,211,8,277,59,78,235,315,276,268]",-21.59998888,5.399994701,1,0,0,1,3,164,113,1,,,
,,,,,,,,,,,,,FF,,,,,,,,0.533375,,,,,,,,,,,,,,,,,,,,,,,5fac647436421623d15dfcf5,60a7d7fb4e53a0a5eaf92c54,2021-05-21_17h56.08.002,Simcolourproject_2stim_asymm_v5,2020.2.10,Win32,60,60a5f9bf14d0aa2821c4bb84,,,,,1873,62.40001237,101.3999961,1,0,0,response1disk,,7,12.00001162,-0.200005382,1,0,0,rectangle,12.00001162,-0.200005382,1,0,0,5,"[241,9,262,242,217,310,298,17,7,246,275,211,8,277,59,78,235,315,276,268]",12.00001162,-0.200005382,1,0,0,1,4,165,85,1,,,
,,,,,,,,,,,,,FF,,,,,,,,0.533265,,,,,,,,,,,,,,,,,,,,,,,5fac647436421623d15dfcf5,60a7d7fb4e53a0a5eaf92c54,2021-05-21_17h56.08.002,Simcolourproject_2stim_asymm_v5,2020.2.10,Win32,60,60a5f9bf14d0aa2821c4bb84,,,,,4008,44.80001211,102.1999717,1,0,0,response1disk,,7,0.800011456,4.599994689,1,0,0,rectangle,0.800011456,4.599994689,1,0,0,0,"[241,9,262,242,217,310,298,17,7,246,275,211,8,277,59,78,235,315,276,268]",0.800011456,4.599994689,1,0,0,1,5,166,39,1,,,
,,,,,,,,,,,,,FF,,,,,,,,1.68294,,,,,,,,,,,,,,,,,,,,,,,5fac647436421623d15dfcf5,60a7d7fb4e53a0a5eaf92c54,2021-05-21_17h56.08.002,Simcolourproject_2stim_asymm_v5,2020.2.10,Win32,60,60a5f9bf14d0aa2821c4bb84,,,,,460,39.20001203,-103.4000069,1,0,0,response3disk,,4,0.800011456,-10.60000554,1,0,0,rectangle,0.800011456,-10.60000554,1,0,0,2,"[241,9,262,242,217,310,298,17,7,246,275,211,8,277,59,78,235,315,276,268]",0.800011456,-10.60000554,1,0,0,1,6,167,147,1,,,
,,,,,,,,,,,,,FF,,,,,,,,0.51651,,,,,,,,,,,,,,,,,,,,,,,5fac647436421623d15dfcf5,60a7d7fb4e53a0a5eaf92c54,2021-05-21_17h56.08.002,Simcolourproject_2stim_asymm_v5,2020.2.10,Win32,60,60a5f9bf14d0aa2821c4bb84,,,,,3763,60.80001235,109.3999963,1,0,0,response1disk,,7,20.00001174,6.199970299,1,0,0,rectangle,20.00001174,6.199970299,1,0,0,4,"[241,9,262,242,217,310,298,17,7,246,275,211,8,277,59,78,235,315,276,268]",20.00001174,6.199970299,1,0,0,1,7,168,131,1,,,
,,,,,,,,,,,,,FF,,,,,,,,0.916795,,,,,,,,,,,,,,,,,,,,,,,5fac647436421623d15dfcf5,60a7d7fb4e53a0a5eaf92c54,2021-05-21_17h56.08.002,Simcolourproject_2stim_asymm_v5,2020.2.10,Win32,60,60a5f9bf14d0aa2821c4bb84,,,,,3425,-56.7999894,94.19997161,1,0,0,response7disk,,0,16.00001168,4.599994689,1,0,0,rectangle,16.00001168,4.599994689,1,0,0,2,"[241,9,262,242,217,310,298,17,7,246,275,211,8,277,59,78,235,315,276,268]",16.00001168,4.599994689,1,0,0,1,8,169,121,1,,,
,,,,,,,,,,,,,FF,,,,,,,,0.96635,,,,,,,,,,,,,,,,,,,,,,,5fac647436421623d15dfcf5,60a7d7fb4e53a0a5eaf92c54,2021-05-21_17h56.08.002,Simcolourproject_2stim_asymm_v5,2020.2.10,Win32,60,60a5f9bf14d0aa2821c4bb84,,,,,4185,60.80001235,91.79999599,1,0,0,response1disk,,7,25.60006065,-1.000005394,1,0,0,rectangle,25.60006065,-1.000005394,1,0,0,6,"[241,9,262,242,217,310,298,17,7,246,275,211,8,277,59,78,235,315,276,268]",25.60006065,-1.000005394,1,0,0,1,9,170,42,1,,,
,,,,,,,,,,,,,FF,,,,,,,,0.463645,,,,,,,,,,,,,,,,,,,,,,,5fac647436421623d15dfcf5,60a7d7fb4e53a0a5eaf92c54,2021-05-21_17h56.08.002,Simcolourproject_2stim_asymm_v5,2020.2.10,Win32,60,60a5f9bf14d0aa2821c4bb84,,,,,3687,19.20001173,82.99999586,1,0,0,response1disk,,7,8.800011575,-5.80002988,1,0,0,rectangle,8.800011575,-5.80002988,1,0,0,6,"[241,9,262,242,217,310,298,17,7,246,275,211,8,277,59,78,235,315,276,268]",8.800011575,-5.80002988,1,0,0,1,10,171,51,1,,,
,,,,,,,,,,,,,FF,,,,,,,,0.466625,,,,,,,,,,,,,,,,,,,,,,,5fac647436421623d15dfcf5,60a7d7fb4e53a0a5eaf92c54,2021-05-21_17h56.08.002,Simcolourproject_2stim_asymm_v5,2020.2.10,Win32,60,60a5f9bf14d0aa2821c4bb84,,,,,2525,32.80001193,95.79999605,1,0,0,response1disk,,7,-2.399939764,-1.000005394,1,0,0,rectangle,-2.399939764,-1.000005394,1,0,0,2,"[241,9,262,242,217,310,298,17,7,246,275,211,8,277,59,78,235,315,276,268]",-2.399939764,-1.000005394,1,0,0,1,11,172,119,1,,,
,,,,,,,,,,,,,FF,,,,,,,,0.449695,,,,,,,,,,,,,,,,,,,,,,,5fac647436421623d15dfcf5,60a7d7fb4e53a0a5eaf92c54,2021-05-21_17h56.08.002,Simcolourproject_2stim_asymm_v5,2020.2.10,Win32,60,60a5f9bf14d0aa2821c4bb84,,,,,4204,44.0000121,83.79999587,1,0,0,response1disk,,7,18.40001172,6.999994725,1,0,0,rectangle,18.40001172,6.999994725,1,0,0,2,"[241,9,262,242,217,310,298,17,7,246,275,211,8,277,59,78,235,315,276,268]",18.40001172,6.999994725,1,0,0,1,12,173,5,1,,,
,,,,,,,,,,,,,FF,,,,,,,,0.466455,,,,,,,,,,,,,,,,,,,,,,,5fac647436421623d15dfcf5,60a7d7fb4e53a0a5eaf92c54,2021-05-21_17h56.08.002,Simcolourproject_2stim_asymm_v5,2020.2.10,Win32,60,60a5f9bf14d0aa2821c4bb84,,,,,3318,36.00001198,88.59999594,1,0,0,response1disk,,7,8.800011575,3.799994677,1,0,0,rectangle,8.800011575,3.799994677,1,0,0,0,"[241,9,262,242,217,310,298,17,7,246,275,211,8,277,59,78,235,315,276,268]",8.800011575,3.799994677,1,0,0,1,13,174,157,1,,,
,,,,,,,,,,,,,FF,,,,,,,,0.79989,,,,,,,,,,,,,,,,,,,,,,,5fac647436421623d15dfcf5,60a7d7fb4e53a0a5eaf92c54,2021-05-21_17h56.08.002,Simcolourproject_2stim_asymm_v5,2020.2.10,Win32,60,60a5f9bf14d0aa2821c4bb84,,,,,1592,43.20001209,84.59999588,1,0,0,response1disk,,7,23.20001179,2.199970239,1,0,0,rectangle,23.20001179,2.199970239,1,0,0,6,"[241,9,262,242,217,310,298,17,7,246,275,211,8,277,59,78,235,315,276,268]",23.20001179,2.199970239,1,0,0,1,14,175,9,1,,,
,,,,,,,,,,,,,FF,,,,,,,,0.46649,,,,,,,,,,,,,,,,,,,,,,,5fac647436421623d15dfcf5,60a7d7fb4e53a0a5eaf92c54,2021-05-21_17h56.08.002,Simcolourproject_2stim_asymm_v5,2020.2.10,Win32,60,60a5f9bf14d0aa2821c4bb84,,,,,4211,72.80001253,85.39999589,1,0,0,response1disk,,7,28.00001186,-4.200005442,1,0,0,rectangle,28.00001186,-4.200005442,1,0,0,7,"[241,9,262,242,217,310,298,17,7,246,275,211,8,277,59,78,235,315,276,268]",28.00001186,-4.200005442,1,0,0,1,15,176,111,1,,,
,,,,,,,,,,,,,FF,,,,,,,,0.39986,,,,,,,,,,,,,,,,,,,,,,,5fac647436421623d15dfcf5,60a7d7fb4e53a0a5eaf92c54,2021-05-21_17h56.08.002,Simcolourproject_2stim_asymm_v5,2020.2.10,Win32,60,60a5f9bf14d0aa2821c4bb84,,,,,1639,53.60001224,93.39999601,1,0,0,response1disk,,7,28.00001186,2.999994665,1,0,0,rectangle,28.00001186,2.999994665,1,0,0,6,"[241,9,262,242,217,310,298,17,7,246,275,211,8,277,59,78,235,315,276,268]",28.00001186,2.999994665,1,0,0,1,16,177,112,1,,,
,,,,,,,,,,,,,FF,,,,,,,,0.50017,,,,,,,,,,,,,,,,,,,,,,,5fac647436421623d15dfcf5,60a7d7fb4e53a0a5eaf92c54,2021-05-21_17h56.08.002,Simcolourproject_2stim_asymm_v5,2020.2.10,Win32,60,60a5f9bf14d0aa2821c4bb84,,,,,1850,50.4000122,111.7999963,1,0,0,response1disk,,7,14.40001166,5.399994701,1,0,0,rectangle,14.40001166,5.399994701,1,0,0,2,"[241,9,262,242,217,310,298,17,7,246,275,211,8,277,59,78,235,315,276,268]",14.40001166,5.399994701,1,0,0,1,17,178,53,1,,,
,,,,,,,,,,,,,FF,,,,,,,,0.499955,,,,,,,,,,,,,,,,,,,,,,,5fac647436421623d15dfcf5,60a7d7fb4e53a0a5eaf92c54,2021-05-21_17h56.08.002,Simcolourproject_2stim_asymm_v5,2020.2.10,Win32,60,60a5f9bf14d0aa2821c4bb84,,,,,2880,33.60006077,84.59999588,1,0,0,response1disk,,7,22.40001178,-1.000005394,1,0,0,rectangle,22.40001178,-1.000005394,1,0,0,1,"[241,9,262,242,217,310,298,17,7,246,275,211,8,277,59,78,235,315,276,268]",22.40001178,-1.000005394,1,0,0,1,18,179,101,1,,,
,,,,,,,,,,,,,FF,,,,,,,,0.46656,,,,,,,,,,,,,,,,,,,,,,,5fac647436421623d15dfcf5,60a7d7fb4e53a0a5eaf92c54,2021-05-21_17h56.08.002,Simcolourproject_2stim_asymm_v5,2020.2.10,Win32,60,60a5f9bf14d0aa2821c4bb84,,,,,2354,69.60001248,94.99999604,1,0,0,response1disk,,7,32.80001193,0.59999463,1,0,0,rectangle,32.80001193,0.59999463,1,0,0,7,"[241,9,262,242,217,310,298,17,7,246,275,211,8,277,59,78,235,315,276,268]",32.80001193,0.59999463,1,0,0,1,19,180,76,1,,,
,,,,,,,,,,,,,FF,,,,,,,,0.482995,,,,,,,,,,,,,,,,,,,,,,,5fac647436421623d15dfcf5,60a7d7fb4e53a0a5eaf92c54,2021-05-21_17h56.08.002,Simcolourproject_2stim_asymm_v5,2020.2.10,Win32,60,60a5f9bf14d0aa2821c4bb84,,,,,3542,36.00001198,99.79999611,1,0,0,response1disk,,7,-2.399939764,-0.200005382,1,0,0,rectangle,-2.399939764,-0.200005382,1,0,0,6,"[241,9,262,242,217,310,298,17,7,246,275,211,8,277,59,78,235,315,276,268]",-2.399939764,-0.200005382,1,0,0,1,20,181,107,1,,,
,,,,,,,,,,,,,FF,,,,,,,,1.116655,,,,,,,,,,,,,,,,,,,,,,,5fac647436421623d15dfcf5,60a7d7fb4e53a0a5eaf92c54,2021-05-21_17h56.08.002,Simcolourproject_2stim_asymm_v5,2020.2.10,Win32,60,60a5f9bf14d0aa2821c4bb84,,,,,4115,74.40001255,-24.20000574,1,0,0,response3disk,,5,16.00001168,2.199970239,1,0,0,rectangle,16.00001168,2.199970239,1,0,0,4,"[241,9,262,242,217,310,298,17,7,246,275,211,8,277,59,78,235,315,276,268]",16.00001168,2.199970239,1,0,0,1,21,182,115,1,,,
,,,,,,,,,,,,,FF,,,,,,,,0.53327,,,,,,,,,,,,,,,,,,,,,,,5fac647436421623d15dfcf5,60a7d7fb4e53a0a5eaf92c54,2021-05-21_17h56.08.002,Simcolourproject_2stim_asymm_v5,2020.2.10,Win32,60,60a5f9bf14d0aa2821c4bb84,,,,,3652,37.60006083,90.19997155,1,0,0,response1disk,,7,12.80001163,-9.800029939,1,0,0,rectangle,12.80001163,-9.800029939,1,0,0,1,"[241,9,262,242,217,310,298,17,7,246,275,211,8,277,59,78,235,315,276,268]",12.80001163,-9.800029939,1,0,0,1,22,183,105,1,,,
,,,,,,,,,,,,,FF,,,,,,,,1.116755,,,,,,,,,,,,,,,,,,,,,,,5fac647436421623d15dfcf5,60a7d7fb4e53a0a5eaf92c54,2021-05-21_17h56.08.002,Simcolourproject_2stim_asymm_v5,2020.2.10,Win32,60,60a5f9bf14d0aa2821c4bb84,,,,,1148,24.0000118,-79.40000656,1,0,0,response3disk,,4,-12.79998875,-10.60000554,1,0,0,rectangle,-12.79998875,-10.60000554,1,0,0,6,"[241,9,262,242,217,310,298,17,7,246,275,211,8,277,59,78,235,315,276,268]",-12.79998875,-10.60000554,1,0,0,1,23,184,55,1,,,
,,,,,,,,,,,,,FF,,,,,,,,1.116345,,,,,,,,,,,,,,,,,,,,,,,5fac647436421623d15dfcf5,60a7d7fb4e53a0a5eaf92c54,2021-05-21_17h56.08.002,Simcolourproject_2stim_asymm_v5,2020.2.10,Win32,60,60a5f9bf14d0aa2821c4bb84,,,,,4089,34.40001196,79.79999581,1,0,0,response1disk,,7,6.400011539,-9.000005513,1,0,0,rectangle,6.400011539,-9.000005513,1,0,0,4,"[241,9,262,242,217,310,298,17,7,246,275,211,8,277,59,78,235,315,276,268]",6.400011539,-9.000005513,1,0,0,1,24,185,93,1,,,
,,,,,,,,,,,,,FF,,,,,,,,0.999985,,,,,,,,,,,,,,,,,,,,,,,5fac647436421623d15dfcf5,60a7d7fb4e53a0a5eaf92c54,2021-05-21_17h56.08.002,Simcolourproject_2stim_asymm_v5,2020.2.10,Win32,60,60a5f9bf14d0aa2821c4bb84,,,,,3894,32.80001193,95.79999605,1,0,0,response1disk,,7,1.600060296,-8.200005502,1,0,0,rectangle,1.600060296,-8.200005502,1,0,0,7,"[241,9,262,242,217,310,298,17,7,246,275,211,8,277,59,78,235,315,276,268]",1.600060296,-8.200005502,1,0,0,1,25,186,95,1,,,
,,,,,,,,,,,,,FF,,,,,,,,0.76646,,,,,,,,,,,,,,,,,,,,,,,5fac647436421623d15dfcf5,60a7d7fb4e53a0a5eaf92c54,2021-05-21_17h56.08.002,Simcolourproject_2stim_asymm_v5,2020.2.10,Win32,60,60a5f9bf14d0aa2821c4bb84,,,,,1514,32.00001192,70.19997125,1,0,0,response1disk,,7,24.0000118,6.999994725,1,0,0,rectangle,24.0000118,6.999994725,1,0,0,6,"[241,9,262,242,217,310,298,17,7,246,275,211,8,277,59,78,235,315,276,268]",24.0000118,6.999994725,1,0,0,1,26,187,38,1,,,
,,,,,,,,,,,,,FF,,,,,,,,0.933065,,,,,,,,,,,,,,,,,,,,,,,5fac647436421623d15dfcf5,60a7d7fb4e53a0a5eaf92c54,2021-05-21_17h56.08.002,Simcolourproject_2stim_asymm_v5,2020.2.10,Win32,60,60a5f9bf14d0aa2821c4bb84,,,,,828,71.20001251,42.99999526,1,0,0,response1disk,,6,23.20001179,2.999994665,1,0,0,rectangle,23.20001179,2.999994665,1,0,0,0,"[241,9,262,242,217,310,298,17,7,246,275,211,8,277,59,78,235,315,276,268]",23.20001179,2.999994665,1,0,0,1,27,188,61,1,,,
,,,,,,,,,,,,,FF,,,,,,,,0.683055,,,,,,,,,,,,,,,,,,,,,,,5fac647436421623d15dfcf5,60a7d7fb4e53a0a5eaf92c54,2021-05-21_17h56.08.002,Simcolourproject_2stim_asymm_v5,2020.2.10,Win32,60,60a5f9bf14d0aa2821c4bb84,,,,,159,45.60006095,74.99999574,1,0,0,response1disk,,7,28.80001187,-8.200005502,1,0,0,rectangle,28.80001187,-8.200005502,1,0,0,4,"[241,9,262,242,217,310,298,17,7,246,275,211,8,277,59,78,235,315,276,268]",28.80001187,-8.200005502,1,0,0,1,28,189,88,1,,,
,,,,,,,,,,,,,FF,,,,,,,,0.51698,,,,,,,,,,,,,,,,,,,,,,,5fac647436421623d15dfcf5,60a7d7fb4e53a0a5eaf92c54,2021-05-21_17h56.08.002,Simcolourproject_2stim_asymm_v5,2020.2.10,Win32,60,60a5f9bf14d0aa2821c4bb84,,,,,245,58.40001231,82.99999586,1,0,0,response1disk,,7,18.40001172,-1.000005394,1,0,0,rectangle,18.40001172,-1.000005394,1,0,0,4,"[241,9,262,242,217,310,298,17,7,246,275,211,8,277,59,78,235,315,276,268]",18.40001172,-1.000005394,1,0,0,1,29,190,132,1,,,
,,,,,,,,,,,,,FF,,,,,,,,0.983295,,,,,,,,,,,,,,,,,,,,,,,5fac647436421623d15dfcf5,60a7d7fb4e53a0a5eaf92c54,2021-05-21_17h56.08.002,Simcolourproject_2stim_asymm_v5,2020.2.10,Win32,60,60a5f9bf14d0aa2821c4bb84,,,,,184,37.60006083,83.79999587,1,0,0,response1disk,,7,16.80001169,-1.000005394,1,0,0,rectangle,16.80001169,-1.000005394,1,0,0,7,"[241,9,262,242,217,310,298,17,7,246,275,211,8,277,59,78,235,315,276,268]",16.80001169,-1.000005394,1,0,0,1,30,191,20,1,,,
,,,,,,,,,,,,,FF,,,,,,,,1.06662,,,,,,,,,,,,,,,,,,,,,,,5fac647436421623d15dfcf5,60a7d7fb4e53a0a5eaf92c54,2021-05-21_17h56.08.002,Simcolourproject_2stim_asymm_v5,2020.2.10,Win32,60,60a5f9bf14d0aa2821c4bb84,,,,,2022,102.400013,-61.00000629,1,0,0,response3disk,,5,4.000011504,-6.600005478,1,0,0,rectangle,4.000011504,-6.600005478,1,0,0,5,"[241,9,262,242,217,310,298,17,7,246,275,211,8,277,59,78,235,315,276,268]",4.000011504,-6.600005478,1,0,0,1,31,192,158,1,,,
,,,,,,,,,,,,,FF,,,,,,,,0.949995,,,,,,,,,,,,,,,,,,,,,,,5fac647436421623d15dfcf5,60a7d7fb4e53a0a5eaf92c54,2021-05-21_17h56.08.002,Simcolourproject_2stim_asymm_v5,2020.2.10,Win32,60,60a5f9bf14d0aa2821c4bb84,,,,,2655,91.2000128,-37.80003036,1,0,0,response3disk,,5,31.20001191,7.799994737,1,0,0,rectangle,31.20001191,7.799994737,1,0,0,5,"[241,9,262,242,217,310,298,17,7,246,275,211,8,277,59,78,235,315,276,268]",31.20001191,7.799994737,1,0,0,1,32,193,24,1,,,
,,,,,,,,,,,,,FF,,,,,,,,0.700175,,,,,,,,,,,,,,,,,,,,,,,5fac647436421623d15dfcf5,60a7d7fb4e53a0a5eaf92c54,2021-05-21_17h56.08.002,Simcolourproject_2stim_asymm_v5,2020.2.10,Win32,60,60a5f9bf14d0aa2821c4bb84,,,,,1289,48.80001217,90.99999598,1,0,0,response1disk,,7,30.4000119,-0.200005382,1,0,0,rectangle,30.4000119,-0.200005382,1,0,0,1,"[241,9,262,242,217,310,298,17,7,246,275,211,8,277,59,78,235,315,276,268]",30.4000119,-0.200005382,1,0,0,1,33,194,127,1,,,
,,,,,,,,,,,,,FF,,,,,,,,0.96681,,,,,,,,,,,,,,,,,,,,,,,5fac647436421623d15dfcf5,60a7d7fb4e53a0a5eaf92c54,2021-05-21_17h56.08.002,Simcolourproject_2stim_asymm_v5,2020.2.10,Win32,60,60a5f9bf14d0aa2821c4bb84,,,,,3816,-76.7999897,31.79999509,1,0,0,response7disk,,1,-19.99998885,-0.200005382,1,0,0,rectangle,-19.99998885,-0.200005382,1,0,0,4,"[241,9,262,242,217,310,298,17,7,246,275,211,8,277,59,78,235,315,276,268]",-19.99998885,-0.200005382,1,0,0,1,34,195,64,1,,,
,,,,,,,,,,,,,FF,,,,,,,,0.566285,,,,,,,,,,,,,,,,,,,,,,,5fac647436421623d15dfcf5,60a7d7fb4e53a0a5eaf92c54,2021-05-21_17h56.08.002,Simcolourproject_2stim_asymm_v5,2020.2.10,Win32,60,60a5f9bf14d0aa2821c4bb84,,,,,3483,31.20001191,102.1999717,1,0,0,response1disk,,7,-2.399939764,-0.200005382,1,0,0,rectangle,-2.399939764,-0.200005382,1,0,0,7,"[241,9,262,242,217,310,298,17,7,246,275,211,8,277,59,78,235,315,276,268]",-2.399939764,-0.200005382,1,0,0,1,35,196,2,1,,,
,,,,,,,,,,,,,FF,,,,,,,,0.50002,,,,,,,,,,,,,,,,,,,,,,,5fac647436421623d15dfcf5,60a7d7fb4e53a0a5eaf92c54,2021-05-21_17h56.08.002,Simcolourproject_2stim_asymm_v5,2020.2.10,Win32,60,60a5f9bf14d0aa2821c4bb84,,,,,3263,48.80001217,64.59999558,1,0,0,response1disk,,7,20.00001174,-1.80002982,1,0,0,rectangle,20.00001174,-1.80002982,1,0,0,5,"[241,9,262,242,217,310,298,17,7,246,275,211,8,277,59,78,235,315,276,268]",20.00001174,-1.80002982,1,0,0,1,36,197,29,1,,,
,,,,,,,,,,,,,FF,,,,,,,,0.516875,,,,,,,,,,,,,,,,,,,,,,,5fac647436421623d15dfcf5,60a7d7fb4e53a0a5eaf92c54,2021-05-21_17h56.08.002,Simcolourproject_2stim_asymm_v5,2020.2.10,Win32,60,60a5f9bf14d0aa2821c4bb84,,,,,1659,30.4000119,53.39999542,1,0,0,response1disk,,7,16.00001168,5.399994701,1,0,0,rectangle,16.00001168,5.399994701,1,0,0,1,"[241,9,262,242,217,310,298,17,7,246,275,211,8,277,59,78,235,315,276,268]",16.00001168,5.399994701,1,0,0,1,37,198,151,1,,,
,,,,,,,,,,,,,FF,,,,,,,,0.632905,,,,,,,,,,,,,,,,,,,,,,,5fac647436421623d15dfcf5,60a7d7fb4e53a0a5eaf92c54,2021-05-21_17h56.08.002,Simcolourproject_2stim_asymm_v5,2020.2.10,Win32,60,60a5f9bf14d0aa2821c4bb84,,,,,3928,38.40001202,81.39999583,1,0,0,response1disk,,7,4.800011516,6.199970299,1,0,0,rectangle,4.800011516,6.199970299,1,0,0,6,"[241,9,262,242,217,310,298,17,7,246,275,211,8,277,59,78,235,315,276,268]",4.800011516,6.199970299,1,0,0,1,38,199,56,1,,,
,,,,,,,,,,,,,FF,,,,,,,,0.68344,,,,,,,,,,,,,,,,,,,,,,,5fac647436421623d15dfcf5,60a7d7fb4e53a0a5eaf92c54,2021-05-21_17h56.08.002,Simcolourproject_2stim_asymm_v5,2020.2.10,Win32,60,60a5f9bf14d0aa2821c4bb84,,,,,2886,-44.79998922,94.19997161,1,0,0,response7disk,,0,-11.19998872,-1.000005394,1,0,0,rectangle,-11.19998872,-1.000005394,1,0,0,2,"[241,9,262,242,217,310,298,17,7,246,275,211,8,277,59,78,235,315,276,268]",-11.19998872,-1.000005394,1,0,0,1,39,200,18,1,,,
,,,,,,,,,,,,,FF,,,,,,,,0.58347,,,,,,,,,,,,,,,,,,,,,,,5fac647436421623d15dfcf5,60a7d7fb4e53a0a5eaf92c54,2021-05-21_17h56.08.002,Simcolourproject_2stim_asymm_v5,2020.2.10,Win32,60,60a5f9bf14d0aa2821c4bb84,,,,,922,69.60001248,100.5999961,1,0,0,response1disk,,7,24.0000118,10.19997036,1,0,0,rectangle,24.0000118,10.19997036,1,0,0,1,"[241,9,262,242,217,310,298,17,7,246,275,211,8,277,59,78,235,315,276,268]",24.0000118,10.19997036,1,0,0,1,40,201,72,1,,,
,,,,,,,,,,,,,FF,,,,,,,,0.63329,,,,,,,,,,,,,,,,,,,,,,,5fac647436421623d15dfcf5,60a7d7fb4e53a0a5eaf92c54,2021-05-21_17h56.08.002,Simcolourproject_2stim_asymm_v5,2020.2.10,Win32,60,60a5f9bf14d0aa2821c4bb84,,,,,2650,46.40001214,98.9999961,1,0,0,response1disk,,7,21.60006059,3.799994677,1,0,0,rectangle,21.60006059,3.799994677,1,0,0,2,"[241,9,262,242,217,310,298,17,7,246,275,211,8,277,59,78,235,315,276,268]",21.60006059,3.799994677,1,0,0,1,41,202,135,1,,,
,,,,,,,,,,,,,FF,,,,,,,,0.76651,,,,,,,,,,,,,,,,,,,,,,,5fac647436421623d15dfcf5,60a7d7fb4e53a0a5eaf92c54,2021-05-21_17h56.08.002,Simcolourproject_2stim_asymm_v5,2020.2.10,Win32,60,60a5f9bf14d0aa2821c4bb84,,,,,0,-67.99998957,40.59999523,1,0,0,response7disk,,1,-13.59998876,10.19997036,1,0,0,rectangle,-13.59998876,10.19997036,1,0,0,4,"[241,9,262,242,217,310,298,17,7,246,275,211,8,277,59,78,235,315,276,268]",-13.59998876,10.19997036,1,0,0,1,42,203,126,1,,,
,,,,,,,,,,,,,FF,,,,,,,,1.099895,,,,,,,,,,,,,,,,,,,,,,,5fac647436421623d15dfcf5,60a7d7fb4e53a0a5eaf92c54,2021-05-21_17h56.08.002,Simcolourproject_2stim_asymm_v5,2020.2.10,Win32,60,60a5f9bf14d0aa2821c4bb84,,,,,2103,88.80001277,39.79999521,1,0,0,response1disk,,6,-15.19998878,-6.600005478,1,0,0,rectangle,-15.19998878,-6.600005478,1,0,0,7,"[241,9,262,242,217,310,298,17,7,246,275,211,8,277,59,78,235,315,276,268]",-15.19998878,-6.600005478,1,0,0,1,43,204,70,1,,,
,,,,,,,,,,,,,FF,,,,,,,,0.54995,,,,,,,,,,,,,,,,,,,,,,,5fac647436421623d15dfcf5,60a7d7fb4e53a0a5eaf92c54,2021-05-21_17h56.08.002,Simcolourproject_2stim_asymm_v5,2020.2.10,Win32,60,60a5f9bf14d0aa2821c4bb84,,,,,715,50.4000122,99.79999611,1,0,0,response1disk,,7,6.400011539,2.999994665,1,0,0,rectangle,6.400011539,2.999994665,1,0,0,3,"[241,9,262,242,217,310,298,17,7,246,275,211,8,277,59,78,235,315,276,268]",6.400011539,2.999994665,1,0,0,1,44,205,17,1,,,
,,,,,,,,,,,,,FF,,,,,,,,0.816775,,,,,,,,,,,,,,,,,,,,,,,5fac647436421623d15dfcf5,60a7d7fb4e53a0a5eaf92c54,2021-05-21_17h56.08.002,Simcolourproject_2stim_asymm_v5,2020.2.10,Win32,60,60a5f9bf14d0aa2821c4bb84,,,,,3424,32.00001192,66.99999562,1,0,0,response1disk,,7,-3.999988616,-6.600005478,1,0,0,rectangle,-3.999988616,-6.600005478,1,0,0,7,"[241,9,262,242,217,310,298,17,7,246,275,211,8,277,59,78,235,315,276,268]",-3.999988616,-6.600005478,1,0,0,1,45,206,102,1,,,
,,,,,,,,,,,,,FF,,,,,,,,0.966835,,,,,,,,,,,,,,,,,,,,,,,5fac647436421623d15dfcf5,60a7d7fb4e53a0a5eaf92c54,2021-05-21_17h56.08.002,Simcolourproject_2stim_asymm_v5,2020.2.10,Win32,60,60a5f9bf14d0aa2821c4bb84,,,,,1150,92.00001281,-56.20000622,1,0,0,response3disk,,5,-7.999988675,3.799994677,1,0,0,rectangle,-7.999988675,3.799994677,1,0,0,3,"[241,9,262,242,217,310,298,17,7,246,275,211,8,277,59,78,235,315,276,268]",-7.999988675,3.799994677,1,0,0,1,46,207,137,1,,,
,,,,,,,,,,,,,FF,,,,,,,,0.599805,,,,,,,,,,,,,,,,,,,,,,,5fac647436421623d15dfcf5,60a7d7fb4e53a0a5eaf92c54,2021-05-21_17h56.08.002,Simcolourproject_2stim_asymm_v5,2020.2.10,Win32,60,60a5f9bf14d0aa2821c4bb84,,,,,3570,26.40001184,93.39999601,1,0,0,response1disk,,7,8.800011575,5.399994701,1,0,0,rectangle,8.800011575,5.399994701,1,0,0,1,"[241,9,262,242,217,310,298,17,7,246,275,211,8,277,59,78,235,315,276,268]",8.800011575,5.399994701,1,0,0,1,47,208,150,1,,,
,,,,,,,,,,,,,FF,,,,,,,,0.46664,,,,,,,,,,,,,,,,,,,,,,,5fac647436421623d15dfcf5,60a7d7fb4e53a0a5eaf92c54,2021-05-21_17h56.08.002,Simcolourproject_2stim_asymm_v5,2020.2.10,Win32,60,60a5f9bf14d0aa2821c4bb84,,,,,1023,52.00001222,92.599996,1,0,0,response1disk,,7,14.40001166,7.799994737,1,0,0,rectangle,14.40001166,7.799994737,1,0,0,6,"[241,9,262,242,217,310,298,17,7,246,275,211,8,277,59,78,235,315,276,268]",14.40001166,7.799994737,1,0,0,1,48,209,129,1,,,
