key_resp.keys,key_resp.rt,key_resp_14.keys,key_resp_14.rt,key_resp_15.keys,key_resp_15.rt,key_resp_17.keys,key_resp_17.rt,key_resp_9.keys,key_resp_9.rt,key_resp_10.keys,key_resp_10.rt,practice_comparison,Ecc,mouse_5.x,mouse_5.y,mouse_5.leftButton,mouse_5.midButton,mouse_5.rightButton,mouse_5.clicked_name,pracsimilarity,response_time,mouse_10.x,mouse_10.y,mouse_10.leftButton,mouse_10.midButton,mouse_10.rightButton,mouse_10.clicked_name,mouse_7.x,mouse_7.y,mouse_7.leftButton,mouse_7.midButton,mouse_7.rightButton,catchnumberprac,mouse_6.x,mouse_6.y,mouse_6.leftButton,mouse_6.midButton,mouse_6.rightButton,duringprac.thisRepN,duringprac.thisTrialN,duringprac.thisN,duringprac.thisIndex,duringprac.ran,participant,session,date,expName,psychopyVersion,OS,frameRate,study_id,mouse_7.clicked_name,mouse_6.clicked_name,key_resp_22.keys,key_resp_22.rt,realcomparison,mouse.x,mouse.y,mouse.leftButton,mouse.midButton,mouse.rightButton,mouse.clicked_name,Colour2,similarity,mouse_2.x,mouse_2.y,mouse_2.leftButton,mouse_2.midButton,mouse_2.rightButton,mouse_2.clicked_name,mouse_3.x,mouse_3.y,mouse_3.leftButton,mouse_3.midButton,mouse_3.rightButton,catchnumber,catchtrialorder,mouse_11.x,mouse_11.y,mouse_11.leftButton,mouse_11.midButton,mouse_11.rightButton,trials_2.thisRepN,trials_2.thisTrialN,trials_2.thisN,trials_2.thisIndex,trials_2.ran,Colour1,mouse_3.clicked_name,mouse_11.clicked_name
space,1.57,space,23.315,space,219.159,space,9.735,space,5.217,space,8.183,44,FF,94,-29,1,0,0,response3disk_5,5,11.702,13,-1,1,0,0,rectangle_8,13,-1,1,0,0,7,13,-1,1,0,0,0,0,0,0,1,604b169fe4b7991ec08da3a6,60a7d7fabf9a9a712d038866,2021-05-21_17h56.59.075,Simcolourproject_2stim_asymm_v5,2020.2.10,MacIntel,60,60a5f9bf14d0aa2821c4bb84,,,,,,,,,,,,,,,,,,,,,,,,,,,,,,,,,,,,,,,
,,,,,,,,,,,,152,FF,-23,-86,1,0,0,response5disk_5,3,5.282,4,3,1,0,0,rectangle_8,4,3,1,0,0,7,4,3,1,0,0,0,1,1,3,1,604b169fe4b7991ec08da3a6,60a7d7fabf9a9a712d038866,2021-05-21_17h56.59.075,Simcolourproject_2stim_asymm_v5,2020.2.10,MacIntel,60,60a5f9bf14d0aa2821c4bb84,,,,,,,,,,,,,,,,,,,,,,,,,,,,,,,,,,,,,,,
,,,,,,,,,,,,79,PF,54,-32,1,0,0,response3disk_5,5,2.833,6,-1,1,0,0,rectangle_8,6,-1,1,0,0,7,6,-1,1,0,0,0,2,2,2,1,604b169fe4b7991ec08da3a6,60a7d7fabf9a9a712d038866,2021-05-21_17h56.59.075,Simcolourproject_2stim_asymm_v5,2020.2.10,MacIntel,60,60a5f9bf14d0aa2821c4bb84,,,,,,,,,,,,,,,,,,,,,,,,,,,,,,,,,,,,,,,
,,,,,,,,,,,,112,PF,49,-30,1,0,0,response3disk_5,5,0.966,1,-11,1,0,0,rectangle_8,1,-11,1,0,0,7,1,-11,1,0,0,0,3,3,4,1,604b169fe4b7991ec08da3a6,60a7d7fabf9a9a712d038866,2021-05-21_17h56.59.075,Simcolourproject_2stim_asymm_v5,2020.2.10,MacIntel,60,60a5f9bf14d0aa2821c4bb84,,,,,,,,,,,,,,,,,,,,,,,,,,,,,,,,,,,,,,,
,,,,,,,,,,,,7,FF,-78,-32,1,0,0,response5disk_5,5,2.134,-11,-2,1,0,0,rectangle_8,27,73,1,0,0,7,3,1,1,0,0,0,4,4,5,1,604b169fe4b7991ec08da3a6,60a7d7fabf9a9a712d038866,2021-05-21_17h56.59.075,Simcolourproject_2stim_asymm_v5,2020.2.10,MacIntel,60,60a5f9bf14d0aa2821c4bb84,response1disk_7,rectangle_4,,,,,,,,,,,,,,,,,,,,,,,,,,,,,,,,,,,,,
,,,,,,,,,,,,12,PF,-27,-71,1,0,0,response5disk_5,3,2.75,-8,-9,1,0,0,rectangle_8,-8,-9,1,0,0,7,-8,-9,1,0,0,0,5,5,6,1,604b169fe4b7991ec08da3a6,60a7d7fabf9a9a712d038866,2021-05-21_17h56.59.075,Simcolourproject_2stim_asymm_v5,2020.2.10,MacIntel,60,60a5f9bf14d0aa2821c4bb84,,,,,,,,,,,,,,,,,,,,,,,,,,,,,,,,,,,,,,,
,,,,,,,,,,,,139,PF,45,-63,1,0,0,response3disk_5,4,3.299,7,-11,1,0,0,rectangle_8,7,-11,1,0,0,7,7,-11,1,0,0,0,6,6,1,1,604b169fe4b7991ec08da3a6,60a7d7fabf9a9a712d038866,2021-05-21_17h56.59.075,Simcolourproject_2stim_asymm_v5,2020.2.10,MacIntel,60,60a5f9bf14d0aa2821c4bb84,,,,,,,,,,,,,,,,,,,,,,,,,,,,,,,,,,,,,,,
,,,,,,,,,,,,,FF,,,,,,,,1.6,,,,,,,,,,,,,,,,,,,,,,,604b169fe4b7991ec08da3a6,60a7d7fabf9a9a712d038866,2021-05-21_17h56.59.075,Simcolourproject_2stim_asymm_v5,2020.2.10,MacIntel,60,60a5f9bf14d0aa2821c4bb84,,,space,97.436,4131,34,-73,1,0,0,response3disk,,4,5,-9,1,0,0,rectangle,5,-9,1,0,0,3,"[236,246,209,297,74,106,288,255,105,195,113,295,6,315,220,3,287,223,132,38]",5,-9,1,0,0,0,0,0,77,1,,,
,,,,,,,,,,,,,FF,,,,,,,,1.004,,,,,,,,,,,,,,,,,,,,,,,604b169fe4b7991ec08da3a6,60a7d7fabf9a9a712d038866,2021-05-21_17h56.59.075,Simcolourproject_2stim_asymm_v5,2020.2.10,MacIntel,60,60a5f9bf14d0aa2821c4bb84,,,,,1783,55,-33,1,0,0,response3disk,,5,7,4,1,0,0,rectangle,7,4,1,0,0,0,"[236,246,209,297,74,106,288,255,105,195,113,295,6,315,220,3,287,223,132,38]",7,4,1,0,0,0,1,1,68,1,,,
,,,,,,,,,,,,,FF,,,,,,,,1.1,,,,,,,,,,,,,,,,,,,,,,,604b169fe4b7991ec08da3a6,60a7d7fabf9a9a712d038866,2021-05-21_17h56.59.075,Simcolourproject_2stim_asymm_v5,2020.2.10,MacIntel,60,60a5f9bf14d0aa2821c4bb84,,,,,3087,29,63,1,0,0,response1disk,,7,-15,-8,1,0,0,rectangle,36,91,1,0,0,7,"[236,246,209,297,74,106,288,255,105,195,113,295,6,315,220,3,287,223,132,38]",14,3,1,0,0,0,2,2,136,1,,response1disk_3,rectangle
,,,,,,,,,,,,,FF,,,,,,,,2.899,,,,,,,,,,,,,,,,,,,,,,,604b169fe4b7991ec08da3a6,60a7d7fabf9a9a712d038866,2021-05-21_17h56.59.075,Simcolourproject_2stim_asymm_v5,2020.2.10,MacIntel,60,60a5f9bf14d0aa2821c4bb84,,,,,1185,-34,-73,1,0,0,response5disk,,3,-9,-5,1,0,0,rectangle,-9,-5,1,0,0,3,"[236,246,209,297,74,106,288,255,105,195,113,295,6,315,220,3,287,223,132,38]",-9,-5,1,0,0,0,3,3,41,1,,,
,,,,,,,,,,,,,FF,,,,,,,,3.684,,,,,,,,,,,,,,,,,,,,,,,604b169fe4b7991ec08da3a6,60a7d7fabf9a9a712d038866,2021-05-21_17h56.59.075,Simcolourproject_2stim_asymm_v5,2020.2.10,MacIntel,60,60a5f9bf14d0aa2821c4bb84,,,,,4293,-52,68,1,0,0,response7disk,,0,-15,2,1,0,0,rectangle,-15,2,1,0,0,7,"[236,246,209,297,74,106,288,255,105,195,113,295,6,315,220,3,287,223,132,38]",-15,2,1,0,0,0,4,4,116,1,,,
,,,,,,,,,,,,,FF,,,,,,,,1.316,,,,,,,,,,,,,,,,,,,,,,,604b169fe4b7991ec08da3a6,60a7d7fabf9a9a712d038866,2021-05-21_17h56.59.075,Simcolourproject_2stim_asymm_v5,2020.2.10,MacIntel,60,60a5f9bf14d0aa2821c4bb84,,,,,3329,-69,-29,1,0,0,response5disk,,0,-17,-13,1,0,0,rectangle,-73,31,1,0,0,1,"[236,246,209,297,74,106,288,255,105,195,113,295,6,315,220,3,287,223,132,38]",-28,10,1,0,0,0,5,5,10,1,,response7disk_3,rectangle
,,,,,,,,,,,,,FF,,,,,,,,3.066,,,,,,,,,,,,,,,,,,,,,,,604b169fe4b7991ec08da3a6,60a7d7fabf9a9a712d038866,2021-05-21_17h56.59.075,Simcolourproject_2stim_asymm_v5,2020.2.10,MacIntel,60,60a5f9bf14d0aa2821c4bb84,,,,,3960,83,21,1,0,0,response1disk,,6,-32,-2,1,0,0,rectangle,-32,-2,1,0,0,4,"[236,246,209,297,74,106,288,255,105,195,113,295,6,315,220,3,287,223,132,38]",-32,-2,1,0,0,0,6,6,50,1,,,
,,,,,,,,,,,,,FF,,,,,,,,1.65,,,,,,,,,,,,,,,,,,,,,,,604b169fe4b7991ec08da3a6,60a7d7fabf9a9a712d038866,2021-05-21_17h56.59.075,Simcolourproject_2stim_asymm_v5,2020.2.10,MacIntel,60,60a5f9bf14d0aa2821c4bb84,,,,,1,-35,-82,1,0,0,response5disk,,3,-17,-5,1,0,0,rectangle,-17,-5,1,0,0,7,"[236,246,209,297,74,106,288,255,105,195,113,295,6,315,220,3,287,223,132,38]",-17,-5,1,0,0,0,7,7,135,1,,,
,,,,,,,,,,,,,FF,,,,,,,,1.9,,,,,,,,,,,,,,,,,,,,,,,604b169fe4b7991ec08da3a6,60a7d7fabf9a9a712d038866,2021-05-21_17h56.59.075,Simcolourproject_2stim_asymm_v5,2020.2.10,MacIntel,60,60a5f9bf14d0aa2821c4bb84,,,,,3725,75,-34,1,0,0,response3disk,,5,2,-10,1,0,0,rectangle,2,-10,1,0,0,3,"[236,246,209,297,74,106,288,255,105,195,113,295,6,315,220,3,287,223,132,38]",2,-10,1,0,0,0,8,8,89,1,,,
,,,,,,,,,,,,,FF,,,,,,,,2.199,,,,,,,,,,,,,,,,,,,,,,,604b169fe4b7991ec08da3a6,60a7d7fabf9a9a712d038866,2021-05-21_17h56.59.075,Simcolourproject_2stim_asymm_v5,2020.2.10,MacIntel,60,60a5f9bf14d0aa2821c4bb84,,,,,837,49,-24,1,0,0,response3disk,,5,13,-7,1,0,0,rectangle,13,-7,1,0,0,3,"[236,246,209,297,74,106,288,255,105,195,113,295,6,315,220,3,287,223,132,38]",13,-7,1,0,0,0,9,9,114,1,,,
,,,,,,,,,,,,,FF,,,,,,,,2.151,,,,,,,,,,,,,,,,,,,,,,,604b169fe4b7991ec08da3a6,60a7d7fabf9a9a712d038866,2021-05-21_17h56.59.075,Simcolourproject_2stim_asymm_v5,2020.2.10,MacIntel,60,60a5f9bf14d0aa2821c4bb84,,,,,2650,21,-70,1,0,0,response3disk,,4,4,-11,1,0,0,rectangle,4,-11,1,0,0,2,"[236,246,209,297,74,106,288,255,105,195,113,295,6,315,220,3,287,223,132,38]",4,-11,1,0,0,0,10,10,145,1,,,
,,,,,,,,,,,,,FF,,,,,,,,1.166,,,,,,,,,,,,,,,,,,,,,,,604b169fe4b7991ec08da3a6,60a7d7fabf9a9a712d038866,2021-05-21_17h56.59.075,Simcolourproject_2stim_asymm_v5,2020.2.10,MacIntel,60,60a5f9bf14d0aa2821c4bb84,,,,,1683,28,-55,1,0,0,response3disk,,4,14,-9,1,0,0,rectangle,14,-9,1,0,0,2,"[236,246,209,297,74,106,288,255,105,195,113,295,6,315,220,3,287,223,132,38]",14,-9,1,0,0,0,11,11,95,1,,,
,,,,,,,,,,,,,FF,,,,,,,,1.052,,,,,,,,,,,,,,,,,,,,,,,604b169fe4b7991ec08da3a6,60a7d7fabf9a9a712d038866,2021-05-21_17h56.59.075,Simcolourproject_2stim_asymm_v5,2020.2.10,MacIntel,60,60a5f9bf14d0aa2821c4bb84,,,,,2328,50,-29,1,0,0,response3disk,,5,20,-13,1,0,0,rectangle,20,-13,1,0,0,4,"[236,246,209,297,74,106,288,255,105,195,113,295,6,315,220,3,287,223,132,38]",20,-13,1,0,0,0,12,12,105,1,,,
,,,,,,,,,,,,,FF,,,,,,,,1.183,,,,,,,,,,,,,,,,,,,,,,,604b169fe4b7991ec08da3a6,60a7d7fabf9a9a712d038866,2021-05-21_17h56.59.075,Simcolourproject_2stim_asymm_v5,2020.2.10,MacIntel,60,60a5f9bf14d0aa2821c4bb84,,,,,2481,-22,-70,1,0,0,response5disk,,3,-12,-16,1,0,0,rectangle,-12,-16,1,0,0,3,"[236,246,209,297,74,106,288,255,105,195,113,295,6,315,220,3,287,223,132,38]",-12,-16,1,0,0,0,13,13,4,1,,,
,,,,,,,,,,,,,FF,,,,,,,,1.7,,,,,,,,,,,,,,,,,,,,,,,604b169fe4b7991ec08da3a6,60a7d7fabf9a9a712d038866,2021-05-21_17h56.59.075,Simcolourproject_2stim_asymm_v5,2020.2.10,MacIntel,60,60a5f9bf14d0aa2821c4bb84,,,,,2364,-31,-55,1,0,0,response5disk,,3,-7,-8,1,0,0,rectangle,-7,-8,1,0,0,7,"[236,246,209,297,74,106,288,255,105,195,113,295,6,315,220,3,287,223,132,38]",-7,-8,1,0,0,0,14,14,129,1,,,
,,,,,,,,,,,,,FF,,,,,,,,2.066,,,,,,,,,,,,,,,,,,,,,,,604b169fe4b7991ec08da3a6,60a7d7fabf9a9a712d038866,2021-05-21_17h56.59.075,Simcolourproject_2stim_asymm_v5,2020.2.10,MacIntel,60,60a5f9bf14d0aa2821c4bb84,,,,,2749,34,-49,1,0,0,response3disk,,4,3,-12,1,0,0,rectangle,3,-12,1,0,0,2,"[236,246,209,297,74,106,288,255,105,195,113,295,6,315,220,3,287,223,132,38]",3,-12,1,0,0,0,15,15,104,1,,,
,,,,,,,,,,,,,FF,,,,,,,,0.851,,,,,,,,,,,,,,,,,,,,,,,604b169fe4b7991ec08da3a6,60a7d7fabf9a9a712d038866,2021-05-21_17h56.59.075,Simcolourproject_2stim_asymm_v5,2020.2.10,MacIntel,60,60a5f9bf14d0aa2821c4bb84,,,,,1762,-27,-65,1,0,0,response5disk,,3,-1,-1,1,0,0,rectangle,-1,-1,1,0,0,2,"[236,246,209,297,74,106,288,255,105,195,113,295,6,315,220,3,287,223,132,38]",-1,-1,1,0,0,0,16,16,97,1,,,
,,,,,,,,,,,,,FF,,,,,,,,2.3,,,,,,,,,,,,,,,,,,,,,,,604b169fe4b7991ec08da3a6,60a7d7fabf9a9a712d038866,2021-05-21_17h56.59.075,Simcolourproject_2stim_asymm_v5,2020.2.10,MacIntel,60,60a5f9bf14d0aa2821c4bb84,,,,,149,27,-54,1,0,0,response3disk,,4,12,11,1,0,0,rectangle,12,11,1,0,0,3,"[236,246,209,297,74,106,288,255,105,195,113,295,6,315,220,3,287,223,132,38]",12,11,1,0,0,0,17,17,126,1,,,
,,,,,,,,,,,,,FF,,,,,,,,1.833,,,,,,,,,,,,,,,,,,,,,,,604b169fe4b7991ec08da3a6,60a7d7fabf9a9a712d038866,2021-05-21_17h56.59.075,Simcolourproject_2stim_asymm_v5,2020.2.10,MacIntel,60,60a5f9bf14d0aa2821c4bb84,,,,,1881,72,-32,1,0,0,response3disk,,5,14,-14,1,0,0,rectangle,14,-14,1,0,0,3,"[236,246,209,297,74,106,288,255,105,195,113,295,6,315,220,3,287,223,132,38]",14,-14,1,0,0,0,18,18,71,1,,,
,,,,,,,,,,,,,FF,,,,,,,,1.451,,,,,,,,,,,,,,,,,,,,,,,604b169fe4b7991ec08da3a6,60a7d7fabf9a9a712d038866,2021-05-21_17h56.59.075,Simcolourproject_2stim_asymm_v5,2020.2.10,MacIntel,60,60a5f9bf14d0aa2821c4bb84,,,,,4262,50,-22,1,0,0,response3disk,,5,9,-15,1,0,0,rectangle,9,-15,1,0,0,7,"[236,246,209,297,74,106,288,255,105,195,113,295,6,315,220,3,287,223,132,38]",9,-15,1,0,0,0,19,19,94,1,,,
,,,,,,,,,,,,,FF,,,,,,,,0.782,,,,,,,,,,,,,,,,,,,,,,,604b169fe4b7991ec08da3a6,60a7d7fabf9a9a712d038866,2021-05-21_17h56.59.075,Simcolourproject_2stim_asymm_v5,2020.2.10,MacIntel,60,60a5f9bf14d0aa2821c4bb84,,,,,179,38,-22,1,0,0,response3disk,,5,10,-14,1,0,0,rectangle,10,-14,1,0,0,5,"[236,246,209,297,74,106,288,255,105,195,113,295,6,315,220,3,287,223,132,38]",10,-14,1,0,0,0,20,20,66,1,,,
,,,,,,,,,,,,,FF,,,,,,,,0.534,,,,,,,,,,,,,,,,,,,,,,,604b169fe4b7991ec08da3a6,60a7d7fabf9a9a712d038866,2021-05-21_17h56.59.075,Simcolourproject_2stim_asymm_v5,2020.2.10,MacIntel,60,60a5f9bf14d0aa2821c4bb84,,,,,2888,53,-34,1,0,0,response3disk,,5,19,-12,1,0,0,rectangle,19,-12,1,0,0,6,"[236,246,209,297,74,106,288,255,105,195,113,295,6,315,220,3,287,223,132,38]",19,-12,1,0,0,0,21,21,53,1,,,
,,,,,,,,,,,,,FF,,,,,,,,1.216,,,,,,,,,,,,,,,,,,,,,,,604b169fe4b7991ec08da3a6,60a7d7fabf9a9a712d038866,2021-05-21_17h56.59.075,Simcolourproject_2stim_asymm_v5,2020.2.10,MacIntel,60,60a5f9bf14d0aa2821c4bb84,,,,,1286,-29,-49,1,0,0,response5disk,,3,-21,-9,1,0,0,rectangle,-21,-9,1,0,0,5,"[236,246,209,297,74,106,288,255,105,195,113,295,6,315,220,3,287,223,132,38]",-21,-9,1,0,0,0,22,22,98,1,,,
,,,,,,,,,,,,,FF,,,,,,,,1.349,,,,,,,,,,,,,,,,,,,,,,,604b169fe4b7991ec08da3a6,60a7d7fabf9a9a712d038866,2021-05-21_17h56.59.075,Simcolourproject_2stim_asymm_v5,2020.2.10,MacIntel,60,60a5f9bf14d0aa2821c4bb84,,,,,2833,-46,-34,1,0,0,response5disk,,3,-8,-13,1,0,0,rectangle,-8,-13,1,0,0,6,"[236,246,209,297,74,106,288,255,105,195,113,295,6,315,220,3,287,223,132,38]",-8,-13,1,0,0,0,23,23,67,1,,,
,,,,,,,,,,,,,FF,,,,,,,,1.367,,,,,,,,,,,,,,,,,,,,,,,604b169fe4b7991ec08da3a6,60a7d7fabf9a9a712d038866,2021-05-21_17h56.59.075,Simcolourproject_2stim_asymm_v5,2020.2.10,MacIntel,60,60a5f9bf14d0aa2821c4bb84,,,,,2878,33,-66,1,0,0,response3disk,,4,13,-17,1,0,0,rectangle,13,-17,1,0,0,6,"[236,246,209,297,74,106,288,255,105,195,113,295,6,315,220,3,287,223,132,38]",13,-17,1,0,0,0,24,24,154,1,,,
,,,,,,,,,,,,,FF,,,,,,,,0.784,,,,,,,,,,,,,,,,,,,,,,,604b169fe4b7991ec08da3a6,60a7d7fabf9a9a712d038866,2021-05-21_17h56.59.075,Simcolourproject_2stim_asymm_v5,2020.2.10,MacIntel,60,60a5f9bf14d0aa2821c4bb84,,,,,553,33,-55,1,0,0,response3disk,,4,14,-9,1,0,0,rectangle,14,-9,1,0,0,2,"[236,246,209,297,74,106,288,255,105,195,113,295,6,315,220,3,287,223,132,38]",14,-9,1,0,0,0,25,25,15,1,,,
,,,,,,,,,,,,,FF,,,,,,,,1.033,,,,,,,,,,,,,,,,,,,,,,,604b169fe4b7991ec08da3a6,60a7d7fabf9a9a712d038866,2021-05-21_17h56.59.075,Simcolourproject_2stim_asymm_v5,2020.2.10,MacIntel,60,60a5f9bf14d0aa2821c4bb84,,,,,1416,37,-27,1,0,0,response3disk,,5,11,-12,1,0,0,rectangle,11,-12,1,0,0,2,"[236,246,209,297,74,106,288,255,105,195,113,295,6,315,220,3,287,223,132,38]",11,-12,1,0,0,0,26,26,115,1,,,
,,,,,,,,,,,,,FF,,,,,,,,0.918,,,,,,,,,,,,,,,,,,,,,,,604b169fe4b7991ec08da3a6,60a7d7fabf9a9a712d038866,2021-05-21_17h56.59.075,Simcolourproject_2stim_asymm_v5,2020.2.10,MacIntel,60,60a5f9bf14d0aa2821c4bb84,,,,,2307,23,-64,1,0,0,response3disk,,4,11,-16,1,0,0,rectangle,11,-16,1,0,0,1,"[236,246,209,297,74,106,288,255,105,195,113,295,6,315,220,3,287,223,132,38]",11,-16,1,0,0,0,27,27,11,1,,,
,,,,,,,,,,,,,FF,,,,,,,,1.282,,,,,,,,,,,,,,,,,,,,,,,604b169fe4b7991ec08da3a6,60a7d7fabf9a9a712d038866,2021-05-21_17h56.59.075,Simcolourproject_2stim_asymm_v5,2020.2.10,MacIntel,60,60a5f9bf14d0aa2821c4bb84,,,,,1237,-18,-61,1,0,0,response5disk,,3,-14,-6,1,0,0,rectangle,-14,-6,1,0,0,1,"[236,246,209,297,74,106,288,255,105,195,113,295,6,315,220,3,287,223,132,38]",-14,-6,1,0,0,0,28,28,155,1,,,
,,,,,,,,,,,,,FF,,,,,,,,2.216,,,,,,,,,,,,,,,,,,,,,,,604b169fe4b7991ec08da3a6,60a7d7fabf9a9a712d038866,2021-05-21_17h56.59.075,Simcolourproject_2stim_asymm_v5,2020.2.10,MacIntel,60,60a5f9bf14d0aa2821c4bb84,,,,,2464,61,-33,1,0,0,response3disk,,5,-2,-6,1,0,0,rectangle,-2,-6,1,0,0,7,"[236,246,209,297,74,106,288,255,105,195,113,295,6,315,220,3,287,223,132,38]",-2,-6,1,0,0,0,29,29,21,1,,,
,,,,,,,,,,,,,FF,,,,,,,,2.917,,,,,,,,,,,,,,,,,,,,,,,604b169fe4b7991ec08da3a6,60a7d7fabf9a9a712d038866,2021-05-21_17h56.59.075,Simcolourproject_2stim_asymm_v5,2020.2.10,MacIntel,60,60a5f9bf14d0aa2821c4bb84,,,,,2088,38,-49,1,0,0,response3disk,,4,4,15,1,0,0,rectangle,4,15,1,0,0,3,"[236,246,209,297,74,106,288,255,105,195,113,295,6,315,220,3,287,223,132,38]",4,15,1,0,0,0,30,30,137,1,,,
,,,,,,,,,,,,,FF,,,,,,,,1.633,,,,,,,,,,,,,,,,,,,,,,,604b169fe4b7991ec08da3a6,60a7d7fabf9a9a712d038866,2021-05-21_17h56.59.075,Simcolourproject_2stim_asymm_v5,2020.2.10,MacIntel,60,60a5f9bf14d0aa2821c4bb84,,,,,86,78,-34,1,0,0,response3disk,,5,19,-12,1,0,0,rectangle,19,-12,1,0,0,0,"[236,246,209,297,74,106,288,255,105,195,113,295,6,315,220,3,287,223,132,38]",19,-12,1,0,0,0,31,31,150,1,,,
,,,,,,,,,,,,,FF,,,,,,,,0.8,,,,,,,,,,,,,,,,,,,,,,,604b169fe4b7991ec08da3a6,60a7d7fabf9a9a712d038866,2021-05-21_17h56.59.075,Simcolourproject_2stim_asymm_v5,2020.2.10,MacIntel,60,60a5f9bf14d0aa2821c4bb84,,,,,1551,55,26,1,0,0,response1disk,,6,4,11,1,0,0,rectangle,4,11,1,0,0,0,"[236,246,209,297,74,106,288,255,105,195,113,295,6,315,220,3,287,223,132,38]",4,11,1,0,0,0,32,32,120,1,,,
,,,,,,,,,,,,,FF,,,,,,,,3.532,,,,,,,,,,,,,,,,,,,,,,,604b169fe4b7991ec08da3a6,60a7d7fabf9a9a712d038866,2021-05-21_17h56.59.075,Simcolourproject_2stim_asymm_v5,2020.2.10,MacIntel,60,60a5f9bf14d0aa2821c4bb84,,,,,2048,53,35,1,0,0,response1disk,,6,20,4,1,0,0,rectangle,20,4,1,0,0,5,"[236,246,209,297,74,106,288,255,105,195,113,295,6,315,220,3,287,223,132,38]",20,4,1,0,0,0,33,33,88,1,,,
,,,,,,,,,,,,,FF,,,,,,,,0.916,,,,,,,,,,,,,,,,,,,,,,,604b169fe4b7991ec08da3a6,60a7d7fabf9a9a712d038866,2021-05-21_17h56.59.075,Simcolourproject_2stim_asymm_v5,2020.2.10,MacIntel,60,60a5f9bf14d0aa2821c4bb84,,,,,839,60,24,1,0,0,response1disk,,6,23,-4,1,0,0,rectangle,23,-4,1,0,0,3,"[236,246,209,297,74,106,288,255,105,195,113,295,6,315,220,3,287,223,132,38]",23,-4,1,0,0,0,34,34,19,1,,,
,,,,,,,,,,,,,FF,,,,,,,,3.432,,,,,,,,,,,,,,,,,,,,,,,604b169fe4b7991ec08da3a6,60a7d7fabf9a9a712d038866,2021-05-21_17h56.59.075,Simcolourproject_2stim_asymm_v5,2020.2.10,MacIntel,60,60a5f9bf14d0aa2821c4bb84,,,,,4264,66,-22,1,0,0,response3disk,,5,3,4,1,0,0,rectangle,3,4,1,0,0,1,"[236,246,209,297,74,106,288,255,105,195,113,295,6,315,220,3,287,223,132,38]",3,4,1,0,0,0,35,35,17,1,,,
,,,,,,,,,,,,,FF,,,,,,,,2.116,,,,,,,,,,,,,,,,,,,,,,,604b169fe4b7991ec08da3a6,60a7d7fabf9a9a712d038866,2021-05-21_17h56.59.075,Simcolourproject_2stim_asymm_v5,2020.2.10,MacIntel,60,60a5f9bf14d0aa2821c4bb84,,,,,796,55,26,1,0,0,response1disk,,6,21,8,1,0,0,rectangle,21,8,1,0,0,0,"[236,246,209,297,74,106,288,255,105,195,113,295,6,315,220,3,287,223,132,38]",21,8,1,0,0,0,36,36,93,1,,,
,,,,,,,,,,,,,FF,,,,,,,,0.667,,,,,,,,,,,,,,,,,,,,,,,604b169fe4b7991ec08da3a6,60a7d7fabf9a9a712d038866,2021-05-21_17h56.59.075,Simcolourproject_2stim_asymm_v5,2020.2.10,MacIntel,60,60a5f9bf14d0aa2821c4bb84,,,,,1786,49,27,1,0,0,response1disk,,6,11,1,1,0,0,rectangle,-73,-34,1,0,0,2,"[236,246,209,297,74,106,288,255,105,195,113,295,6,315,220,3,287,223,132,38]",-13,-6,1,0,0,0,37,37,63,1,,response5disk_3,rectangle
,,,,,,,,,,,,,FF,,,,,,,,2.083,,,,,,,,,,,,,,,,,,,,,,,604b169fe4b7991ec08da3a6,60a7d7fabf9a9a712d038866,2021-05-21_17h56.59.075,Simcolourproject_2stim_asymm_v5,2020.2.10,MacIntel,60,60a5f9bf14d0aa2821c4bb84,,,,,1898,-18,-48,1,0,0,response5disk,,3,-11,2,1,0,0,rectangle,-11,2,1,0,0,1,"[236,246,209,297,74,106,288,255,105,195,113,295,6,315,220,3,287,223,132,38]",-11,2,1,0,0,0,38,38,100,1,,,
,,,,,,,,,,,,,FF,,,,,,,,1.583,,,,,,,,,,,,,,,,,,,,,,,604b169fe4b7991ec08da3a6,60a7d7fabf9a9a712d038866,2021-05-21_17h56.59.075,Simcolourproject_2stim_asymm_v5,2020.2.10,MacIntel,60,60a5f9bf14d0aa2821c4bb84,,,,,2063,19,-90,1,0,0,response3disk,,4,2,-2,1,0,0,rectangle,2,-2,1,0,0,5,"[236,246,209,297,74,106,288,255,105,195,113,295,6,315,220,3,287,223,132,38]",2,-2,1,0,0,0,39,39,5,1,,,
,,,,,,,,,,,,,FF,,,,,,,,0.983,,,,,,,,,,,,,,,,,,,,,,,604b169fe4b7991ec08da3a6,60a7d7fabf9a9a712d038866,2021-05-21_17h56.59.075,Simcolourproject_2stim_asymm_v5,2020.2.10,MacIntel,60,60a5f9bf14d0aa2821c4bb84,,,,,1622,55,26,1,0,0,response1disk,,6,20,1,1,0,0,rectangle,20,1,1,0,0,7,"[236,246,209,297,74,106,288,255,105,195,113,295,6,315,220,3,287,223,132,38]",20,1,1,0,0,0,40,40,130,1,,,
,,,,,,,,,,,,,FF,,,,,,,,0.918,,,,,,,,,,,,,,,,,,,,,,,604b169fe4b7991ec08da3a6,60a7d7fabf9a9a712d038866,2021-05-21_17h56.59.075,Simcolourproject_2stim_asymm_v5,2020.2.10,MacIntel,60,60a5f9bf14d0aa2821c4bb84,,,,,208,48,24,1,0,0,response1disk,,6,23,-3,1,0,0,rectangle,23,-3,1,0,0,6,"[236,246,209,297,74,106,288,255,105,195,113,295,6,315,220,3,287,223,132,38]",23,-3,1,0,0,0,41,41,20,1,,,
,,,,,,,,,,,,,FF,,,,,,,,2.2,,,,,,,,,,,,,,,,,,,,,,,604b169fe4b7991ec08da3a6,60a7d7fabf9a9a712d038866,2021-05-21_17h56.59.075,Simcolourproject_2stim_asymm_v5,2020.2.10,MacIntel,60,60a5f9bf14d0aa2821c4bb84,,,,,108,44,-24,1,0,0,response3disk,,5,17,-7,1,0,0,rectangle,17,-7,1,0,0,7,"[236,246,209,297,74,106,288,255,105,195,113,295,6,315,220,3,287,223,132,38]",17,-7,1,0,0,0,42,42,158,1,,,
,,,,,,,,,,,,,FF,,,,,,,,5.366,,,,,,,,,,,,,,,,,,,,,,,604b169fe4b7991ec08da3a6,60a7d7fabf9a9a712d038866,2021-05-21_17h56.59.075,Simcolourproject_2stim_asymm_v5,2020.2.10,MacIntel,60,60a5f9bf14d0aa2821c4bb84,,,,,270,55,-68,1,0,0,response3disk,,4,22,-15,1,0,0,rectangle,22,-15,1,0,0,2,"[236,246,209,297,74,106,288,255,105,195,113,295,6,315,220,3,287,223,132,38]",22,-15,1,0,0,0,43,43,48,1,,,
,,,,,,,,,,,,,FF,,,,,,,,1.867,,,,,,,,,,,,,,,,,,,,,,,604b169fe4b7991ec08da3a6,60a7d7fabf9a9a712d038866,2021-05-21_17h56.59.075,Simcolourproject_2stim_asymm_v5,2020.2.10,MacIntel,60,60a5f9bf14d0aa2821c4bb84,,,,,3261,-18,-63,1,0,0,response5disk,,3,11,15,1,0,0,rectangle,11,15,1,0,0,6,"[236,246,209,297,74,106,288,255,105,195,113,295,6,315,220,3,287,223,132,38]",11,15,1,0,0,0,44,44,139,1,,,
,,,,,,,,,,,,,FF,,,,,,,,1.584,,,,,,,,,,,,,,,,,,,,,,,604b169fe4b7991ec08da3a6,60a7d7fabf9a9a712d038866,2021-05-21_17h56.59.075,Simcolourproject_2stim_asymm_v5,2020.2.10,MacIntel,60,60a5f9bf14d0aa2821c4bb84,,,,,3336,31,-48,1,0,0,response3disk,,4,20,-2,1,0,0,rectangle,20,-2,1,0,0,0,"[236,246,209,297,74,106,288,255,105,195,113,295,6,315,220,3,287,223,132,38]",20,-2,1,0,0,0,45,45,32,1,,,
,,,,,,,,,,,,,FF,,,,,,,,1.551,,,,,,,,,,,,,,,,,,,,,,,604b169fe4b7991ec08da3a6,60a7d7fabf9a9a712d038866,2021-05-21_17h56.59.075,Simcolourproject_2stim_asymm_v5,2020.2.10,MacIntel,60,60a5f9bf14d0aa2821c4bb84,,,,,2912,47,24,1,0,0,response1disk,,6,19,11,1,0,0,rectangle,19,11,1,0,0,1,"[236,246,209,297,74,106,288,255,105,195,113,295,6,315,220,3,287,223,132,38]",19,11,1,0,0,0,46,46,106,1,,,
,,,,,,,,,,,,,FF,,,,,,,,1.316,,,,,,,,,,,,,,,,,,,,,,,604b169fe4b7991ec08da3a6,60a7d7fabf9a9a712d038866,2021-05-21_17h56.59.075,Simcolourproject_2stim_asymm_v5,2020.2.10,MacIntel,60,60a5f9bf14d0aa2821c4bb84,,,,,683,32,-50,1,0,0,response3disk,,4,18,-10,1,0,0,rectangle,18,-10,1,0,0,7,"[236,246,209,297,74,106,288,255,105,195,113,295,6,315,220,3,287,223,132,38]",18,-10,1,0,0,0,47,47,91,1,,,
,,,,,,,,,,,,,FF,,,,,,,,1.066,,,,,,,,,,,,,,,,,,,,,,,604b169fe4b7991ec08da3a6,60a7d7fabf9a9a712d038866,2021-05-21_17h56.59.075,Simcolourproject_2stim_asymm_v5,2020.2.10,MacIntel,60,60a5f9bf14d0aa2821c4bb84,,,,,2188,38,-27,1,0,0,response3disk,,5,14,-17,1,0,0,rectangle,14,-17,1,0,0,6,"[236,246,209,297,74,106,288,255,105,195,113,295,6,315,220,3,287,223,132,38]",14,-17,1,0,0,0,48,48,142,1,,,
,,,,,,,,,,,,,FF,,,,,,,,0.967,,,,,,,,,,,,,,,,,,,,,,,604b169fe4b7991ec08da3a6,60a7d7fabf9a9a712d038866,2021-05-21_17h56.59.075,Simcolourproject_2stim_asymm_v5,2020.2.10,MacIntel,60,60a5f9bf14d0aa2821c4bb84,,,,,604,34,-54,1,0,0,response3disk,,4,18,-7,1,0,0,rectangle,18,-7,1,0,0,0,"[236,246,209,297,74,106,288,255,105,195,113,295,6,315,220,3,287,223,132,38]",18,-7,1,0,0,0,49,49,113,1,,,
,,,,,,,,,,,,,FF,,,,,,,,0.734,,,,,,,,,,,,,,,,,,,,,,,604b169fe4b7991ec08da3a6,60a7d7fabf9a9a712d038866,2021-05-21_17h56.59.075,Simcolourproject_2stim_asymm_v5,2020.2.10,MacIntel,60,60a5f9bf14d0aa2821c4bb84,,,,,3014,39,-23,1,0,0,response3disk,,5,27,-11,1,0,0,rectangle,27,-11,1,0,0,4,"[236,246,209,297,74,106,288,255,105,195,113,295,6,315,220,3,287,223,132,38]",27,-11,1,0,0,0,50,50,140,1,,,
,,,,,,,,,,,,,FF,,,,,,,,2.166,,,,,,,,,,,,,,,,,,,,,,,604b169fe4b7991ec08da3a6,60a7d7fabf9a9a712d038866,2021-05-21_17h56.59.075,Simcolourproject_2stim_asymm_v5,2020.2.10,MacIntel,60,60a5f9bf14d0aa2821c4bb84,,,,,1471,22,-59,1,0,0,response3disk,,4,10,-5,1,0,0,rectangle,10,-5,1,0,0,0,"[236,246,209,297,74,106,288,255,105,195,113,295,6,315,220,3,287,223,132,38]",10,-5,1,0,0,0,51,51,35,1,,,
,,,,,,,,,,,,,FF,,,,,,,,1.4,,,,,,,,,,,,,,,,,,,,,,,604b169fe4b7991ec08da3a6,60a7d7fabf9a9a712d038866,2021-05-21_17h56.59.075,Simcolourproject_2stim_asymm_v5,2020.2.10,MacIntel,60,60a5f9bf14d0aa2821c4bb84,,,,,2137,44,-27,1,0,0,response3disk,,5,12,-4,1,0,0,rectangle,12,-4,1,0,0,3,"[236,246,209,297,74,106,288,255,105,195,113,295,6,315,220,3,287,223,132,38]",12,-4,1,0,0,0,52,52,39,1,,,
,,,,,,,,,,,,,FF,,,,,,,,1.5,,,,,,,,,,,,,,,,,,,,,,,604b169fe4b7991ec08da3a6,60a7d7fabf9a9a712d038866,2021-05-21_17h56.59.075,Simcolourproject_2stim_asymm_v5,2020.2.10,MacIntel,60,60a5f9bf14d0aa2821c4bb84,,,,,2662,-73,-29,1,0,0,response5disk,,5,-23,-8,1,0,0,rectangle,-23,-8,1,0,0,4,"[236,246,209,297,74,106,288,255,105,195,113,295,6,315,220,3,287,223,132,38]",-23,-8,1,0,0,0,53,53,73,1,,,
,,,,,,,,,,,,,FF,,,,,,,,2.016,,,,,,,,,,,,,,,,,,,,,,,604b169fe4b7991ec08da3a6,60a7d7fabf9a9a712d038866,2021-05-21_17h56.59.075,Simcolourproject_2stim_asymm_v5,2020.2.10,MacIntel,60,60a5f9bf14d0aa2821c4bb84,,,,,909,29,-44,1,0,0,response3disk,,4,9,-10,1,0,0,rectangle,9,-10,1,0,0,4,"[236,246,209,297,74,106,288,255,105,195,113,295,6,315,220,3,287,223,132,38]",9,-10,1,0,0,0,54,54,149,1,,,
,,,,,,,,,,,,,FF,,,,,,,,0.95,,,,,,,,,,,,,,,,,,,,,,,604b169fe4b7991ec08da3a6,60a7d7fabf9a9a712d038866,2021-05-21_17h56.59.075,Simcolourproject_2stim_asymm_v5,2020.2.10,MacIntel,60,60a5f9bf14d0aa2821c4bb84,,,,,1534,29,-48,1,0,0,response3disk,,4,12,-4,1,0,0,rectangle,12,-4,1,0,0,4,"[236,246,209,297,74,106,288,255,105,195,113,295,6,315,220,3,287,223,132,38]",12,-4,1,0,0,0,55,55,6,1,,,
,,,,,,,,,,,,,FF,,,,,,,,2.149,,,,,,,,,,,,,,,,,,,,,,,604b169fe4b7991ec08da3a6,60a7d7fabf9a9a712d038866,2021-05-21_17h56.59.075,Simcolourproject_2stim_asymm_v5,2020.2.10,MacIntel,60,60a5f9bf14d0aa2821c4bb84,,,,,633,-27,-42,1,0,0,response5disk,,3,-10,-5,1,0,0,rectangle,-10,-5,1,0,0,4,"[236,246,209,297,74,106,288,255,105,195,113,295,6,315,220,3,287,223,132,38]",-10,-5,1,0,0,0,56,56,24,1,,,
,,,,,,,,,,,,,FF,,,,,,,,1.267,,,,,,,,,,,,,,,,,,,,,,,604b169fe4b7991ec08da3a6,60a7d7fabf9a9a712d038866,2021-05-21_17h56.59.075,Simcolourproject_2stim_asymm_v5,2020.2.10,MacIntel,60,60a5f9bf14d0aa2821c4bb84,,,,,2450,52,-27,1,0,0,response3disk,,5,16,-18,1,0,0,rectangle,16,-18,1,0,0,4,"[236,246,209,297,74,106,288,255,105,195,113,295,6,315,220,3,287,223,132,38]",16,-18,1,0,0,0,57,57,59,1,,,
,,,,,,,,,,,,,FF,,,,,,,,0.965,,,,,,,,,,,,,,,,,,,,,,,604b169fe4b7991ec08da3a6,60a7d7fabf9a9a712d038866,2021-05-21_17h56.59.075,Simcolourproject_2stim_asymm_v5,2020.2.10,MacIntel,60,60a5f9bf14d0aa2821c4bb84,,,,,1991,65,41,1,0,0,response1disk,,6,21,14,1,0,0,rectangle,21,14,1,0,0,0,"[236,246,209,297,74,106,288,255,105,195,113,295,6,315,220,3,287,223,132,38]",21,14,1,0,0,0,58,58,0,1,,,
,,,,,,,,,,,,,FF,,,,,,,,2.087,,,,,,,,,,,,,,,,,,,,,,,604b169fe4b7991ec08da3a6,60a7d7fabf9a9a712d038866,2021-05-21_17h56.59.075,Simcolourproject_2stim_asymm_v5,2020.2.10,MacIntel,60,60a5f9bf14d0aa2821c4bb84,,,,,281,-20,-59,1,0,0,response5disk,,3,-9,-11,1,0,0,rectangle,-9,-11,1,0,0,3,"[236,246,209,297,74,106,288,255,105,195,113,295,6,315,220,3,287,223,132,38]",-9,-11,1,0,0,0,59,59,131,1,,,
,,,,,,,,,,,,,FF,,,,,,,,1.416,,,,,,,,,,,,,,,,,,,,,,,604b169fe4b7991ec08da3a6,60a7d7fabf9a9a712d038866,2021-05-21_17h56.59.075,Simcolourproject_2stim_asymm_v5,2020.2.10,MacIntel,60,60a5f9bf14d0aa2821c4bb84,,,,,87,53,-62,1,0,0,response3disk,,4,9,3,1,0,0,rectangle,9,3,1,0,0,4,"[236,246,209,297,74,106,288,255,105,195,113,295,6,315,220,3,287,223,132,38]",9,3,1,0,0,0,60,60,65,1,,,
,,,,,,,,,,,,,FF,,,,,,,,1.399,,,,,,,,,,,,,,,,,,,,,,,604b169fe4b7991ec08da3a6,60a7d7fabf9a9a712d038866,2021-05-21_17h56.59.075,Simcolourproject_2stim_asymm_v5,2020.2.10,MacIntel,60,60a5f9bf14d0aa2821c4bb84,,,,,2100,-55,27,1,0,0,response7disk,,1,-7,7,1,0,0,rectangle,-7,7,1,0,0,5,"[236,246,209,297,74,106,288,255,105,195,113,295,6,315,220,3,287,223,132,38]",-7,7,1,0,0,0,61,61,26,1,,,
,,,,,,,,,,,,,FF,,,,,,,,1.617,,,,,,,,,,,,,,,,,,,,,,,604b169fe4b7991ec08da3a6,60a7d7fabf9a9a712d038866,2021-05-21_17h56.59.075,Simcolourproject_2stim_asymm_v5,2020.2.10,MacIntel,60,60a5f9bf14d0aa2821c4bb84,,,,,2389,56,38,1,0,0,response1disk,,6,20,15,1,0,0,rectangle,20,15,1,0,0,5,"[236,246,209,297,74,106,288,255,105,195,113,295,6,315,220,3,287,223,132,38]",20,15,1,0,0,0,62,62,102,1,,,
,,,,,,,,,,,,,FF,,,,,,,,2.05,,,,,,,,,,,,,,,,,,,,,,,604b169fe4b7991ec08da3a6,60a7d7fabf9a9a712d038866,2021-05-21_17h56.59.075,Simcolourproject_2stim_asymm_v5,2020.2.10,MacIntel,60,60a5f9bf14d0aa2821c4bb84,,,,,489,20,-64,1,0,0,response3disk,,4,11,11,1,0,0,rectangle,11,11,1,0,0,2,"[236,246,209,297,74,106,288,255,105,195,113,295,6,315,220,3,287,223,132,38]",11,11,1,0,0,0,63,63,9,1,,,
,,,,,,,,,,,,,FF,,,,,,,,1.083,,,,,,,,,,,,,,,,,,,,,,,604b169fe4b7991ec08da3a6,60a7d7fabf9a9a712d038866,2021-05-21_17h56.59.075,Simcolourproject_2stim_asymm_v5,2020.2.10,MacIntel,60,60a5f9bf14d0aa2821c4bb84,,,,,3429,-26,-54,1,0,0,response5disk,,3,-7,-6,1,0,0,rectangle,-7,-6,1,0,0,0,"[236,246,209,297,74,106,288,255,105,195,113,295,6,315,220,3,287,223,132,38]",-7,-6,1,0,0,0,64,64,45,1,,,
,,,,,,,,,,,,,FF,,,,,,,,1.133,,,,,,,,,,,,,,,,,,,,,,,604b169fe4b7991ec08da3a6,60a7d7fabf9a9a712d038866,2021-05-21_17h56.59.075,Simcolourproject_2stim_asymm_v5,2020.2.10,MacIntel,60,60a5f9bf14d0aa2821c4bb84,,,,,3266,-23,-59,1,0,0,response5disk,,3,0,4,1,0,0,rectangle,0,4,1,0,0,3,"[236,246,209,297,74,106,288,255,105,195,113,295,6,315,220,3,287,223,132,38]",0,4,1,0,0,0,65,65,57,1,,,
,,,,,,,,,,,,,FF,,,,,,,,1.517,,,,,,,,,,,,,,,,,,,,,,,604b169fe4b7991ec08da3a6,60a7d7fabf9a9a712d038866,2021-05-21_17h56.59.075,Simcolourproject_2stim_asymm_v5,2020.2.10,MacIntel,60,60a5f9bf14d0aa2821c4bb84,,,,,1308,-59,-21,1,0,0,response5disk,,3,-10,3,1,0,0,rectangle,-10,3,1,0,0,2,"[236,246,209,297,74,106,288,255,105,195,113,295,6,315,220,3,287,223,132,38]",-10,3,1,0,0,0,66,66,60,1,,,
,,,,,,,,,,,,,FF,,,,,,,,1,,,,,,,,,,,,,,,,,,,,,,,604b169fe4b7991ec08da3a6,60a7d7fabf9a9a712d038866,2021-05-21_17h56.59.075,Simcolourproject_2stim_asymm_v5,2020.2.10,MacIntel,60,60a5f9bf14d0aa2821c4bb84,,,,,4077,53,-21,1,0,0,response3disk,,5,15,-15,1,0,0,rectangle,15,-15,1,0,0,1,"[236,246,209,297,74,106,288,255,105,195,113,295,6,315,220,3,287,223,132,38]",15,-15,1,0,0,0,67,67,82,1,,,
,,,,,,,,,,,,,FF,,,,,,,,1.283,,,,,,,,,,,,,,,,,,,,,,,604b169fe4b7991ec08da3a6,60a7d7fabf9a9a712d038866,2021-05-21_17h56.59.075,Simcolourproject_2stim_asymm_v5,2020.2.10,MacIntel,60,60a5f9bf14d0aa2821c4bb84,,,,,3056,-30,-51,1,0,0,response5disk,,3,0,-4,1,0,0,rectangle,0,-4,1,0,0,7,"[236,246,209,297,74,106,288,255,105,195,113,295,6,315,220,3,287,223,132,38]",0,-4,1,0,0,0,68,68,148,1,,,
,,,,,,,,,,,,,FF,,,,,,,,3.397,,,,,,,,,,,,,,,,,,,,,,,604b169fe4b7991ec08da3a6,60a7d7fabf9a9a712d038866,2021-05-21_17h56.59.075,Simcolourproject_2stim_asymm_v5,2020.2.10,MacIntel,60,60a5f9bf14d0aa2821c4bb84,,,,,3564,-25,-45,1,0,0,response5disk,,3,-9,7,1,0,0,rectangle,-9,7,1,0,0,0,"[236,246,209,297,74,106,288,255,105,195,113,295,6,315,220,3,287,223,132,38]",-9,7,1,0,0,0,69,69,107,1,,,
,,,,,,,,,,,,,FF,,,,,,,,20.783,,,,,,,,,,,,,,,,,,,,,,,604b169fe4b7991ec08da3a6,60a7d7fabf9a9a712d038866,2021-05-21_17h56.59.075,Simcolourproject_2stim_asymm_v5,2020.2.10,MacIntel,60,60a5f9bf14d0aa2821c4bb84,,,,,1938,50,-84,1,0,0,response3disk,,4,0,-11,1,0,0,rectangle,0,-11,1,0,0,4,"[236,246,209,297,74,106,288,255,105,195,113,295,6,315,220,3,287,223,132,38]",0,-11,1,0,0,0,70,70,121,1,,,
,,,,,,,,,,,,,FF,,,,,,,,1.134,,,,,,,,,,,,,,,,,,,,,,,604b169fe4b7991ec08da3a6,60a7d7fabf9a9a712d038866,2021-05-21_17h56.59.075,Simcolourproject_2stim_asymm_v5,2020.2.10,MacIntel,60,60a5f9bf14d0aa2821c4bb84,,,,,2868,90,-34,1,0,0,response3disk,,5,-10,9,1,0,0,rectangle,-10,9,1,0,0,7,"[236,246,209,297,74,106,288,255,105,195,113,295,6,315,220,3,287,223,132,38]",-10,9,1,0,0,0,71,71,133,1,,,
,,,,,,,,,,,,,FF,,,,,,,,1.1,,,,,,,,,,,,,,,,,,,,,,,604b169fe4b7991ec08da3a6,60a7d7fabf9a9a712d038866,2021-05-21_17h56.59.075,Simcolourproject_2stim_asymm_v5,2020.2.10,MacIntel,60,60a5f9bf14d0aa2821c4bb84,,,,,1349,56,-27,1,0,0,response3disk,,5,25,6,1,0,0,rectangle,25,6,1,0,0,5,"[236,246,209,297,74,106,288,255,105,195,113,295,6,315,220,3,287,223,132,38]",25,6,1,0,0,0,72,72,16,1,,,
,,,,,,,,,,,,,FF,,,,,,,,1.4,,,,,,,,,,,,,,,,,,,,,,,604b169fe4b7991ec08da3a6,60a7d7fabf9a9a712d038866,2021-05-21_17h56.59.075,Simcolourproject_2stim_asymm_v5,2020.2.10,MacIntel,60,60a5f9bf14d0aa2821c4bb84,,,,,78,-67,-33,1,0,0,response5disk,,5,-15,-5,1,0,0,rectangle,-69,-37,1,0,0,2,"[236,246,209,297,74,106,288,255,105,195,113,295,6,315,220,3,287,223,132,38]",-15,-9,1,0,0,0,73,73,18,1,,response5disk_3,rectangle
,,,,,,,,,,,,,FF,,,,,,,,1.916,,,,,,,,,,,,,,,,,,,,,,,604b169fe4b7991ec08da3a6,60a7d7fabf9a9a712d038866,2021-05-21_17h56.59.075,Simcolourproject_2stim_asymm_v5,2020.2.10,MacIntel,60,60a5f9bf14d0aa2821c4bb84,,,,,982,23,-53,1,0,0,response3disk,,4,5,-4,1,0,0,rectangle,5,-4,1,0,0,7,"[236,246,209,297,74,106,288,255,105,195,113,295,6,315,220,3,287,223,132,38]",5,-4,1,0,0,0,74,74,86,1,,,
,,,,,,,,,,,,,FF,,,,,,,,1.518,,,,,,,,,,,,,,,,,,,,,,,604b169fe4b7991ec08da3a6,60a7d7fabf9a9a712d038866,2021-05-21_17h56.59.075,Simcolourproject_2stim_asymm_v5,2020.2.10,MacIntel,60,60a5f9bf14d0aa2821c4bb84,,,,,504,29,-44,1,0,0,response3disk,,4,11,-13,1,0,0,rectangle,11,-13,1,0,0,1,"[236,246,209,297,74,106,288,255,105,195,113,295,6,315,220,3,287,223,132,38]",11,-13,1,0,0,0,75,75,99,1,,,
,,,,,,,,,,,,,FF,,,,,,,,1.467,,,,,,,,,,,,,,,,,,,,,,,604b169fe4b7991ec08da3a6,60a7d7fabf9a9a712d038866,2021-05-21_17h56.59.075,Simcolourproject_2stim_asymm_v5,2020.2.10,MacIntel,60,60a5f9bf14d0aa2821c4bb84,,,,,1338,71,-32,1,0,0,response3disk,,5,22,-14,1,0,0,rectangle,22,-14,1,0,0,4,"[236,246,209,297,74,106,288,255,105,195,113,295,6,315,220,3,287,223,132,38]",22,-14,1,0,0,0,76,76,31,1,,,
,,,,,,,,,,,,,FF,,,,,,,,1.382,,,,,,,,,,,,,,,,,,,,,,,604b169fe4b7991ec08da3a6,60a7d7fabf9a9a712d038866,2021-05-21_17h56.59.075,Simcolourproject_2stim_asymm_v5,2020.2.10,MacIntel,60,60a5f9bf14d0aa2821c4bb84,,,,,1927,57,29,1,0,0,response1disk,,6,27,8,1,0,0,rectangle,27,8,1,0,0,0,"[236,246,209,297,74,106,288,255,105,195,113,295,6,315,220,3,287,223,132,38]",27,8,1,0,0,0,77,77,84,1,,,
,,,,,,,,,,,,,FF,,,,,,,,1.217,,,,,,,,,,,,,,,,,,,,,,,604b169fe4b7991ec08da3a6,60a7d7fabf9a9a712d038866,2021-05-21_17h56.59.075,Simcolourproject_2stim_asymm_v5,2020.2.10,MacIntel,60,60a5f9bf14d0aa2821c4bb84,,,,,2946,-71,-29,1,0,0,response5disk,,6,-11,-8,1,0,0,rectangle,-11,-8,1,0,0,1,"[236,246,209,297,74,106,288,255,105,195,113,295,6,315,220,3,287,223,132,38]",-11,-8,1,0,0,0,78,78,87,1,,,
,,,,,,,,,,,,,FF,,,,,,,,1.349,,,,,,,,,,,,,,,,,,,,,,,604b169fe4b7991ec08da3a6,60a7d7fabf9a9a712d038866,2021-05-21_17h56.59.075,Simcolourproject_2stim_asymm_v5,2020.2.10,MacIntel,60,60a5f9bf14d0aa2821c4bb84,,,,,2462,75,-33,1,0,0,response3disk,,5,15,-18,1,0,0,rectangle,15,-18,1,0,0,7,"[236,246,209,297,74,106,288,255,105,195,113,295,6,315,220,3,287,223,132,38]",15,-18,1,0,0,0,79,79,38,1,,,
,,,,,,,,,,,,,FF,,,,,,,,1.483,,,,,,,,,,,,,,,,,,,,,,,604b169fe4b7991ec08da3a6,60a7d7fabf9a9a712d038866,2021-05-21_17h56.59.075,Simcolourproject_2stim_asymm_v5,2020.2.10,MacIntel,60,60a5f9bf14d0aa2821c4bb84,,,,,4338,33,-54,1,0,0,response3disk,,4,18,-13,1,0,0,rectangle,18,-13,1,0,0,4,"[236,246,209,297,74,106,288,255,105,195,113,295,6,315,220,3,287,223,132,38]",18,-13,1,0,0,0,80,80,46,1,,,
,,,,,,,,,,,,,FF,,,,,,,,1.966,,,,,,,,,,,,,,,,,,,,,,,604b169fe4b7991ec08da3a6,60a7d7fabf9a9a712d038866,2021-05-21_17h56.59.075,Simcolourproject_2stim_asymm_v5,2020.2.10,MacIntel,60,60a5f9bf14d0aa2821c4bb84,,,,,4219,-76,-35,1,0,0,response5disk,,4,-22,-10,1,0,0,rectangle,-22,-10,1,0,0,6,"[236,246,209,297,74,106,288,255,105,195,113,295,6,315,220,3,287,223,132,38]",-22,-10,1,0,0,0,81,81,14,1,,,
,,,,,,,,,,,,,FF,,,,,,,,1.652,,,,,,,,,,,,,,,,,,,,,,,604b169fe4b7991ec08da3a6,60a7d7fabf9a9a712d038866,2021-05-21_17h56.59.075,Simcolourproject_2stim_asymm_v5,2020.2.10,MacIntel,60,60a5f9bf14d0aa2821c4bb84,,,,,2643,50,20,1,0,0,response1disk,,6,22,11,1,0,0,rectangle,22,11,1,0,0,3,"[236,246,209,297,74,106,288,255,105,195,113,295,6,315,220,3,287,223,132,38]",22,11,1,0,0,0,82,82,78,1,,,
,,,,,,,,,,,,,FF,,,,,,,,1.636,,,,,,,,,,,,,,,,,,,,,,,604b169fe4b7991ec08da3a6,60a7d7fabf9a9a712d038866,2021-05-21_17h56.59.075,Simcolourproject_2stim_asymm_v5,2020.2.10,MacIntel,60,60a5f9bf14d0aa2821c4bb84,,,,,371,31,-64,1,0,0,response3disk,,4,4,-1,1,0,0,rectangle,4,-1,1,0,0,0,"[236,246,209,297,74,106,288,255,105,195,113,295,6,315,220,3,287,223,132,38]",4,-1,1,0,0,0,83,83,112,1,,,
,,,,,,,,,,,,,FF,,,,,,,,1.234,,,,,,,,,,,,,,,,,,,,,,,604b169fe4b7991ec08da3a6,60a7d7fabf9a9a712d038866,2021-05-21_17h56.59.075,Simcolourproject_2stim_asymm_v5,2020.2.10,MacIntel,60,60a5f9bf14d0aa2821c4bb84,,,,,3569,77,-34,1,0,0,response3disk,,5,23,-12,1,0,0,rectangle,23,-12,1,0,0,4,"[236,246,209,297,74,106,288,255,105,195,113,295,6,315,220,3,287,223,132,38]",23,-12,1,0,0,0,84,84,125,1,,,
,,,,,,,,,,,,,FF,,,,,,,,1.05,,,,,,,,,,,,,,,,,,,,,,,604b169fe4b7991ec08da3a6,60a7d7fabf9a9a712d038866,2021-05-21_17h56.59.075,Simcolourproject_2stim_asymm_v5,2020.2.10,MacIntel,60,60a5f9bf14d0aa2821c4bb84,,,,,1867,41,-34,1,0,0,response3disk,,5,25,-13,1,0,0,rectangle,25,-13,1,0,0,0,"[236,246,209,297,74,106,288,255,105,195,113,295,6,315,220,3,287,223,132,38]",25,-13,1,0,0,0,85,85,156,1,,,
,,,,,,,,,,,,,FF,,,,,,,,1.439,,,,,,,,,,,,,,,,,,,,,,,604b169fe4b7991ec08da3a6,60a7d7fabf9a9a712d038866,2021-05-21_17h56.59.075,Simcolourproject_2stim_asymm_v5,2020.2.10,MacIntel,60,60a5f9bf14d0aa2821c4bb84,,,,,2514,48,25,1,0,0,response1disk,,6,37,10,1,0,0,rectangle,37,10,1,0,0,6,"[236,246,209,297,74,106,288,255,105,195,113,295,6,315,220,3,287,223,132,38]",37,10,1,0,0,0,86,86,47,1,,,
,,,,,,,,,,,,,FF,,,,,,,,3.399,,,,,,,,,,,,,,,,,,,,,,,604b169fe4b7991ec08da3a6,60a7d7fabf9a9a712d038866,2021-05-21_17h56.59.075,Simcolourproject_2stim_asymm_v5,2020.2.10,MacIntel,60,60a5f9bf14d0aa2821c4bb84,,,,,1039,49,19,1,0,0,response1disk,,6,25,4,1,0,0,rectangle,25,4,1,0,0,0,"[236,246,209,297,74,106,288,255,105,195,113,295,6,315,220,3,287,223,132,38]",25,4,1,0,0,0,87,87,51,1,,,
,,,,,,,,,,,,,FF,,,,,,,,1.185,,,,,,,,,,,,,,,,,,,,,,,604b169fe4b7991ec08da3a6,60a7d7fabf9a9a712d038866,2021-05-21_17h56.59.075,Simcolourproject_2stim_asymm_v5,2020.2.10,MacIntel,60,60a5f9bf14d0aa2821c4bb84,,,,,3979,60,21,1,0,0,response1disk,,6,32,9,1,0,0,rectangle,32,9,1,0,0,5,"[236,246,209,297,74,106,288,255,105,195,113,295,6,315,220,3,287,223,132,38]",32,9,1,0,0,0,88,88,2,1,,,
,,,,,,,,,,,,,FF,,,,,,,,1.235,,,,,,,,,,,,,,,,,,,,,,,604b169fe4b7991ec08da3a6,60a7d7fabf9a9a712d038866,2021-05-21_17h56.59.075,Simcolourproject_2stim_asymm_v5,2020.2.10,MacIntel,60,60a5f9bf14d0aa2821c4bb84,,,,,3090,50,-25,1,0,0,response3disk,,5,12,-1,1,0,0,rectangle,12,-1,1,0,0,4,"[236,246,209,297,74,106,288,255,105,195,113,295,6,315,220,3,287,223,132,38]",12,-1,1,0,0,0,89,89,58,1,,,
,,,,,,,,,,,,,FF,,,,,,,,1.7,,,,,,,,,,,,,,,,,,,,,,,604b169fe4b7991ec08da3a6,60a7d7fabf9a9a712d038866,2021-05-21_17h56.59.075,Simcolourproject_2stim_asymm_v5,2020.2.10,MacIntel,60,60a5f9bf14d0aa2821c4bb84,,,,,1522,-60,-27,1,0,0,response5disk,,5,-18,-6,1,0,0,rectangle,-18,-6,1,0,0,2,"[236,246,209,297,74,106,288,255,105,195,113,295,6,315,220,3,287,223,132,38]",-18,-6,1,0,0,0,90,90,110,1,,,
,,,,,,,,,,,,,FF,,,,,,,,2.4,,,,,,,,,,,,,,,,,,,,,,,604b169fe4b7991ec08da3a6,60a7d7fabf9a9a712d038866,2021-05-21_17h56.59.075,Simcolourproject_2stim_asymm_v5,2020.2.10,MacIntel,60,60a5f9bf14d0aa2821c4bb84,,,,,314,49,22,1,0,0,response1disk,,6,20,-1,1,0,0,rectangle,20,-1,1,0,0,1,"[236,246,209,297,74,106,288,255,105,195,113,295,6,315,220,3,287,223,132,38]",20,-1,1,0,0,0,91,91,108,1,,,
,,,,,,,,,,,,,FF,,,,,,,,1.801,,,,,,,,,,,,,,,,,,,,,,,604b169fe4b7991ec08da3a6,60a7d7fabf9a9a712d038866,2021-05-21_17h56.59.075,Simcolourproject_2stim_asymm_v5,2020.2.10,MacIntel,60,60a5f9bf14d0aa2821c4bb84,,,,,3815,-48,-26,1,0,0,response5disk,,6,2,-3,1,0,0,rectangle,2,-3,1,0,0,2,"[236,246,209,297,74,106,288,255,105,195,113,295,6,315,220,3,287,223,132,38]",2,-3,1,0,0,0,92,92,8,1,,,
,,,,,,,,,,,,,FF,,,,,,,,1.651,,,,,,,,,,,,,,,,,,,,,,,604b169fe4b7991ec08da3a6,60a7d7fabf9a9a712d038866,2021-05-21_17h56.59.075,Simcolourproject_2stim_asymm_v5,2020.2.10,MacIntel,60,60a5f9bf14d0aa2821c4bb84,,,,,1525,-22,-48,1,0,0,response5disk,,3,-10,-12,1,0,0,rectangle,-10,-12,1,0,0,1,"[236,246,209,297,74,106,288,255,105,195,113,295,6,315,220,3,287,223,132,38]",-10,-12,1,0,0,0,93,93,40,1,,,
,,,,,,,,,,,,,FF,,,,,,,,1.601,,,,,,,,,,,,,,,,,,,,,,,604b169fe4b7991ec08da3a6,60a7d7fabf9a9a712d038866,2021-05-21_17h56.59.075,Simcolourproject_2stim_asymm_v5,2020.2.10,MacIntel,60,60a5f9bf14d0aa2821c4bb84,,,,,3697,43,56,1,0,0,response1disk,,7,22,2,1,0,0,rectangle,22,2,1,0,0,3,"[236,246,209,297,74,106,288,255,105,195,113,295,6,315,220,3,287,223,132,38]",22,2,1,0,0,0,94,94,151,1,,,
,,,,,,,,,,,,,FF,,,,,,,,4.084,,,,,,,,,,,,,,,,,,,,,,,604b169fe4b7991ec08da3a6,60a7d7fabf9a9a712d038866,2021-05-21_17h56.59.075,Simcolourproject_2stim_asymm_v5,2020.2.10,MacIntel,60,60a5f9bf14d0aa2821c4bb84,,,,,28,57,31,1,0,0,response1disk,,6,23,-4,1,0,0,rectangle,23,-4,1,0,0,0,"[236,246,209,297,74,106,288,255,105,195,113,295,6,315,220,3,287,223,132,38]",23,-4,1,0,0,0,95,95,44,1,,,
,,,,,,,,,,,,,FF,,,,,,,,0.85,,,,,,,,,,,,,,,,,,,,,,,604b169fe4b7991ec08da3a6,60a7d7fabf9a9a712d038866,2021-05-21_17h56.59.075,Simcolourproject_2stim_asymm_v5,2020.2.10,MacIntel,60,60a5f9bf14d0aa2821c4bb84,,,,,1474,55,31,1,0,0,response1disk,,6,29,14,1,0,0,rectangle,29,14,1,0,0,5,"[236,246,209,297,74,106,288,255,105,195,113,295,6,315,220,3,287,223,132,38]",29,14,1,0,0,0,96,96,62,1,,,
,,,,,,,,,,,,,FF,,,,,,,,1.416,,,,,,,,,,,,,,,,,,,,,,,604b169fe4b7991ec08da3a6,60a7d7fabf9a9a712d038866,2021-05-21_17h56.59.075,Simcolourproject_2stim_asymm_v5,2020.2.10,MacIntel,60,60a5f9bf14d0aa2821c4bb84,,,,,3077,48,-40,1,0,0,response3disk,,5,26,-6,1,0,0,rectangle,26,-6,1,0,0,5,"[236,246,209,297,74,106,288,255,105,195,113,295,6,315,220,3,287,223,132,38]",26,-6,1,0,0,0,97,97,72,1,,,
,,,,,,,,,,,,,FF,,,,,,,,0.968,,,,,,,,,,,,,,,,,,,,,,,604b169fe4b7991ec08da3a6,60a7d7fabf9a9a712d038866,2021-05-21_17h56.59.075,Simcolourproject_2stim_asymm_v5,2020.2.10,MacIntel,60,60a5f9bf14d0aa2821c4bb84,,,,,881,64,29,1,0,0,response1disk,,6,33,17,1,0,0,rectangle,33,17,1,0,0,1,"[236,246,209,297,74,106,288,255,105,195,113,295,6,315,220,3,287,223,132,38]",33,17,1,0,0,0,98,98,64,1,,,
,,,,,,,,,,,,,FF,,,,,,,,0.885,,,,,,,,,,,,,,,,,,,,,,,604b169fe4b7991ec08da3a6,60a7d7fabf9a9a712d038866,2021-05-21_17h56.59.075,Simcolourproject_2stim_asymm_v5,2020.2.10,MacIntel,60,60a5f9bf14d0aa2821c4bb84,,,,,2028,44,21,1,0,0,response1disk,,6,29,1,1,0,0,rectangle,29,1,1,0,0,4,"[236,246,209,297,74,106,288,255,105,195,113,295,6,315,220,3,287,223,132,38]",29,1,1,0,0,0,99,99,127,1,,,
,,,,,,,,,,,,,FF,,,,,,,,1.517,,,,,,,,,,,,,,,,,,,,,,,604b169fe4b7991ec08da3a6,60a7d7fabf9a9a712d038866,2021-05-21_17h56.59.075,Simcolourproject_2stim_asymm_v5,2020.2.10,MacIntel,60,60a5f9bf14d0aa2821c4bb84,,,,,614,25,57,1,0,0,response1disk,,7,18,11,1,0,0,rectangle,18,11,1,0,0,0,"[236,246,209,297,74,106,288,255,105,195,113,295,6,315,220,3,287,223,132,38]",18,11,1,0,0,0,100,100,118,1,,,
,,,,,,,,,,,,,FF,,,,,,,,1.118,,,,,,,,,,,,,,,,,,,,,,,604b169fe4b7991ec08da3a6,60a7d7fabf9a9a712d038866,2021-05-21_17h56.59.075,Simcolourproject_2stim_asymm_v5,2020.2.10,MacIntel,60,60a5f9bf14d0aa2821c4bb84,,,,,1770,54,-24,1,0,0,response3disk,,5,22,2,1,0,0,rectangle,22,2,1,0,0,7,"[236,246,209,297,74,106,288,255,105,195,113,295,6,315,220,3,287,223,132,38]",22,2,1,0,0,0,101,101,146,1,,,
,,,,,,,,,,,,,FF,,,,,,,,0.966,,,,,,,,,,,,,,,,,,,,,,,604b169fe4b7991ec08da3a6,60a7d7fabf9a9a712d038866,2021-05-21_17h56.59.075,Simcolourproject_2stim_asymm_v5,2020.2.10,MacIntel,60,60a5f9bf14d0aa2821c4bb84,,,,,2783,54,23,1,0,0,response1disk,,6,19,5,1,0,0,rectangle,19,5,1,0,0,7,"[236,246,209,297,74,106,288,255,105,195,113,295,6,315,220,3,287,223,132,38]",19,5,1,0,0,0,102,102,81,1,,,
,,,,,,,,,,,,,FF,,,,,,,,0.85,,,,,,,,,,,,,,,,,,,,,,,604b169fe4b7991ec08da3a6,60a7d7fabf9a9a712d038866,2021-05-21_17h56.59.075,Simcolourproject_2stim_asymm_v5,2020.2.10,MacIntel,60,60a5f9bf14d0aa2821c4bb84,,,,,1261,62,39,1,0,0,response1disk,,6,37,13,1,0,0,rectangle,37,13,1,0,0,0,"[236,246,209,297,74,106,288,255,105,195,113,295,6,315,220,3,287,223,132,38]",37,13,1,0,0,0,103,103,111,1,,,
,,,,,,,,,,,,,FF,,,,,,,,1.751,,,,,,,,,,,,,,,,,,,,,,,604b169fe4b7991ec08da3a6,60a7d7fabf9a9a712d038866,2021-05-21_17h56.59.075,Simcolourproject_2stim_asymm_v5,2020.2.10,MacIntel,60,60a5f9bf14d0aa2821c4bb84,,,,,1545,77,38,1,0,0,response1disk,,6,29,10,1,0,0,rectangle,26,83,1,0,0,7,"[236,246,209,297,74,106,288,255,105,195,113,295,6,315,220,3,287,223,132,38]",4,11,1,0,0,0,104,104,1,1,,response1disk_3,rectangle
,,,,,,,,,,,,,FF,,,,,,,,2.101,,,,,,,,,,,,,,,,,,,,,,,604b169fe4b7991ec08da3a6,60a7d7fabf9a9a712d038866,2021-05-21_17h56.59.075,Simcolourproject_2stim_asymm_v5,2020.2.10,MacIntel,60,60a5f9bf14d0aa2821c4bb84,,,,,3598,69,35,1,0,0,response1disk,,6,28,2,1,0,0,rectangle,-58,101,1,0,0,0,"[236,246,209,297,74,106,288,255,105,195,113,295,6,315,220,3,287,223,132,38]",-4,6,1,0,0,0,105,105,7,1,,response7disk_3,rectangle
,,,,,,,,,,,,,FF,,,,,,,,7.2,,,,,,,,,,,,,,,,,,,,,,,604b169fe4b7991ec08da3a6,60a7d7fabf9a9a712d038866,2021-05-21_17h56.59.075,Simcolourproject_2stim_asymm_v5,2020.2.10,MacIntel,60,60a5f9bf14d0aa2821c4bb84,,,,,1342,59,-34,1,0,0,response3disk,,5,-1,1,1,0,0,rectangle,-1,1,1,0,0,1,"[236,246,209,297,74,106,288,255,105,195,113,295,6,315,220,3,287,223,132,38]",-1,1,1,0,0,0,106,106,152,1,,,
,,,,,,,,,,,,,FF,,,,,,,,1.4,,,,,,,,,,,,,,,,,,,,,,,604b169fe4b7991ec08da3a6,60a7d7fabf9a9a712d038866,2021-05-21_17h56.59.075,Simcolourproject_2stim_asymm_v5,2020.2.10,MacIntel,60,60a5f9bf14d0aa2821c4bb84,,,,,3295,-91,29,1,0,0,response7disk,,1,-17,-1,1,0,0,rectangle,-17,-1,1,0,0,4,"[236,246,209,297,74,106,288,255,105,195,113,295,6,315,220,3,287,223,132,38]",-17,-1,1,0,0,0,107,107,36,1,,,
,,,,,,,,,,,,,FF,,,,,,,,1.383,,,,,,,,,,,,,,,,,,,,,,,604b169fe4b7991ec08da3a6,60a7d7fabf9a9a712d038866,2021-05-21_17h56.59.075,Simcolourproject_2stim_asymm_v5,2020.2.10,MacIntel,60,60a5f9bf14d0aa2821c4bb84,,,,,709,60,-46,1,0,0,response3disk,,5,-23,-2,1,0,0,rectangle,-23,-2,1,0,0,0,"[236,246,209,297,74,106,288,255,105,195,113,295,6,315,220,3,287,223,132,38]",-23,-2,1,0,0,0,108,108,23,1,,,
,,,,,,,,,,,,,FF,,,,,,,,2.35,,,,,,,,,,,,,,,,,,,,,,,604b169fe4b7991ec08da3a6,60a7d7fabf9a9a712d038866,2021-05-21_17h56.59.075,Simcolourproject_2stim_asymm_v5,2020.2.10,MacIntel,60,60a5f9bf14d0aa2821c4bb84,,,,,60,60,25,1,0,0,response1disk,,6,8,11,1,0,0,rectangle,8,11,1,0,0,4,"[236,246,209,297,74,106,288,255,105,195,113,295,6,315,220,3,287,223,132,38]",8,11,1,0,0,0,109,109,52,1,,,
,,,,,,,,,,,,,FF,,,,,,,,0.783,,,,,,,,,,,,,,,,,,,,,,,604b169fe4b7991ec08da3a6,60a7d7fabf9a9a712d038866,2021-05-21_17h56.59.075,Simcolourproject_2stim_asymm_v5,2020.2.10,MacIntel,60,60a5f9bf14d0aa2821c4bb84,,,,,4031,53,28,1,0,0,response1disk,,6,30,14,1,0,0,rectangle,30,14,1,0,0,5,"[236,246,209,297,74,106,288,255,105,195,113,295,6,315,220,3,287,223,132,38]",30,14,1,0,0,0,110,110,123,1,,,
,,,,,,,,,,,,,FF,,,,,,,,2.05,,,,,,,,,,,,,,,,,,,,,,,604b169fe4b7991ec08da3a6,60a7d7fabf9a9a712d038866,2021-05-21_17h56.59.075,Simcolourproject_2stim_asymm_v5,2020.2.10,MacIntel,60,60a5f9bf14d0aa2821c4bb84,,,,,865,32,-50,1,0,0,response3disk,,4,12,1,1,0,0,rectangle,12,1,1,0,0,4,"[236,246,209,297,74,106,288,255,105,195,113,295,6,315,220,3,287,223,132,38]",12,1,1,0,0,0,111,111,28,1,,,
,,,,,,,,,,,,,FF,,,,,,,,1.666,,,,,,,,,,,,,,,,,,,,,,,604b169fe4b7991ec08da3a6,60a7d7fabf9a9a712d038866,2021-05-21_17h56.59.075,Simcolourproject_2stim_asymm_v5,2020.2.10,MacIntel,60,60a5f9bf14d0aa2821c4bb84,,,,,2115,45,-25,1,0,0,response3disk,,5,8,-4,1,0,0,rectangle,36,-59,1,0,0,4,"[236,246,209,297,74,106,288,255,105,195,113,295,6,315,220,3,287,223,132,38]",14,0,1,0,0,0,112,112,22,1,,response3disk_3,rectangle
,,,,,,,,,,,,,FF,,,,,,,,1.566,,,,,,,,,,,,,,,,,,,,,,,604b169fe4b7991ec08da3a6,60a7d7fabf9a9a712d038866,2021-05-21_17h56.59.075,Simcolourproject_2stim_asymm_v5,2020.2.10,MacIntel,60,60a5f9bf14d0aa2821c4bb84,,,,,4339,36,61,1,0,0,response1disk,,7,12,-3,1,0,0,rectangle,12,-3,1,0,0,4,"[236,246,209,297,74,106,288,255,105,195,113,295,6,315,220,3,287,223,132,38]",12,-3,1,0,0,0,113,113,96,1,,,
,,,,,,,,,,,,,FF,,,,,,,,1.133,,,,,,,,,,,,,,,,,,,,,,,604b169fe4b7991ec08da3a6,60a7d7fabf9a9a712d038866,2021-05-21_17h56.59.075,Simcolourproject_2stim_asymm_v5,2020.2.10,MacIntel,60,60a5f9bf14d0aa2821c4bb84,,,,,220,50,-38,1,0,0,response3disk,,5,18,-12,1,0,0,rectangle,18,-12,1,0,0,4,"[236,246,209,297,74,106,288,255,105,195,113,295,6,315,220,3,287,223,132,38]",18,-12,1,0,0,0,114,114,103,1,,,
,,,,,,,,,,,,,FF,,,,,,,,0.9,,,,,,,,,,,,,,,,,,,,,,,604b169fe4b7991ec08da3a6,60a7d7fabf9a9a712d038866,2021-05-21_17h56.59.075,Simcolourproject_2stim_asymm_v5,2020.2.10,MacIntel,60,60a5f9bf14d0aa2821c4bb84,,,,,2299,-18,-45,1,0,0,response5disk,,3,-4,-1,1,0,0,rectangle,-4,-1,1,0,0,5,"[236,246,209,297,74,106,288,255,105,195,113,295,6,315,220,3,287,223,132,38]",-4,-1,1,0,0,0,115,115,49,1,,,
,,,,,,,,,,,,,FF,,,,,,,,1.717,,,,,,,,,,,,,,,,,,,,,,,604b169fe4b7991ec08da3a6,60a7d7fabf9a9a712d038866,2021-05-21_17h56.59.075,Simcolourproject_2stim_asymm_v5,2020.2.10,MacIntel,60,60a5f9bf14d0aa2821c4bb84,,,,,10,77,42,1,0,0,response1disk,,6,7,7,1,0,0,rectangle,7,7,1,0,0,3,"[236,246,209,297,74,106,288,255,105,195,113,295,6,315,220,3,287,223,132,38]",7,7,1,0,0,0,116,116,70,1,,,
,,,,,,,,,,,,,FF,,,,,,,,3.083,,,,,,,,,,,,,,,,,,,,,,,604b169fe4b7991ec08da3a6,60a7d7fabf9a9a712d038866,2021-05-21_17h56.59.075,Simcolourproject_2stim_asymm_v5,2020.2.10,MacIntel,60,60a5f9bf14d0aa2821c4bb84,,,,,769,48,24,1,0,0,response1disk,,6,29,7,1,0,0,rectangle,29,7,1,0,0,6,"[236,246,209,297,74,106,288,255,105,195,113,295,6,315,220,3,287,223,132,38]",29,7,1,0,0,0,117,117,12,1,,,
,,,,,,,,,,,,,FF,,,,,,,,1.25,,,,,,,,,,,,,,,,,,,,,,,604b169fe4b7991ec08da3a6,60a7d7fabf9a9a712d038866,2021-05-21_17h56.59.075,Simcolourproject_2stim_asymm_v5,2020.2.10,MacIntel,60,60a5f9bf14d0aa2821c4bb84,,,,,2974,32,73,1,0,0,response1disk,,7,27,13,1,0,0,rectangle,27,13,1,0,0,3,"[236,246,209,297,74,106,288,255,105,195,113,295,6,315,220,3,287,223,132,38]",27,13,1,0,0,0,118,118,101,1,,,
,,,,,,,,,,,,,FF,,,,,,,,0.999,,,,,,,,,,,,,,,,,,,,,,,604b169fe4b7991ec08da3a6,60a7d7fabf9a9a712d038866,2021-05-21_17h56.59.075,Simcolourproject_2stim_asymm_v5,2020.2.10,MacIntel,60,60a5f9bf14d0aa2821c4bb84,,,,,916,37,75,1,0,0,response1disk,,7,23,16,1,0,0,rectangle,23,16,1,0,0,3,"[236,246,209,297,74,106,288,255,105,195,113,295,6,315,220,3,287,223,132,38]",23,16,1,0,0,0,119,119,157,1,,,
,,,,,,,,,,,,,FF,,,,,,,,1.767,,,,,,,,,,,,,,,,,,,,,,,604b169fe4b7991ec08da3a6,60a7d7fabf9a9a712d038866,2021-05-21_17h56.59.075,Simcolourproject_2stim_asymm_v5,2020.2.10,MacIntel,60,60a5f9bf14d0aa2821c4bb84,,,,,1970,-73,-47,1,0,0,response5disk,,7,3,14,1,0,0,rectangle,3,14,1,0,0,4,"[236,246,209,297,74,106,288,255,105,195,113,295,6,315,220,3,287,223,132,38]",3,14,1,0,0,0,120,120,3,1,,,
,,,,,,,,,,,,,FF,,,,,,,,1.885,,,,,,,,,,,,,,,,,,,,,,,604b169fe4b7991ec08da3a6,60a7d7fabf9a9a712d038866,2021-05-21_17h56.59.075,Simcolourproject_2stim_asymm_v5,2020.2.10,MacIntel,60,60a5f9bf14d0aa2821c4bb84,,,,,121,61,-30,1,0,0,response3disk,,5,18,-6,1,0,0,rectangle,18,-6,1,0,0,2,"[236,246,209,297,74,106,288,255,105,195,113,295,6,315,220,3,287,223,132,38]",18,-6,1,0,0,0,121,121,76,1,,,
,,,,,,,,,,,,,FF,,,,,,,,1.083,,,,,,,,,,,,,,,,,,,,,,,604b169fe4b7991ec08da3a6,60a7d7fabf9a9a712d038866,2021-05-21_17h56.59.075,Simcolourproject_2stim_asymm_v5,2020.2.10,MacIntel,60,60a5f9bf14d0aa2821c4bb84,,,,,3818,47,19,1,0,0,response1disk,,6,27,8,1,0,0,rectangle,27,8,1,0,0,4,"[236,246,209,297,74,106,288,255,105,195,113,295,6,315,220,3,287,223,132,38]",27,8,1,0,0,0,122,122,75,1,,,
,,,,,,,,,,,,,FF,,,,,,,,1.233,,,,,,,,,,,,,,,,,,,,,,,604b169fe4b7991ec08da3a6,60a7d7fabf9a9a712d038866,2021-05-21_17h56.59.075,Simcolourproject_2stim_asymm_v5,2020.2.10,MacIntel,60,60a5f9bf14d0aa2821c4bb84,,,,,235,37,74,1,0,0,response1disk,,7,23,3,1,0,0,rectangle,23,3,1,0,0,0,"[236,246,209,297,74,106,288,255,105,195,113,295,6,315,220,3,287,223,132,38]",23,3,1,0,0,0,123,123,42,1,,,
,,,,,,,,,,,,,FF,,,,,,,,3.966,,,,,,,,,,,,,,,,,,,,,,,604b169fe4b7991ec08da3a6,60a7d7fabf9a9a712d038866,2021-05-21_17h56.59.075,Simcolourproject_2stim_asymm_v5,2020.2.10,MacIntel,60,60a5f9bf14d0aa2821c4bb84,,,,,2216,-74,47,1,0,0,response7disk,,1,-15,14,1,0,0,rectangle,-15,14,1,0,0,5,"[236,246,209,297,74,106,288,255,105,195,113,295,6,315,220,3,287,223,132,38]",-15,14,1,0,0,0,124,124,33,1,,,
,,,,,,,,,,,,,FF,,,,,,,,1.116,,,,,,,,,,,,,,,,,,,,,,,604b169fe4b7991ec08da3a6,60a7d7fabf9a9a712d038866,2021-05-21_17h56.59.075,Simcolourproject_2stim_asymm_v5,2020.2.10,MacIntel,60,60a5f9bf14d0aa2821c4bb84,,,,,2780,-61,33,1,0,0,response7disk,,1,-25,-1,1,0,0,rectangle,-25,-1,1,0,0,1,"[236,246,209,297,74,106,288,255,105,195,113,295,6,315,220,3,287,223,132,38]",-25,-1,1,0,0,0,125,125,143,1,,,
,,,,,,,,,,,,,FF,,,,,,,,1,,,,,,,,,,,,,,,,,,,,,,,604b169fe4b7991ec08da3a6,60a7d7fabf9a9a712d038866,2021-05-21_17h56.59.075,Simcolourproject_2stim_asymm_v5,2020.2.10,MacIntel,60,60a5f9bf14d0aa2821c4bb84,,,,,3195,-33,83,1,0,0,response7disk,,0,-19,6,1,0,0,rectangle,-19,6,1,0,0,4,"[236,246,209,297,74,106,288,255,105,195,113,295,6,315,220,3,287,223,132,38]",-19,6,1,0,0,0,126,126,69,1,,,
,,,,,,,,,,,,,FF,,,,,,,,1.133,,,,,,,,,,,,,,,,,,,,,,,604b169fe4b7991ec08da3a6,60a7d7fabf9a9a712d038866,2021-05-21_17h56.59.075,Simcolourproject_2stim_asymm_v5,2020.2.10,MacIntel,60,60a5f9bf14d0aa2821c4bb84,,,,,3581,-45,-34,1,0,0,response5disk,,0,-3,-13,1,0,0,rectangle,-3,-13,1,0,0,5,"[236,246,209,297,74,106,288,255,105,195,113,295,6,315,220,3,287,223,132,38]",-3,-13,1,0,0,0,127,127,122,1,,,
,,,,,,,,,,,,,FF,,,,,,,,1.233,,,,,,,,,,,,,,,,,,,,,,,604b169fe4b7991ec08da3a6,60a7d7fabf9a9a712d038866,2021-05-21_17h56.59.075,Simcolourproject_2stim_asymm_v5,2020.2.10,MacIntel,60,60a5f9bf14d0aa2821c4bb84,,,,,1844,23,-59,1,0,0,response3disk,,4,14,-5,1,0,0,rectangle,14,-5,1,0,0,7,"[236,246,209,297,74,106,288,255,105,195,113,295,6,315,220,3,287,223,132,38]",14,-5,1,0,0,0,128,128,92,1,,,
,,,,,,,,,,,,,FF,,,,,,,,1.4,,,,,,,,,,,,,,,,,,,,,,,604b169fe4b7991ec08da3a6,60a7d7fabf9a9a712d038866,2021-05-21_17h56.59.075,Simcolourproject_2stim_asymm_v5,2020.2.10,MacIntel,60,60a5f9bf14d0aa2821c4bb84,,,,,2887,-80,-34,1,0,0,response5disk,,4,-7,-4,1,0,0,rectangle,-7,-4,1,0,0,3,"[236,246,209,297,74,106,288,255,105,195,113,295,6,315,220,3,287,223,132,38]",-7,-4,1,0,0,0,129,129,29,1,,,
,,,,,,,,,,,,,FF,,,,,,,,1.266,,,,,,,,,,,,,,,,,,,,,,,604b169fe4b7991ec08da3a6,60a7d7fabf9a9a712d038866,2021-05-21_17h56.59.075,Simcolourproject_2stim_asymm_v5,2020.2.10,MacIntel,60,60a5f9bf14d0aa2821c4bb84,,,,,4306,-84,36,1,0,0,response7disk,,1,-31,8,1,0,0,rectangle,-31,8,1,0,0,6,"[236,246,209,297,74,106,288,255,105,195,113,295,6,315,220,3,287,223,132,38]",-31,8,1,0,0,0,130,130,124,1,,,
,,,,,,,,,,,,,FF,,,,,,,,1.833,,,,,,,,,,,,,,,,,,,,,,,604b169fe4b7991ec08da3a6,60a7d7fabf9a9a712d038866,2021-05-21_17h56.59.075,Simcolourproject_2stim_asymm_v5,2020.2.10,MacIntel,60,60a5f9bf14d0aa2821c4bb84,,,,,1451,-100,-39,1,0,0,response5disk,,1,-32,-8,1,0,0,rectangle,24,58,1,0,0,7,"[236,246,209,297,74,106,288,255,105,195,113,295,6,315,220,3,287,223,132,38]",1,1,1,0,0,0,131,131,54,1,,response1disk_3,rectangle
,,,,,,,,,,,,,FF,,,,,,,,4.917,,,,,,,,,,,,,,,,,,,,,,,604b169fe4b7991ec08da3a6,60a7d7fabf9a9a712d038866,2021-05-21_17h56.59.075,Simcolourproject_2stim_asymm_v5,2020.2.10,MacIntel,60,60a5f9bf14d0aa2821c4bb84,,,,,912,29,-70,1,0,0,response3disk,,4,7,-13,1,0,0,rectangle,7,-13,1,0,0,6,"[236,246,209,297,74,106,288,255,105,195,113,295,6,315,220,3,287,223,132,38]",7,-13,1,0,0,0,132,132,109,1,,,
,,,,,,,,,,,,,FF,,,,,,,,1.316,,,,,,,,,,,,,,,,,,,,,,,604b169fe4b7991ec08da3a6,60a7d7fabf9a9a712d038866,2021-05-21_17h56.59.075,Simcolourproject_2stim_asymm_v5,2020.2.10,MacIntel,60,60a5f9bf14d0aa2821c4bb84,,,,,2204,52,-27,1,0,0,response3disk,,5,25,-11,1,0,0,rectangle,25,-11,1,0,0,6,"[236,246,209,297,74,106,288,255,105,195,113,295,6,315,220,3,287,223,132,38]",25,-11,1,0,0,0,133,133,153,1,,,
,,,,,,,,,,,,,FF,,,,,,,,1.3,,,,,,,,,,,,,,,,,,,,,,,604b169fe4b7991ec08da3a6,60a7d7fabf9a9a712d038866,2021-05-21_17h56.59.075,Simcolourproject_2stim_asymm_v5,2020.2.10,MacIntel,60,60a5f9bf14d0aa2821c4bb84,,,,,3921,57,25,1,0,0,response1disk,,6,22,6,1,0,0,rectangle,22,6,1,0,0,1,"[236,246,209,297,74,106,288,255,105,195,113,295,6,315,220,3,287,223,132,38]",22,6,1,0,0,0,134,134,85,1,,,
,,,,,,,,,,,,,FF,,,,,,,,1.267,,,,,,,,,,,,,,,,,,,,,,,604b169fe4b7991ec08da3a6,60a7d7fabf9a9a712d038866,2021-05-21_17h56.59.075,Simcolourproject_2stim_asymm_v5,2020.2.10,MacIntel,60,60a5f9bf14d0aa2821c4bb84,,,,,901,-33,-58,1,0,0,response5disk,,3,1,6,1,0,0,rectangle,1,6,1,0,0,3,"[236,246,209,297,74,106,288,255,105,195,113,295,6,315,220,3,287,223,132,38]",1,6,1,0,0,0,135,135,80,1,,,
,,,,,,,,,,,,,FF,,,,,,,,1.55,,,,,,,,,,,,,,,,,,,,,,,604b169fe4b7991ec08da3a6,60a7d7fabf9a9a712d038866,2021-05-21_17h56.59.075,Simcolourproject_2stim_asymm_v5,2020.2.10,MacIntel,60,60a5f9bf14d0aa2821c4bb84,,,,,3521,-28,-60,1,0,0,response5disk,,3,7,9,1,0,0,rectangle,7,9,1,0,0,0,"[236,246,209,297,74,106,288,255,105,195,113,295,6,315,220,3,287,223,132,38]",7,9,1,0,0,0,136,136,56,1,,,
,,,,,,,,,,,,,FF,,,,,,,,1.867,,,,,,,,,,,,,,,,,,,,,,,604b169fe4b7991ec08da3a6,60a7d7fabf9a9a712d038866,2021-05-21_17h56.59.075,Simcolourproject_2stim_asymm_v5,2020.2.10,MacIntel,60,60a5f9bf14d0aa2821c4bb84,,,,,731,38,-58,1,0,0,response3disk,,4,4,-3,1,0,0,rectangle,4,-3,1,0,0,5,"[236,246,209,297,74,106,288,255,105,195,113,295,6,315,220,3,287,223,132,38]",4,-3,1,0,0,0,137,137,13,1,,,
,,,,,,,,,,,,,FF,,,,,,,,0.933,,,,,,,,,,,,,,,,,,,,,,,604b169fe4b7991ec08da3a6,60a7d7fabf9a9a712d038866,2021-05-21_17h56.59.075,Simcolourproject_2stim_asymm_v5,2020.2.10,MacIntel,60,60a5f9bf14d0aa2821c4bb84,,,,,3532,49,-28,1,0,0,response3disk,,5,3,4,1,0,0,rectangle,3,4,1,0,0,1,"[236,246,209,297,74,106,288,255,105,195,113,295,6,315,220,3,287,223,132,38]",3,4,1,0,0,0,138,138,119,1,,,
,,,,,,,,,,,,,FF,,,,,,,,3.168,,,,,,,,,,,,,,,,,,,,,,,604b169fe4b7991ec08da3a6,60a7d7fabf9a9a712d038866,2021-05-21_17h56.59.075,Simcolourproject_2stim_asymm_v5,2020.2.10,MacIntel,60,60a5f9bf14d0aa2821c4bb84,,,,,3328,46,-23,1,0,0,response3disk,,5,19,-7,1,0,0,rectangle,19,-7,1,0,0,3,"[236,246,209,297,74,106,288,255,105,195,113,295,6,315,220,3,287,223,132,38]",19,-7,1,0,0,0,139,139,128,1,,,
,,,,,,,,,,,,,FF,,,,,,,,1.017,,,,,,,,,,,,,,,,,,,,,,,604b169fe4b7991ec08da3a6,60a7d7fabf9a9a712d038866,2021-05-21_17h56.59.075,Simcolourproject_2stim_asymm_v5,2020.2.10,MacIntel,60,60a5f9bf14d0aa2821c4bb84,,,,,404,26,-60,1,0,0,response3disk,,4,10,-6,1,0,0,rectangle,10,-6,1,0,0,5,"[236,246,209,297,74,106,288,255,105,195,113,295,6,315,220,3,287,223,132,38]",10,-6,1,0,0,0,140,140,25,1,,,
,,,,,,,,,,,,,FF,,,,,,,,1.4,,,,,,,,,,,,,,,,,,,,,,,604b169fe4b7991ec08da3a6,60a7d7fabf9a9a712d038866,2021-05-21_17h56.59.075,Simcolourproject_2stim_asymm_v5,2020.2.10,MacIntel,60,60a5f9bf14d0aa2821c4bb84,,,,,1615,-27,-58,1,0,0,response5disk,,3,-2,-8,1,0,0,rectangle,-2,-8,1,0,0,0,"[236,246,209,297,74,106,288,255,105,195,113,295,6,315,220,3,287,223,132,38]",-2,-8,1,0,0,0,141,141,37,1,,,
,,,,,,,,,,,,,FF,,,,,,,,1.102,,,,,,,,,,,,,,,,,,,,,,,604b169fe4b7991ec08da3a6,60a7d7fabf9a9a712d038866,2021-05-21_17h56.59.075,Simcolourproject_2stim_asymm_v5,2020.2.10,MacIntel,60,60a5f9bf14d0aa2821c4bb84,,,,,1157,-28,-61,1,0,0,response5disk,,3,-3,-4,1,0,0,rectangle,-3,-4,1,0,0,5,"[236,246,209,297,74,106,288,255,105,195,113,295,6,315,220,3,287,223,132,38]",-3,-4,1,0,0,0,142,142,159,1,,,
,,,,,,,,,,,,,FF,,,,,,,,0.901,,,,,,,,,,,,,,,,,,,,,,,604b169fe4b7991ec08da3a6,60a7d7fabf9a9a712d038866,2021-05-21_17h56.59.075,Simcolourproject_2stim_asymm_v5,2020.2.10,MacIntel,60,60a5f9bf14d0aa2821c4bb84,,,,,1508,32,-67,1,0,0,response3disk,,4,8,6,1,0,0,rectangle,8,6,1,0,0,7,"[236,246,209,297,74,106,288,255,105,195,113,295,6,315,220,3,287,223,132,38]",8,6,1,0,0,0,143,143,144,1,,,
,,,,,,,,,,,,,FF,,,,,,,,1.333,,,,,,,,,,,,,,,,,,,,,,,604b169fe4b7991ec08da3a6,60a7d7fabf9a9a712d038866,2021-05-21_17h56.59.075,Simcolourproject_2stim_asymm_v5,2020.2.10,MacIntel,60,60a5f9bf14d0aa2821c4bb84,,,,,3551,-84,21,1,0,0,response7disk,,1,-17,-11,1,0,0,rectangle,-17,-11,1,0,0,2,"[236,246,209,297,74,106,288,255,105,195,113,295,6,315,220,3,287,223,132,38]",-17,-11,1,0,0,0,144,144,160,1,,,
,,,,,,,,,,,,,FF,,,,,,,,1.416,,,,,,,,,,,,,,,,,,,,,,,604b169fe4b7991ec08da3a6,60a7d7fabf9a9a712d038866,2021-05-21_17h56.59.075,Simcolourproject_2stim_asymm_v5,2020.2.10,MacIntel,60,60a5f9bf14d0aa2821c4bb84,,,,,2008,35,-56,1,0,0,response3disk,,4,18,-10,1,0,0,rectangle,18,-10,1,0,0,0,"[236,246,209,297,74,106,288,255,105,195,113,295,6,315,220,3,287,223,132,38]",18,-10,1,0,0,0,145,145,141,1,,,
,,,,,,,,,,,,,FF,,,,,,,,0.867,,,,,,,,,,,,,,,,,,,,,,,604b169fe4b7991ec08da3a6,60a7d7fabf9a9a712d038866,2021-05-21_17h56.59.075,Simcolourproject_2stim_asymm_v5,2020.2.10,MacIntel,60,60a5f9bf14d0aa2821c4bb84,,,,,131,72,-53,1,0,0,response3disk,,5,20,-1,1,0,0,rectangle,20,-1,1,0,0,3,"[236,246,209,297,74,106,288,255,105,195,113,295,6,315,220,3,287,223,132,38]",20,-1,1,0,0,0,146,146,117,1,,,
,,,,,,,,,,,,,FF,,,,,,,,0.867,,,,,,,,,,,,,,,,,,,,,,,604b169fe4b7991ec08da3a6,60a7d7fabf9a9a712d038866,2021-05-21_17h56.59.075,Simcolourproject_2stim_asymm_v5,2020.2.10,MacIntel,60,60a5f9bf14d0aa2821c4bb84,,,,,3582,79,30,1,0,0,response1disk,,6,16,10,1,0,0,rectangle,16,10,1,0,0,2,"[236,246,209,297,74,106,288,255,105,195,113,295,6,315,220,3,287,223,132,38]",16,10,1,0,0,0,147,147,83,1,,,
,,,,,,,,,,,,,FF,,,,,,,,1.45,,,,,,,,,,,,,,,,,,,,,,,604b169fe4b7991ec08da3a6,60a7d7fabf9a9a712d038866,2021-05-21_17h56.59.075,Simcolourproject_2stim_asymm_v5,2020.2.10,MacIntel,60,60a5f9bf14d0aa2821c4bb84,,,,,3698,67,25,1,0,0,response1disk,,6,27,2,1,0,0,rectangle,27,2,1,0,0,6,"[236,246,209,297,74,106,288,255,105,195,113,295,6,315,220,3,287,223,132,38]",27,2,1,0,0,0,148,148,147,1,,,
,,,,,,,,,,,,,FF,,,,,,,,1.117,,,,,,,,,,,,,,,,,,,,,,,604b169fe4b7991ec08da3a6,60a7d7fabf9a9a712d038866,2021-05-21_17h56.59.075,Simcolourproject_2stim_asymm_v5,2020.2.10,MacIntel,60,60a5f9bf14d0aa2821c4bb84,,,,,2916,62,26,1,0,0,response1disk,,6,25,11,1,0,0,rectangle,25,11,1,0,0,7,"[236,246,209,297,74,106,288,255,105,195,113,295,6,315,220,3,287,223,132,38]",25,11,1,0,0,0,149,149,34,1,,,
,,,,,,,,,,,,,FF,,,,,,,,1.451,,,,,,,,,,,,,,,,,,,,,,,604b169fe4b7991ec08da3a6,60a7d7fabf9a9a712d038866,2021-05-21_17h56.59.075,Simcolourproject_2stim_asymm_v5,2020.2.10,MacIntel,60,60a5f9bf14d0aa2821c4bb84,,,,,3361,43,24,1,0,0,response1disk,,6,13,3,1,0,0,rectangle,13,3,1,0,0,6,"[236,246,209,297,74,106,288,255,105,195,113,295,6,315,220,3,287,223,132,38]",13,3,1,0,0,0,150,150,30,1,,,
,,,,,,,,,,,,,FF,,,,,,,,8.984,,,,,,,,,,,,,,,,,,,,,,,604b169fe4b7991ec08da3a6,60a7d7fabf9a9a712d038866,2021-05-21_17h56.59.075,Simcolourproject_2stim_asymm_v5,2020.2.10,MacIntel,60,60a5f9bf14d0aa2821c4bb84,,,,,1975,47,-36,1,0,0,response3disk,,5,17,-19,1,0,0,rectangle,17,-19,1,0,0,5,"[236,246,209,297,74,106,288,255,105,195,113,295,6,315,220,3,287,223,132,38]",17,-19,1,0,0,0,151,151,61,1,,,
,,,,,,,,,,,,,FF,,,,,,,,1.349,,,,,,,,,,,,,,,,,,,,,,,604b169fe4b7991ec08da3a6,60a7d7fabf9a9a712d038866,2021-05-21_17h56.59.075,Simcolourproject_2stim_asymm_v5,2020.2.10,MacIntel,60,60a5f9bf14d0aa2821c4bb84,,,,,2532,-55,-27,1,0,0,response5disk,,4,6,-15,1,0,0,rectangle,6,-15,1,0,0,4,"[236,246,209,297,74,106,288,255,105,195,113,295,6,315,220,3,287,223,132,38]",6,-15,1,0,0,0,152,152,55,1,,,
,,,,,,,,,,,,,FF,,,,,,,,1.449,,,,,,,,,,,,,,,,,,,,,,,604b169fe4b7991ec08da3a6,60a7d7fabf9a9a712d038866,2021-05-21_17h56.59.075,Simcolourproject_2stim_asymm_v5,2020.2.10,MacIntel,60,60a5f9bf14d0aa2821c4bb84,,,,,3529,32,-82,1,0,0,response3disk,,4,13,-12,1,0,0,rectangle,13,-12,1,0,0,5,"[236,246,209,297,74,106,288,255,105,195,113,295,6,315,220,3,287,223,132,38]",13,-12,1,0,0,0,153,153,134,1,,,
,,,,,,,,,,,,,FF,,,,,,,,1.817,,,,,,,,,,,,,,,,,,,,,,,604b169fe4b7991ec08da3a6,60a7d7fabf9a9a712d038866,2021-05-21_17h56.59.075,Simcolourproject_2stim_asymm_v5,2020.2.10,MacIntel,60,60a5f9bf14d0aa2821c4bb84,,,,,4152,43,77,1,0,0,response1disk,,7,19,-6,1,0,0,rectangle,19,-6,1,0,0,1,"[236,246,209,297,74,106,288,255,105,195,113,295,6,315,220,3,287,223,132,38]",19,-6,1,0,0,0,154,154,27,1,,,
,,,,,,,,,,,,,FF,,,,,,,,1.701,,,,,,,,,,,,,,,,,,,,,,,604b169fe4b7991ec08da3a6,60a7d7fabf9a9a712d038866,2021-05-21_17h56.59.075,Simcolourproject_2stim_asymm_v5,2020.2.10,MacIntel,60,60a5f9bf14d0aa2821c4bb84,,,,,3788,-29,-79,1,0,0,response5disk,,3,-2,7,1,0,0,rectangle,-2,7,1,0,0,5,"[236,246,209,297,74,106,288,255,105,195,113,295,6,315,220,3,287,223,132,38]",-2,7,1,0,0,0,155,155,138,1,,,
,,,,,,,,,,,,,FF,,,,,,,,1.001,,,,,,,,,,,,,,,,,,,,,,,604b169fe4b7991ec08da3a6,60a7d7fabf9a9a712d038866,2021-05-21_17h56.59.075,Simcolourproject_2stim_asymm_v5,2020.2.10,MacIntel,60,60a5f9bf14d0aa2821c4bb84,,,,,3406,28,-77,1,0,0,response3disk,,4,11,-8,1,0,0,rectangle,11,-8,1,0,0,1,"[236,246,209,297,74,106,288,255,105,195,113,295,6,315,220,3,287,223,132,38]",11,-8,1,0,0,0,156,156,132,1,,,
,,,,,,,,,,,,,FF,,,,,,,,1.425,,,,,,,,,,,,,,,,,,,,,,,604b169fe4b7991ec08da3a6,60a7d7fabf9a9a712d038866,2021-05-21_17h56.59.075,Simcolourproject_2stim_asymm_v5,2020.2.10,MacIntel,60,60a5f9bf14d0aa2821c4bb84,,,,,3243,-46,82,1,0,0,response7disk,,0,-9,8,1,0,0,rectangle,-9,8,1,0,0,0,"[236,246,209,297,74,106,288,255,105,195,113,295,6,315,220,3,287,223,132,38]",-9,8,1,0,0,0,157,157,43,1,,,
,,,,,,,,,,,,,FF,,,,,,,,1,,,,,,,,,,,,,,,,,,,,,,,604b169fe4b7991ec08da3a6,60a7d7fabf9a9a712d038866,2021-05-21_17h56.59.075,Simcolourproject_2stim_asymm_v5,2020.2.10,MacIntel,60,60a5f9bf14d0aa2821c4bb84,,,,,4305,-88,33,1,0,0,response7disk,,1,-30,8,1,0,0,rectangle,-30,8,1,0,0,0,"[236,246,209,297,74,106,288,255,105,195,113,295,6,315,220,3,287,223,132,38]",-30,8,1,0,0,0,158,158,74,1,,,
,,,,,,,,,,,,,FF,,,,,,,,1.247,,,,,,,,,,,,,,,,,,,,,,,604b169fe4b7991ec08da3a6,60a7d7fabf9a9a712d038866,2021-05-21_17h56.59.075,Simcolourproject_2stim_asymm_v5,2020.2.10,MacIntel,60,60a5f9bf14d0aa2821c4bb84,,,,,457,-53,-79,1,0,0,response5disk,,3,-22,15,1,0,0,rectangle,-22,15,1,0,0,6,"[236,246,209,297,74,106,288,255,105,195,113,295,6,315,220,3,287,223,132,38]",-22,15,1,0,0,0,159,159,79,1,,,
,,,,,,,,,,,,,FF,,,,,,,,1.034,,,,,,,,,,,,,,,,,,,,,,,604b169fe4b7991ec08da3a6,60a7d7fabf9a9a712d038866,2021-05-21_17h56.59.075,Simcolourproject_2stim_asymm_v5,2020.2.10,MacIntel,60,60a5f9bf14d0aa2821c4bb84,,,,,2982,43,-22,1,0,0,response3disk,,5,8,-5,1,0,0,rectangle,8,-5,1,0,0,4,"[236,246,209,297,74,106,288,255,105,195,113,295,6,315,220,3,287,223,132,38]",8,-5,1,0,0,0,160,160,90,1,,,
,,,,,,,,,,,,,FF,,,,,,,,0.849,,,,,,,,,,,,,,,,,,,,,,,604b169fe4b7991ec08da3a6,60a7d7fabf9a9a712d038866,2021-05-21_17h56.59.075,Simcolourproject_2stim_asymm_v5,2020.2.10,MacIntel,60,60a5f9bf14d0aa2821c4bb84,,,,,3358,61,30,1,0,0,response1disk,,6,5,15,1,0,0,rectangle,5,15,1,0,0,6,"[236,246,209,297,74,106,288,255,105,195,113,295,6,315,220,3,287,223,132,38]",5,15,1,0,0,1,0,161,64,1,,,
,,,,,,,,,,,,,FF,,,,,,,,0.883,,,,,,,,,,,,,,,,,,,,,,,604b169fe4b7991ec08da3a6,60a7d7fabf9a9a712d038866,2021-05-21_17h56.59.075,Simcolourproject_2stim_asymm_v5,2020.2.10,MacIntel,60,60a5f9bf14d0aa2821c4bb84,,,,,3358,86,34,1,0,0,response1disk,,6,1,15,1,0,0,rectangle,1,15,1,0,0,6,"[236,246,209,297,74,106,288,255,105,195,113,295,6,315,220,3,287,223,132,38]",1,15,1,0,0,1,1,162,157,1,,,
,,,,,,,,,,,,,FF,,,,,,,,1.366,,,,,,,,,,,,,,,,,,,,,,,604b169fe4b7991ec08da3a6,60a7d7fabf9a9a712d038866,2021-05-21_17h56.59.075,Simcolourproject_2stim_asymm_v5,2020.2.10,MacIntel,60,60a5f9bf14d0aa2821c4bb84,,,,,1508,26,71,1,0,0,response1disk,,7,-1,6,1,0,0,rectangle,-1,6,1,0,0,5,"[236,246,209,297,74,106,288,255,105,195,113,295,6,315,220,3,287,223,132,38]",-1,6,1,0,0,1,2,163,113,1,,,
,,,,,,,,,,,,,FF,,,,,,,,1.183,,,,,,,,,,,,,,,,,,,,,,,604b169fe4b7991ec08da3a6,60a7d7fabf9a9a712d038866,2021-05-21_17h56.59.075,Simcolourproject_2stim_asymm_v5,2020.2.10,MacIntel,60,60a5f9bf14d0aa2821c4bb84,,,,,2912,37,-55,1,0,0,response3disk,,4,13,-12,1,0,0,rectangle,13,-12,1,0,0,1,"[236,246,209,297,74,106,288,255,105,195,113,295,6,315,220,3,287,223,132,38]",13,-12,1,0,0,1,3,164,154,1,,,
,,,,,,,,,,,,,FF,,,,,,,,2.851,,,,,,,,,,,,,,,,,,,,,,,604b169fe4b7991ec08da3a6,60a7d7fabf9a9a712d038866,2021-05-21_17h56.59.075,Simcolourproject_2stim_asymm_v5,2020.2.10,MacIntel,60,60a5f9bf14d0aa2821c4bb84,,,,,731,89,-27,1,0,0,response3disk,,5,31,-7,1,0,0,rectangle,31,-7,1,0,0,7,"[236,246,209,297,74,106,288,255,105,195,113,295,6,315,220,3,287,223,132,38]",31,-7,1,0,0,1,4,165,130,1,,,
,,,,,,,,,,,,,FF,,,,,,,,1.083,,,,,,,,,,,,,,,,,,,,,,,604b169fe4b7991ec08da3a6,60a7d7fabf9a9a712d038866,2021-05-21_17h56.59.075,Simcolourproject_2stim_asymm_v5,2020.2.10,MacIntel,60,60a5f9bf14d0aa2821c4bb84,,,,,2887,-77,-29,1,0,0,response5disk,,5,-34,-16,1,0,0,rectangle,-34,-16,1,0,0,2,"[236,246,209,297,74,106,288,255,105,195,113,295,6,315,220,3,287,223,132,38]",-34,-16,1,0,0,1,5,166,12,1,,,
,,,,,,,,,,,,,FF,,,,,,,,1.284,,,,,,,,,,,,,,,,,,,,,,,604b169fe4b7991ec08da3a6,60a7d7fabf9a9a712d038866,2021-05-21_17h56.59.075,Simcolourproject_2stim_asymm_v5,2020.2.10,MacIntel,60,60a5f9bf14d0aa2821c4bb84,,,,,982,-40,-57,1,0,0,response5disk,,3,-13,-15,1,0,0,rectangle,-13,-15,1,0,0,3,"[236,246,209,297,74,106,288,255,105,195,113,295,6,315,220,3,287,223,132,38]",-13,-15,1,0,0,1,6,167,69,1,,,
,,,,,,,,,,,,,FF,,,,,,,,1.667,,,,,,,,,,,,,,,,,,,,,,,604b169fe4b7991ec08da3a6,60a7d7fabf9a9a712d038866,2021-05-21_17h56.59.075,Simcolourproject_2stim_asymm_v5,2020.2.10,MacIntel,60,60a5f9bf14d0aa2821c4bb84,,,,,121,-63,-43,1,0,0,response5disk,,3,-13,-2,1,0,0,rectangle,-13,-2,1,0,0,5,"[236,246,209,297,74,106,288,255,105,195,113,295,6,315,220,3,287,223,132,38]",-13,-2,1,0,0,1,7,168,51,1,,,
,,,,,,,,,,,,,FF,,,,,,,,2.575,,,,,,,,,,,,,,,,,,,,,,,604b169fe4b7991ec08da3a6,60a7d7fabf9a9a712d038866,2021-05-21_17h56.59.075,Simcolourproject_2stim_asymm_v5,2020.2.10,MacIntel,60,60a5f9bf14d0aa2821c4bb84,,,,,4338,-33,-44,1,0,0,response5disk,,3,-15,7,1,0,0,rectangle,-15,7,1,0,0,1,"[236,246,209,297,74,106,288,255,105,195,113,295,6,315,220,3,287,223,132,38]",-15,7,1,0,0,1,8,169,93,1,,,
,,,,,,,,,,,,,FF,,,,,,,,1.583,,,,,,,,,,,,,,,,,,,,,,,604b169fe4b7991ec08da3a6,60a7d7fabf9a9a712d038866,2021-05-21_17h56.59.075,Simcolourproject_2stim_asymm_v5,2020.2.10,MacIntel,60,60a5f9bf14d0aa2821c4bb84,,,,,4264,42,-76,1,0,0,response3disk,,4,12,-9,1,0,0,rectangle,12,-9,1,0,0,0,"[236,246,209,297,74,106,288,255,105,195,113,295,6,315,220,3,287,223,132,38]",12,-9,1,0,0,1,9,170,133,1,,,
,,,,,,,,,,,,,FF,,,,,,,,0.882,,,,,,,,,,,,,,,,,,,,,,,604b169fe4b7991ec08da3a6,60a7d7fabf9a9a712d038866,2021-05-21_17h56.59.075,Simcolourproject_2stim_asymm_v5,2020.2.10,MacIntel,60,60a5f9bf14d0aa2821c4bb84,,,,,839,60,-37,1,0,0,response3disk,,5,6,-9,1,0,0,rectangle,6,-9,1,0,0,4,"[236,246,209,297,74,106,288,255,105,195,113,295,6,315,220,3,287,223,132,38]",6,-9,1,0,0,1,10,171,102,1,,,
,,,,,,,,,,,,,FF,,,,,,,,1.084,,,,,,,,,,,,,,,,,,,,,,,604b169fe4b7991ec08da3a6,60a7d7fabf9a9a712d038866,2021-05-21_17h56.59.075,Simcolourproject_2stim_asymm_v5,2020.2.10,MacIntel,60,60a5f9bf14d0aa2821c4bb84,,,,,3014,-43,-31,1,0,0,response5disk,,5,11,-9,1,0,0,rectangle,11,-9,1,0,0,1,"[236,246,209,297,74,106,288,255,105,195,113,295,6,315,220,3,287,223,132,38]",11,-9,1,0,0,1,11,172,159,1,,,
,,,,,,,,,,,,,FF,,,,,,,,2.166,,,,,,,,,,,,,,,,,,,,,,,604b169fe4b7991ec08da3a6,60a7d7fabf9a9a712d038866,2021-05-21_17h56.59.075,Simcolourproject_2stim_asymm_v5,2020.2.10,MacIntel,60,60a5f9bf14d0aa2821c4bb84,,,,,1237,-86,-29,1,0,0,response5disk,,5,-19,2,1,0,0,rectangle,-19,2,1,0,0,5,"[236,246,209,297,74,106,288,255,105,195,113,295,6,315,220,3,287,223,132,38]",-19,2,1,0,0,1,12,173,53,1,,,
,,,,,,,,,,,,,FF,,,,,,,,1.849,,,,,,,,,,,,,,,,,,,,,,,604b169fe4b7991ec08da3a6,60a7d7fabf9a9a712d038866,2021-05-21_17h56.59.075,Simcolourproject_2stim_asymm_v5,2020.2.10,MacIntel,60,60a5f9bf14d0aa2821c4bb84,,,,,1770,81,-45,1,0,0,response3disk,,5,2,-5,1,0,0,rectangle,2,-5,1,0,0,4,"[236,246,209,297,74,106,288,255,105,195,113,295,6,315,220,3,287,223,132,38]",2,-5,1,0,0,1,13,174,85,1,,,
,,,,,,,,,,,,,FF,,,,,,,,1.167,,,,,,,,,,,,,,,,,,,,,,,604b169fe4b7991ec08da3a6,60a7d7fabf9a9a712d038866,2021-05-21_17h56.59.075,Simcolourproject_2stim_asymm_v5,2020.2.10,MacIntel,60,60a5f9bf14d0aa2821c4bb84,,,,,3406,-40,-77,1,0,0,response5disk,,3,-17,-8,1,0,0,rectangle,-17,-8,1,0,0,7,"[236,246,209,297,74,106,288,255,105,195,113,295,6,315,220,3,287,223,132,38]",-17,-8,1,0,0,1,14,175,126,1,,,
,,,,,,,,,,,,,FF,,,,,,,,1.666,,,,,,,,,,,,,,,,,,,,,,,604b169fe4b7991ec08da3a6,60a7d7fabf9a9a712d038866,2021-05-21_17h56.59.075,Simcolourproject_2stim_asymm_v5,2020.2.10,MacIntel,60,60a5f9bf14d0aa2821c4bb84,,,,,2063,-82,-52,1,0,0,response5disk,,3,-17,-11,1,0,0,rectangle,-17,-11,1,0,0,3,"[236,246,209,297,74,106,288,255,105,195,113,295,6,315,220,3,287,223,132,38]",-17,-11,1,0,0,1,15,176,35,1,,,
,,,,,,,,,,,,,FF,,,,,,,,2.948,,,,,,,,,,,,,,,,,,,,,,,604b169fe4b7991ec08da3a6,60a7d7fabf9a9a712d038866,2021-05-21_17h56.59.075,Simcolourproject_2stim_asymm_v5,2020.2.10,MacIntel,60,60a5f9bf14d0aa2821c4bb84,,,,,683,46,-65,1,0,0,response3disk,,4,25,-17,1,0,0,rectangle,25,-17,1,0,0,0,"[236,246,209,297,74,106,288,255,105,195,113,295,6,315,220,3,287,223,132,38]",25,-17,1,0,0,1,16,177,82,1,,,
,,,,,,,,,,,,,FF,,,,,,,,1.472,,,,,,,,,,,,,,,,,,,,,,,604b169fe4b7991ec08da3a6,60a7d7fabf9a9a712d038866,2021-05-21_17h56.59.075,Simcolourproject_2stim_asymm_v5,2020.2.10,MacIntel,60,60a5f9bf14d0aa2821c4bb84,,,,,2204,31,62,1,0,0,response1disk,,7,9,-19,1,0,0,rectangle,9,-19,1,0,0,1,"[236,246,209,297,74,106,288,255,105,195,113,295,6,315,220,3,287,223,132,38]",9,-19,1,0,0,1,17,178,60,1,,,
,,,,,,,,,,,,,FF,,,,,,,,1.267,,,,,,,,,,,,,,,,,,,,,,,604b169fe4b7991ec08da3a6,60a7d7fabf9a9a712d038866,2021-05-21_17h56.59.075,Simcolourproject_2stim_asymm_v5,2020.2.10,MacIntel,60,60a5f9bf14d0aa2821c4bb84,,,,,2008,44,31,1,0,0,response1disk,,6,8,-2,1,0,0,rectangle,8,-2,1,0,0,3,"[236,246,209,297,74,106,288,255,105,195,113,295,6,315,220,3,287,223,132,38]",8,-2,1,0,0,1,18,179,57,1,,,
,,,,,,,,,,,,,FF,,,,,,,,1.633,,,,,,,,,,,,,,,,,,,,,,,604b169fe4b7991ec08da3a6,60a7d7fabf9a9a712d038866,2021-05-21_17h56.59.075,Simcolourproject_2stim_asymm_v5,2020.2.10,MacIntel,60,60a5f9bf14d0aa2821c4bb84,,,,,2783,-52,-31,1,0,0,response5disk,,6,4,-7,1,0,0,rectangle,4,-7,1,0,0,0,"[236,246,209,297,74,106,288,255,105,195,113,295,6,315,220,3,287,223,132,38]",4,-7,1,0,0,1,19,180,142,1,,,
,,,,,,,,,,,,,FF,,,,,,,,1.085,,,,,,,,,,,,,,,,,,,,,,,604b169fe4b7991ec08da3a6,60a7d7fabf9a9a712d038866,2021-05-21_17h56.59.075,Simcolourproject_2stim_asymm_v5,2020.2.10,MacIntel,60,60a5f9bf14d0aa2821c4bb84,,,,,2481,-44,20,1,0,0,response7disk,,1,-20,-2,1,0,0,rectangle,-20,-2,1,0,0,4,"[236,246,209,297,74,106,288,255,105,195,113,295,6,315,220,3,287,223,132,38]",-20,-2,1,0,0,1,20,181,140,1,,,
,,,,,,,,,,,,,FF,,,,,,,,1.334,,,,,,,,,,,,,,,,,,,,,,,604b169fe4b7991ec08da3a6,60a7d7fabf9a9a712d038866,2021-05-21_17h56.59.075,Simcolourproject_2stim_asymm_v5,2020.2.10,MacIntel,60,60a5f9bf14d0aa2821c4bb84,,,,,709,78,-46,1,0,0,response3disk,,5,0,-18,1,0,0,rectangle,0,-18,1,0,0,0,"[236,246,209,297,74,106,288,255,105,195,113,295,6,315,220,3,287,223,132,38]",0,-18,1,0,0,1,21,182,66,1,,,
,,,,,,,,,,,,,FF,,,,,,,,1.132,,,,,,,,,,,,,,,,,,,,,,,604b169fe4b7991ec08da3a6,60a7d7fabf9a9a712d038866,2021-05-21_17h56.59.075,Simcolourproject_2stim_asymm_v5,2020.2.10,MacIntel,60,60a5f9bf14d0aa2821c4bb84,,,,,4077,47,27,1,0,0,response1disk,,6,26,4,1,0,0,rectangle,26,4,1,0,0,1,"[236,246,209,297,74,106,288,255,105,195,113,295,6,315,220,3,287,223,132,38]",26,4,1,0,0,1,22,183,95,1,,,
,,,,,,,,,,,,,FF,,,,,,,,1.084,,,,,,,,,,,,,,,,,,,,,,,604b169fe4b7991ec08da3a6,60a7d7fabf9a9a712d038866,2021-05-21_17h56.59.075,Simcolourproject_2stim_asymm_v5,2020.2.10,MacIntel,60,60a5f9bf14d0aa2821c4bb84,,,,,1927,29,55,1,0,0,response1disk,,7,20,13,1,0,0,rectangle,20,13,1,0,0,3,"[236,246,209,297,74,106,288,255,105,195,113,295,6,315,220,3,287,223,132,38]",20,13,1,0,0,1,23,184,83,1,,,
,,,,,,,,,,,,,FF,,,,,,,,1.766,,,,,,,,,,,,,,,,,,,,,,,604b169fe4b7991ec08da3a6,60a7d7fabf9a9a712d038866,2021-05-21_17h56.59.075,Simcolourproject_2stim_asymm_v5,2020.2.10,MacIntel,60,60a5f9bf14d0aa2821c4bb84,,,,,1474,-45,-82,1,0,0,response5disk,,3,-27,-11,1,0,0,rectangle,-27,-11,1,0,0,7,"[236,246,209,297,74,106,288,255,105,195,113,295,6,315,220,3,287,223,132,38]",-27,-11,1,0,0,1,24,185,68,1,,,
,,,,,,,,,,,,,FF,,,,,,,,0.767,,,,,,,,,,,,,,,,,,,,,,,604b169fe4b7991ec08da3a6,60a7d7fabf9a9a712d038866,2021-05-21_17h56.59.075,Simcolourproject_2stim_asymm_v5,2020.2.10,MacIntel,60,60a5f9bf14d0aa2821c4bb84,,,,,2188,74,-37,1,0,0,response3disk,,5,17,-7,1,0,0,rectangle,17,-7,1,0,0,1,"[236,246,209,297,74,106,288,255,105,195,113,295,6,315,220,3,287,223,132,38]",17,-7,1,0,0,1,25,186,128,1,,,
,,,,,,,,,,,,,FF,,,,,,,,0.917,,,,,,,,,,,,,,,,,,,,,,,604b169fe4b7991ec08da3a6,60a7d7fabf9a9a712d038866,2021-05-21_17h56.59.075,Simcolourproject_2stim_asymm_v5,2020.2.10,MacIntel,60,60a5f9bf14d0aa2821c4bb84,,,,,3569,76,26,1,0,0,response1disk,,6,33,-1,1,0,0,rectangle,33,-1,1,0,0,6,"[236,246,209,297,74,106,288,255,105,195,113,295,6,315,220,3,287,223,132,38]",33,-1,1,0,0,1,26,187,52,1,,,
,,,,,,,,,,,,,FF,,,,,,,,1.083,,,,,,,,,,,,,,,,,,,,,,,604b169fe4b7991ec08da3a6,60a7d7fabf9a9a712d038866,2021-05-21_17h56.59.075,Simcolourproject_2stim_asymm_v5,2020.2.10,MacIntel,60,60a5f9bf14d0aa2821c4bb84,,,,,1525,25,-45,1,0,0,response3disk,,4,13,3,1,0,0,rectangle,13,3,1,0,0,1,"[236,246,209,297,74,106,288,255,105,195,113,295,6,315,220,3,287,223,132,38]",13,3,1,0,0,1,27,188,33,1,,,
,,,,,,,,,,,,,FF,,,,,,,,1.584,,,,,,,,,,,,,,,,,,,,,,,604b169fe4b7991ec08da3a6,60a7d7fabf9a9a712d038866,2021-05-21_17h56.59.075,Simcolourproject_2stim_asymm_v5,2020.2.10,MacIntel,60,60a5f9bf14d0aa2821c4bb84,,,,,281,51,-36,1,0,0,response3disk,,5,17,2,1,0,0,rectangle,17,2,1,0,0,6,"[236,246,209,297,74,106,288,255,105,195,113,295,6,315,220,3,287,223,132,38]",17,2,1,0,0,1,28,189,16,1,,,
,,,,,,,,,,,,,FF,,,,,,,,0.6,,,,,,,,,,,,,,,,,,,,,,,604b169fe4b7991ec08da3a6,60a7d7fabf9a9a712d038866,2021-05-21_17h56.59.075,Simcolourproject_2stim_asymm_v5,2020.2.10,MacIntel,60,60a5f9bf14d0aa2821c4bb84,,,,,108,48,-30,1,0,0,response3disk,,5,24,-17,1,0,0,rectangle,24,-17,1,0,0,4,"[236,246,209,297,74,106,288,255,105,195,113,295,6,315,220,3,287,223,132,38]",24,-17,1,0,0,1,29,190,72,1,,,
,,,,,,,,,,,,,FF,,,,,,,,0.966,,,,,,,,,,,,,,,,,,,,,,,604b169fe4b7991ec08da3a6,60a7d7fabf9a9a712d038866,2021-05-21_17h56.59.075,Simcolourproject_2stim_asymm_v5,2020.2.10,MacIntel,60,60a5f9bf14d0aa2821c4bb84,,,,,1349,-25,-55,1,0,0,response5disk,,3,-7,-7,1,0,0,rectangle,-7,-7,1,0,0,5,"[236,246,209,297,74,106,288,255,105,195,113,295,6,315,220,3,287,223,132,38]",-7,-7,1,0,0,1,30,191,87,1,,,
,,,,,,,,,,,,,FF,,,,,,,,2.15,,,,,,,,,,,,,,,,,,,,,,,604b169fe4b7991ec08da3a6,60a7d7fabf9a9a712d038866,2021-05-21_17h56.59.075,Simcolourproject_2stim_asymm_v5,2020.2.10,MacIntel,60,60a5f9bf14d0aa2821c4bb84,,,,,796,28,-40,1,0,0,response3disk,,4,15,-3,1,0,0,rectangle,15,-3,1,0,0,6,"[236,246,209,297,74,106,288,255,105,195,113,295,6,315,220,3,287,223,132,38]",15,-3,1,0,0,1,31,192,29,1,,,
,,,,,,,,,,,,,FF,,,,,,,,1.783,,,,,,,,,,,,,,,,,,,,,,,604b169fe4b7991ec08da3a6,60a7d7fabf9a9a712d038866,2021-05-21_17h56.59.075,Simcolourproject_2stim_asymm_v5,2020.2.10,MacIntel,60,60a5f9bf14d0aa2821c4bb84,,,,,769,59,26,1,0,0,response1disk,,6,28,9,1,0,0,rectangle,28,9,1,0,0,5,"[236,246,209,297,74,106,288,255,105,195,113,295,6,315,220,3,287,223,132,38]",28,9,1,0,0,1,32,193,67,1,,,
,,,,,,,,,,,,,FF,,,,,,,,1.015,,,,,,,,,,,,,,,,,,,,,,,604b169fe4b7991ec08da3a6,60a7d7fabf9a9a712d038866,2021-05-21_17h56.59.075,Simcolourproject_2stim_asymm_v5,2020.2.10,MacIntel,60,60a5f9bf14d0aa2821c4bb84,,,,,2462,56,36,1,0,0,response1disk,,6,32,5,1,0,0,rectangle,21,70,1,0,0,7,"[236,246,209,297,74,106,288,255,105,195,113,295,6,315,220,3,287,223,132,38]",6,2,1,0,0,1,33,194,141,1,,response1disk_3,rectangle
,,,,,,,,,,,,,FF,,,,,,,,1.6,,,,,,,,,,,,,,,,,,,,,,,604b169fe4b7991ec08da3a6,60a7d7fabf9a9a712d038866,2021-05-21_17h56.59.075,Simcolourproject_2stim_asymm_v5,2020.2.10,MacIntel,60,60a5f9bf14d0aa2821c4bb84,,,,,4306,-78,-22,1,0,0,response5disk,,7,-10,-1,1,0,0,rectangle,-10,-1,1,0,0,0,"[236,246,209,297,74,106,288,255,105,195,113,295,6,315,220,3,287,223,132,38]",-10,-1,1,0,0,1,34,195,70,1,,,
,,,,,,,,,,,,,FF,,,,,,,,1.268,,,,,,,,,,,,,,,,,,,,,,,604b169fe4b7991ec08da3a6,60a7d7fabf9a9a712d038866,2021-05-21_17h56.59.075,Simcolourproject_2stim_asymm_v5,2020.2.10,MacIntel,60,60a5f9bf14d0aa2821c4bb84,,,,,60,52,-31,1,0,0,response3disk,,5,14,-7,1,0,0,rectangle,14,-7,1,0,0,0,"[236,246,209,297,74,106,288,255,105,195,113,295,6,315,220,3,287,223,132,38]",14,-7,1,0,0,1,35,196,110,1,,,
,,,,,,,,,,,,,FF,,,,,,,,0.932,,,,,,,,,,,,,,,,,,,,,,,604b169fe4b7991ec08da3a6,60a7d7fabf9a9a712d038866,2021-05-21_17h56.59.075,Simcolourproject_2stim_asymm_v5,2020.2.10,MacIntel,60,60a5f9bf14d0aa2821c4bb84,,,,,3564,62,28,1,0,0,response1disk,,6,14,5,1,0,0,rectangle,14,5,1,0,0,5,"[236,246,209,297,74,106,288,255,105,195,113,295,6,315,220,3,287,223,132,38]",14,5,1,0,0,1,36,197,145,1,,,
,,,,,,,,,,,,,FF,,,,,,,,0.984,,,,,,,,,,,,,,,,,,,,,,,604b169fe4b7991ec08da3a6,60a7d7fabf9a9a712d038866,2021-05-21_17h56.59.075,Simcolourproject_2stim_asymm_v5,2020.2.10,MacIntel,60,60a5f9bf14d0aa2821c4bb84,,,,,235,46,-32,1,0,0,response3disk,,5,26,-7,1,0,0,rectangle,26,-7,1,0,0,2,"[236,246,209,297,74,106,288,255,105,195,113,295,6,315,220,3,287,223,132,38]",26,-7,1,0,0,1,37,198,50,1,,,
,,,,,,,,,,,,,FF,,,,,,,,0.767,,,,,,,,,,,,,,,,,,,,,,,604b169fe4b7991ec08da3a6,60a7d7fabf9a9a712d038866,2021-05-21_17h56.59.075,Simcolourproject_2stim_asymm_v5,2020.2.10,MacIntel,60,60a5f9bf14d0aa2821c4bb84,,,,,87,48,-38,1,0,0,response3disk,,5,23,-14,1,0,0,rectangle,23,-14,1,0,0,6,"[236,246,209,297,74,106,288,255,105,195,113,295,6,315,220,3,287,223,132,38]",23,-14,1,0,0,1,38,199,115,1,,,
,,,,,,,,,,,,,FF,,,,,,,,1.968,,,,,,,,,,,,,,,,,,,,,,,604b169fe4b7991ec08da3a6,60a7d7fabf9a9a712d038866,2021-05-21_17h56.59.075,Simcolourproject_2stim_asymm_v5,2020.2.10,MacIntel,60,60a5f9bf14d0aa2821c4bb84,,,,,1286,31,-77,1,0,0,response3disk,,4,16,-13,1,0,0,rectangle,16,-13,1,0,0,5,"[236,246,209,297,74,106,288,255,105,195,113,295,6,315,220,3,287,223,132,38]",16,-13,1,0,0,1,39,200,77,1,,,
,,,,,,,,,,,,,FF,,,,,,,,1.183,,,,,,,,,,,,,,,,,,,,,,,604b169fe4b7991ec08da3a6,60a7d7fabf9a9a712d038866,2021-05-21_17h56.59.075,Simcolourproject_2stim_asymm_v5,2020.2.10,MacIntel,60,60a5f9bf14d0aa2821c4bb84,,,,,1,-22,-51,1,0,0,response5disk,,3,-15,2,1,0,0,rectangle,-15,2,1,0,0,5,"[236,246,209,297,74,106,288,255,105,195,113,295,6,315,220,3,287,223,132,38]",-15,2,1,0,0,1,40,201,103,1,,,
,,,,,,,,,,,,,FF,,,,,,,,2.133,,,,,,,,,,,,,,,,,,,,,,,604b169fe4b7991ec08da3a6,60a7d7fabf9a9a712d038866,2021-05-21_17h56.59.075,Simcolourproject_2stim_asymm_v5,2020.2.10,MacIntel,60,60a5f9bf14d0aa2821c4bb84,,,,,2643,77,-30,1,0,0,response3disk,,5,20,-4,1,0,0,rectangle,20,-4,1,0,0,0,"[236,246,209,297,74,106,288,255,105,195,113,295,6,315,220,3,287,223,132,38]",20,-4,1,0,0,1,41,202,20,1,,,
,,,,,,,,,,,,,FF,,,,,,,,1.466,,,,,,,,,,,,,,,,,,,,,,,604b169fe4b7991ec08da3a6,60a7d7fabf9a9a712d038866,2021-05-21_17h56.59.075,Simcolourproject_2stim_asymm_v5,2020.2.10,MacIntel,60,60a5f9bf14d0aa2821c4bb84,,,,,2888,-64,-26,1,0,0,response5disk,,5,-30,-16,1,0,0,rectangle,-30,-16,1,0,0,1,"[236,246,209,297,74,106,288,255,105,195,113,295,6,315,220,3,287,223,132,38]",-30,-16,1,0,0,1,42,203,65,1,,,
,,,,,,,,,,,,,FF,,,,,,,,1.1,,,,,,,,,,,,,,,,,,,,,,,604b169fe4b7991ec08da3a6,60a7d7fabf9a9a712d038866,2021-05-21_17h56.59.075,Simcolourproject_2stim_asymm_v5,2020.2.10,MacIntel,60,60a5f9bf14d0aa2821c4bb84,,,,,604,-42,-26,1,0,0,response5disk,,5,-17,-17,1,0,0,rectangle,-17,-17,1,0,0,7,"[236,246,209,297,74,106,288,255,105,195,113,295,6,315,220,3,287,223,132,38]",-17,-17,1,0,0,1,43,204,9,1,,,
,,,,,,,,,,,,,FF,,,,,,,,1.983,,,,,,,,,,,,,,,,,,,,,,,604b169fe4b7991ec08da3a6,60a7d7fabf9a9a712d038866,2021-05-21_17h56.59.075,Simcolourproject_2stim_asymm_v5,2020.2.10,MacIntel,60,60a5f9bf14d0aa2821c4bb84,,,,,4262,39,64,1,0,0,response1disk,,7,6,13,1,0,0,rectangle,6,13,1,0,0,4,"[236,246,209,297,74,106,288,255,105,195,113,295,6,315,220,3,287,223,132,38]",6,13,1,0,0,1,44,205,94,1,,,
,,,,,,,,,,,,,FF,,,,,,,,0.967,,,,,,,,,,,,,,,,,,,,,,,604b169fe4b7991ec08da3a6,60a7d7fabf9a9a712d038866,2021-05-21_17h56.59.075,Simcolourproject_2stim_asymm_v5,2020.2.10,MacIntel,60,60a5f9bf14d0aa2821c4bb84,,,,,4031,26,44,1,0,0,response1disk,,7,-2,-12,1,0,0,rectangle,-2,-12,1,0,0,7,"[236,246,209,297,74,106,288,255,105,195,113,295,6,315,220,3,287,223,132,38]",-2,-12,1,0,0,1,45,206,143,1,,,
,,,,,,,,,,,,,FF,,,,,,,,1.301,,,,,,,,,,,,,,,,,,,,,,,604b169fe4b7991ec08da3a6,60a7d7fabf9a9a712d038866,2021-05-21_17h56.59.075,Simcolourproject_2stim_asymm_v5,2020.2.10,MacIntel,60,60a5f9bf14d0aa2821c4bb84,,,,,1991,29,59,1,0,0,response1disk,,7,16,9,1,0,0,rectangle,16,9,1,0,0,5,"[236,246,209,297,74,106,288,255,105,195,113,295,6,315,220,3,287,223,132,38]",16,9,1,0,0,1,46,207,84,1,,,
,,,,,,,,,,,,,FF,,,,,,,,1.115,,,,,,,,,,,,,,,,,,,,,,,604b169fe4b7991ec08da3a6,60a7d7fabf9a9a712d038866,2021-05-21_17h56.59.075,Simcolourproject_2stim_asymm_v5,2020.2.10,MacIntel,60,60a5f9bf14d0aa2821c4bb84,,,,,3960,37,62,1,0,0,response1disk,,7,4,7,1,0,0,rectangle,47,-26,1,0,0,5,"[236,246,209,297,74,106,288,255,105,195,113,295,6,315,220,3,287,223,132,38]",25,-13,1,0,0,1,47,208,135,1,,response3disk_3,rectangle
,,,,,,,,,,,,,FF,,,,,,,,1.233,,,,,,,,,,,,,,,,,,,,,,,604b169fe4b7991ec08da3a6,60a7d7fabf9a9a712d038866,2021-05-21_17h56.59.075,Simcolourproject_2stim_asymm_v5,2020.2.10,MacIntel,60,60a5f9bf14d0aa2821c4bb84,,,,,3598,-60,-34,1,0,0,response5disk,,5,-12,-5,1,0,0,rectangle,-12,-5,1,0,0,7,"[236,246,209,297,74,106,288,255,105,195,113,295,6,315,220,3,287,223,132,38]",-12,-5,1,0,0,1,48,209,125,1,,,
,,,,,,,,,,,,,FF,,,,,,,,1.201,,,,,,,,,,,,,,,,,,,,,,,604b169fe4b7991ec08da3a6,60a7d7fabf9a9a712d038866,2021-05-21_17h56.59.075,Simcolourproject_2stim_asymm_v5,2020.2.10,MacIntel,60,60a5f9bf14d0aa2821c4bb84,,,,,909,73,-31,1,0,0,response3disk,,5,18,-3,1,0,0,rectangle,18,-3,1,0,0,3,"[236,246,209,297,74,106,288,255,105,195,113,295,6,315,220,3,287,223,132,38]",18,-3,1,0,0,1,49,210,111,1,,,
,,,,,,,,,,,,,FF,,,,,,,,2.25,,,,,,,,,,,,,,,,,,,,,,,604b169fe4b7991ec08da3a6,60a7d7fabf9a9a712d038866,2021-05-21_17h56.59.075,Simcolourproject_2stim_asymm_v5,2020.2.10,MacIntel,60,60a5f9bf14d0aa2821c4bb84,,,,,489,-31,-58,1,0,0,response5disk,,3,-11,-3,1,0,0,rectangle,-11,-3,1,0,0,2,"[236,246,209,297,74,106,288,255,105,195,113,295,6,315,220,3,287,223,132,38]",-11,-3,1,0,0,1,50,211,2,1,,,
,,,,,,,,,,,,,FF,,,,,,,,1.298,,,,,,,,,,,,,,,,,,,,,,,604b169fe4b7991ec08da3a6,60a7d7fabf9a9a712d038866,2021-05-21_17h56.59.075,Simcolourproject_2stim_asymm_v5,2020.2.10,MacIntel,60,60a5f9bf14d0aa2821c4bb84,,,,,2389,-25,-67,1,0,0,response5disk,,3,-7,-17,1,0,0,rectangle,-7,-17,1,0,0,5,"[236,246,209,297,74,106,288,255,105,195,113,295,6,315,220,3,287,223,132,38]",-7,-17,1,0,0,1,51,212,91,1,,,
,,,,,,,,,,,,,FF,,,,,,,,1.033,,,,,,,,,,,,,,,,,,,,,,,604b169fe4b7991ec08da3a6,60a7d7fabf9a9a712d038866,2021-05-21_17h56.59.075,Simcolourproject_2stim_asymm_v5,2020.2.10,MacIntel,60,60a5f9bf14d0aa2821c4bb84,,,,,1416,70,28,1,0,0,response1disk,,6,31,2,1,0,0,rectangle,31,2,1,0,0,0,"[236,246,209,297,74,106,288,255,105,195,113,295,6,315,220,3,287,223,132,38]",31,2,1,0,0,1,52,213,114,1,,,
,,,,,,,,,,,,,FF,,,,,,,,1.401,,,,,,,,,,,,,,,,,,,,,,,604b169fe4b7991ec08da3a6,60a7d7fabf9a9a712d038866,2021-05-21_17h56.59.075,Simcolourproject_2stim_asymm_v5,2020.2.10,MacIntel,60,60a5f9bf14d0aa2821c4bb84,,,,,208,-39,-56,1,0,0,response5disk,,3,-19,-1,1,0,0,rectangle,-19,-1,1,0,0,5,"[236,246,209,297,74,106,288,255,105,195,113,295,6,315,220,3,287,223,132,38]",-19,-1,1,0,0,1,53,214,45,1,,,
,,,,,,,,,,,,,FF,,,,,,,,1.933,,,,,,,,,,,,,,,,,,,,,,,604b169fe4b7991ec08da3a6,60a7d7fabf9a9a712d038866,2021-05-21_17h56.59.075,Simcolourproject_2stim_asymm_v5,2020.2.10,MacIntel,60,60a5f9bf14d0aa2821c4bb84,,,,,2299,-45,-27,1,0,0,response5disk,,3,11,4,1,0,0,rectangle,11,4,1,0,0,7,"[236,246,209,297,74,106,288,255,105,195,113,295,6,315,220,3,287,223,132,38]",11,4,1,0,0,1,54,215,132,1,,,
,,,,,,,,,,,,,FF,,,,,,,,0.9,,,,,,,,,,,,,,,,,,,,,,,604b169fe4b7991ec08da3a6,60a7d7fabf9a9a712d038866,2021-05-21_17h56.59.075,Simcolourproject_2stim_asymm_v5,2020.2.10,MacIntel,60,60a5f9bf14d0aa2821c4bb84,,,,,3243,-52,34,1,0,0,response7disk,,1,-14,18,1,0,0,rectangle,-14,18,1,0,0,6,"[236,246,209,297,74,106,288,255,105,195,113,295,6,315,220,3,287,223,132,38]",-14,18,1,0,0,1,55,216,137,1,,,
,,,,,,,,,,,,,FF,,,,,,,,1.132,,,,,,,,,,,,,,,,,,,,,,,604b169fe4b7991ec08da3a6,60a7d7fabf9a9a712d038866,2021-05-21_17h56.59.075,Simcolourproject_2stim_asymm_v5,2020.2.10,MacIntel,60,60a5f9bf14d0aa2821c4bb84,,,,,2100,-58,34,1,0,0,response7disk,,1,-26,8,1,0,0,rectangle,-26,8,1,0,0,5,"[236,246,209,297,74,106,288,255,105,195,113,295,6,315,220,3,287,223,132,38]",-26,8,1,0,0,1,56,217,48,1,,,
,,,,,,,,,,,,,FF,,,,,,,,0.783,,,,,,,,,,,,,,,,,,,,,,,604b169fe4b7991ec08da3a6,60a7d7fabf9a9a712d038866,2021-05-21_17h56.59.075,Simcolourproject_2stim_asymm_v5,2020.2.10,MacIntel,60,60a5f9bf14d0aa2821c4bb84,,,,,4305,-52,27,1,0,0,response7disk,,1,-22,7,1,0,0,rectangle,-22,7,1,0,0,2,"[236,246,209,297,74,106,288,255,105,195,113,295,6,315,220,3,287,223,132,38]",-22,7,1,0,0,1,57,218,28,1,,,
,,,,,,,,,,,,,FF,,,,,,,,1.601,,,,,,,,,,,,,,,,,,,,,,,604b169fe4b7991ec08da3a6,60a7d7fabf9a9a712d038866,2021-05-21_17h56.59.075,Simcolourproject_2stim_asymm_v5,2020.2.10,MacIntel,60,60a5f9bf14d0aa2821c4bb84,,,,,1783,64,29,1,0,0,response1disk,,6,30,6,1,0,0,rectangle,67,33,1,0,0,6,"[236,246,209,297,74,106,288,255,105,195,113,295,6,315,220,3,287,223,132,38]",29,3,1,0,0,1,58,219,5,1,,response1disk_3,rectangle
,,,,,,,,,,,,,FF,,,,,,,,1.584,,,,,,,,,,,,,,,,,,,,,,,604b169fe4b7991ec08da3a6,60a7d7fabf9a9a712d038866,2021-05-21_17h56.59.075,Simcolourproject_2stim_asymm_v5,2020.2.10,MacIntel,60,60a5f9bf14d0aa2821c4bb84,,,,,3361,58,21,1,0,0,response1disk,,6,26,10,1,0,0,rectangle,26,10,1,0,0,7,"[236,246,209,297,74,106,288,255,105,195,113,295,6,315,220,3,287,223,132,38]",26,10,1,0,0,1,59,220,131,1,,,
,,,,,,,,,,,,,FF,,,,,,,,1.117,,,,,,,,,,,,,,,,,,,,,,,604b169fe4b7991ec08da3a6,60a7d7fabf9a9a712d038866,2021-05-21_17h56.59.075,Simcolourproject_2stim_asymm_v5,2020.2.10,MacIntel,60,60a5f9bf14d0aa2821c4bb84,,,,,1342,43,-30,1,0,0,response3disk,,5,18,-8,1,0,0,rectangle,18,-8,1,0,0,2,"[236,246,209,297,74,106,288,255,105,195,113,295,6,315,220,3,287,223,132,38]",18,-8,1,0,0,1,60,221,7,1,,,
,,,,,,,,,,,,,FF,,,,,,,,1.067,,,,,,,,,,,,,,,,,,,,,,,604b169fe4b7991ec08da3a6,60a7d7fabf9a9a712d038866,2021-05-21_17h56.59.075,Simcolourproject_2stim_asymm_v5,2020.2.10,MacIntel,60,60a5f9bf14d0aa2821c4bb84,,,,,3979,70,-29,1,0,0,response3disk,,5,18,-9,1,0,0,rectangle,-42,60,1,0,0,0,"[236,246,209,297,74,106,288,255,105,195,113,295,6,315,220,3,287,223,132,38]",-7,4,1,0,0,1,61,222,13,1,,response7disk_3,rectangle
,,,,,,,,,,,,,FF,,,,,,,,1.635,,,,,,,,,,,,,,,,,,,,,,,604b169fe4b7991ec08da3a6,60a7d7fabf9a9a712d038866,2021-05-21_17h56.59.075,Simcolourproject_2stim_asymm_v5,2020.2.10,MacIntel,60,60a5f9bf14d0aa2821c4bb84,,,,,1683,-67,-23,1,0,0,response5disk,,0,4,0,1,0,0,rectangle,4,0,1,0,0,4,"[236,246,209,297,74,106,288,255,105,195,113,295,6,315,220,3,287,223,132,38]",4,0,1,0,0,1,62,223,15,1,,,
,,,,,,,,,,,,,FF,,,,,,,,1.499,,,,,,,,,,,,,,,,,,,,,,,604b169fe4b7991ec08da3a6,60a7d7fabf9a9a712d038866,2021-05-21_17h56.59.075,Simcolourproject_2stim_asymm_v5,2020.2.10,MacIntel,60,60a5f9bf14d0aa2821c4bb84,,,,,2532,-31,-68,1,0,0,response5disk,,3,-10,2,1,0,0,rectangle,-10,2,1,0,0,2,"[236,246,209,297,74,106,288,255,105,195,113,295,6,315,220,3,287,223,132,38]",-10,2,1,0,0,1,63,224,122,1,,,
,,,,,,,,,,,,,FF,,,,,,,,0.916,,,,,,,,,,,,,,,,,,,,,,,604b169fe4b7991ec08da3a6,60a7d7fabf9a9a712d038866,2021-05-21_17h56.59.075,Simcolourproject_2stim_asymm_v5,2020.2.10,MacIntel,60,60a5f9bf14d0aa2821c4bb84,,,,,3328,-27,-68,1,0,0,response5disk,,3,-6,-10,1,0,0,rectangle,-6,-10,1,0,0,0,"[236,246,209,297,74,106,288,255,105,195,113,295,6,315,220,3,287,223,132,38]",-6,-10,1,0,0,1,64,225,76,1,,,
,,,,,,,,,,,,,FF,,,,,,,,1.067,,,,,,,,,,,,,,,,,,,,,,,604b169fe4b7991ec08da3a6,60a7d7fabf9a9a712d038866,2021-05-21_17h56.59.075,Simcolourproject_2stim_asymm_v5,2020.2.10,MacIntel,60,60a5f9bf14d0aa2821c4bb84,,,,,1338,70,-43,1,0,0,response3disk,,5,29,-15,1,0,0,rectangle,29,-15,1,0,0,7,"[236,246,209,297,74,106,288,255,105,195,113,295,6,315,220,3,287,223,132,38]",29,-15,1,0,0,1,65,226,75,1,,,
,,,,,,,,,,,,,FF,,,,,,,,0.766,,,,,,,,,,,,,,,,,,,,,,,604b169fe4b7991ec08da3a6,60a7d7fabf9a9a712d038866,2021-05-21_17h56.59.075,Simcolourproject_2stim_asymm_v5,2020.2.10,MacIntel,60,60a5f9bf14d0aa2821c4bb84,,,,,1471,45,-31,1,0,0,response3disk,,5,19,-16,1,0,0,rectangle,19,-16,1,0,0,6,"[236,246,209,297,74,106,288,255,105,195,113,295,6,315,220,3,287,223,132,38]",19,-16,1,0,0,1,66,227,26,1,,,
,,,,,,,,,,,,,FF,,,,,,,,1.05,,,,,,,,,,,,,,,,,,,,,,,604b169fe4b7991ec08da3a6,60a7d7fabf9a9a712d038866,2021-05-21_17h56.59.075,Simcolourproject_2stim_asymm_v5,2020.2.10,MacIntel,60,60a5f9bf14d0aa2821c4bb84,,,,,86,43,82,1,0,0,response1disk,,7,24,-1,1,0,0,rectangle,24,-1,1,0,0,2,"[236,246,209,297,74,106,288,255,105,195,113,295,6,315,220,3,287,223,132,38]",24,-1,1,0,0,1,67,228,58,1,,,
,,,,,,,,,,,,,FF,,,,,,,,0.866,,,,,,,,,,,,,,,,,,,,,,,604b169fe4b7991ec08da3a6,60a7d7fabf9a9a712d038866,2021-05-21_17h56.59.075,Simcolourproject_2stim_asymm_v5,2020.2.10,MacIntel,60,60a5f9bf14d0aa2821c4bb84,,,,,2048,63,30,1,0,0,response1disk,,6,21,3,1,0,0,rectangle,21,3,1,0,0,2,"[236,246,209,297,74,106,288,255,105,195,113,295,6,315,220,3,287,223,132,38]",21,3,1,0,0,1,68,229,54,1,,,
,,,,,,,,,,,,,FF,,,,,,,,2.383,,,,,,,,,,,,,,,,,,,,,,,604b169fe4b7991ec08da3a6,60a7d7fabf9a9a712d038866,2021-05-21_17h56.59.075,Simcolourproject_2stim_asymm_v5,2020.2.10,MacIntel,60,60a5f9bf14d0aa2821c4bb84,,,,,1898,-18,-46,1,0,0,response5disk,,3,-13,-14,1,0,0,rectangle,-13,-14,1,0,0,5,"[236,246,209,297,74,106,288,255,105,195,113,295,6,315,220,3,287,223,132,38]",-13,-14,1,0,0,1,69,230,149,1,,,
,,,,,,,,,,,,,FF,,,,,,,,1.401,,,,,,,,,,,,,,,,,,,,,,,604b169fe4b7991ec08da3a6,60a7d7fabf9a9a712d038866,2021-05-21_17h56.59.075,Simcolourproject_2stim_asymm_v5,2020.2.10,MacIntel,60,60a5f9bf14d0aa2821c4bb84,,,,,2868,35,-71,1,0,0,response3disk,,4,19,-18,1,0,0,rectangle,19,-18,1,0,0,0,"[236,246,209,297,74,106,288,255,105,195,113,295,6,315,220,3,287,223,132,38]",19,-18,1,0,0,1,70,231,6,1,,,
,,,,,,,,,,,,,FF,,,,,,,,0.883,,,,,,,,,,,,,,,,,,,,,,,604b169fe4b7991ec08da3a6,60a7d7fabf9a9a712d038866,2021-05-21_17h56.59.075,Simcolourproject_2stim_asymm_v5,2020.2.10,MacIntel,60,60a5f9bf14d0aa2821c4bb84,,,,,2450,57,43,1,0,0,response1disk,,6,18,3,1,0,0,rectangle,18,3,1,0,0,0,"[236,246,209,297,74,106,288,255,105,195,113,295,6,315,220,3,287,223,132,38]",18,3,1,0,0,1,71,232,17,1,,,
,,,,,,,,,,,,,FF,,,,,,,,0.851,,,,,,,,,,,,,,,,,,,,,,,604b169fe4b7991ec08da3a6,60a7d7fabf9a9a712d038866,2021-05-21_17h56.59.075,Simcolourproject_2stim_asymm_v5,2020.2.10,MacIntel,60,60a5f9bf14d0aa2821c4bb84,,,,,314,90,46,1,0,0,response1disk,,6,31,8,1,0,0,rectangle,31,8,1,0,0,4,"[236,246,209,297,74,106,288,255,105,195,113,295,6,315,220,3,287,223,132,38]",31,8,1,0,0,1,72,233,151,1,,,
,,,,,,,,,,,,,FF,,,,,,,,1,,,,,,,,,,,,,,,,,,,,,,,604b169fe4b7991ec08da3a6,60a7d7fabf9a9a712d038866,2021-05-21_17h56.59.075,Simcolourproject_2stim_asymm_v5,2020.2.10,MacIntel,60,60a5f9bf14d0aa2821c4bb84,,,,,1157,74,43,1,0,0,response1disk,,6,31,9,1,0,0,rectangle,31,9,1,0,0,5,"[236,246,209,297,74,106,288,255,105,195,113,295,6,315,220,3,287,223,132,38]",31,9,1,0,0,1,73,234,129,1,,,
,,,,,,,,,,,,,FF,,,,,,,,1.534,,,,,,,,,,,,,,,,,,,,,,,604b169fe4b7991ec08da3a6,60a7d7fabf9a9a712d038866,2021-05-21_17h56.59.075,Simcolourproject_2stim_asymm_v5,2020.2.10,MacIntel,60,60a5f9bf14d0aa2821c4bb84,,,,,3581,21,-81,1,0,0,response3disk,,4,20,-13,1,0,0,rectangle,44,-32,1,0,0,5,"[236,246,209,297,74,106,288,255,105,195,113,295,6,315,220,3,287,223,132,38]",17,-4,1,0,0,1,74,235,100,1,,response3disk_3,rectangle
,,,,,,,,,,,,,FF,,,,,,,,1.534,,,,,,,,,,,,,,,,,,,,,,,604b169fe4b7991ec08da3a6,60a7d7fabf9a9a712d038866,2021-05-21_17h56.59.075,Simcolourproject_2stim_asymm_v5,2020.2.10,MacIntel,60,60a5f9bf14d0aa2821c4bb84,,,,,881,61,43,1,0,0,response1disk,,6,33,-1,1,0,0,rectangle,33,-1,1,0,0,0,"[236,246,209,297,74,106,288,255,105,195,113,295,6,315,220,3,287,223,132,38]",33,-1,1,0,0,1,75,236,80,1,,,
,,,,,,,,,,,,,FF,,,,,,,,1.283,,,,,,,,,,,,,,,,,,,,,,,604b169fe4b7991ec08da3a6,60a7d7fabf9a9a712d038866,2021-05-21_17h56.59.075,Simcolourproject_2stim_asymm_v5,2020.2.10,MacIntel,60,60a5f9bf14d0aa2821c4bb84,,,,,2137,40,71,1,0,0,response1disk,,7,27,-1,1,0,0,rectangle,27,-1,1,0,0,4,"[236,246,209,297,74,106,288,255,105,195,113,295,6,315,220,3,287,223,132,38]",27,-1,1,0,0,1,76,237,19,1,,,
,,,,,,,,,,,,,FF,,,,,,,,1.45,,,,,,,,,,,,,,,,,,,,,,,604b169fe4b7991ec08da3a6,60a7d7fabf9a9a712d038866,2021-05-21_17h56.59.075,Simcolourproject_2stim_asymm_v5,2020.2.10,MacIntel,60,60a5f9bf14d0aa2821c4bb84,,,,,3295,27,-66,1,0,0,response3disk,,4,11,-3,1,0,0,rectangle,11,-3,1,0,0,0,"[236,246,209,297,74,106,288,255,105,195,113,295,6,315,220,3,287,223,132,38]",11,-3,1,0,0,1,77,238,49,1,,,
,,,,,,,,,,,,,FF,,,,,,,,1.517,,,,,,,,,,,,,,,,,,,,,,,604b169fe4b7991ec08da3a6,60a7d7fabf9a9a712d038866,2021-05-21_17h56.59.075,Simcolourproject_2stim_asymm_v5,2020.2.10,MacIntel,60,60a5f9bf14d0aa2821c4bb84,,,,,1975,-31,-57,1,0,0,response5disk,,3,-19,-9,1,0,0,rectangle,-19,-9,1,0,0,1,"[236,246,209,297,74,106,288,255,105,195,113,295,6,315,220,3,287,223,132,38]",-19,-9,1,0,0,1,78,239,97,1,,,
,,,,,,,,,,,,,FF,,,,,,,,1.382,,,,,,,,,,,,,,,,,,,,,,,604b169fe4b7991ec08da3a6,60a7d7fabf9a9a712d038866,2021-05-21_17h56.59.075,Simcolourproject_2stim_asymm_v5,2020.2.10,MacIntel,60,60a5f9bf14d0aa2821c4bb84,,,,,131,49,97,1,0,0,response1disk,,7,5,0,1,0,0,rectangle,5,0,1,0,0,0,"[236,246,209,297,74,106,288,255,105,195,113,295,6,315,220,3,287,223,132,38]",5,0,1,0,0,1,79,240,18,1,,,
,,,,,,,,,,,,,FF,,,,,,,,1.083,,,,,,,,,,,,,,,,,,,,,,,604b169fe4b7991ec08da3a6,60a7d7fabf9a9a712d038866,2021-05-21_17h56.59.075,Simcolourproject_2stim_asymm_v5,2020.2.10,MacIntel,60,60a5f9bf14d0aa2821c4bb84,,,,,2974,-30,-74,1,0,0,response5disk,,3,2,5,1,0,0,rectangle,2,5,1,0,0,0,"[236,246,209,297,74,106,288,255,105,195,113,295,6,315,220,3,287,223,132,38]",2,5,1,0,0,1,80,241,118,1,,,
,,,,,,,,,,,,,FF,,,,,,,,1.333,,,,,,,,,,,,,,,,,,,,,,,604b169fe4b7991ec08da3a6,60a7d7fabf9a9a712d038866,2021-05-21_17h56.59.075,Simcolourproject_2stim_asymm_v5,2020.2.10,MacIntel,60,60a5f9bf14d0aa2821c4bb84,,,,,3818,48,-70,1,0,0,response3disk,,4,28,-13,1,0,0,rectangle,28,-13,1,0,0,1,"[236,246,209,297,74,106,288,255,105,195,113,295,6,315,220,3,287,223,132,38]",28,-13,1,0,0,1,81,242,144,1,,,
,,,,,,,,,,,,,FF,,,,,,,,1.332,,,,,,,,,,,,,,,,,,,,,,,604b169fe4b7991ec08da3a6,60a7d7fabf9a9a712d038866,2021-05-21_17h56.59.075,Simcolourproject_2stim_asymm_v5,2020.2.10,MacIntel,60,60a5f9bf14d0aa2821c4bb84,,,,,3921,70,28,1,0,0,response1disk,,6,15,-8,1,0,0,rectangle,15,-8,1,0,0,4,"[236,246,209,297,74,106,288,255,105,195,113,295,6,315,220,3,287,223,132,38]",15,-8,1,0,0,1,82,243,40,1,,,
,,,,,,,,,,,,,FF,,,,,,,,1.8,,,,,,,,,,,,,,,,,,,,,,,604b169fe4b7991ec08da3a6,60a7d7fabf9a9a712d038866,2021-05-21_17h56.59.075,Simcolourproject_2stim_asymm_v5,2020.2.10,MacIntel,60,60a5f9bf14d0aa2821c4bb84,,,,,3697,49,80,1,0,0,response1disk,,7,12,1,1,0,0,rectangle,12,1,1,0,0,7,"[236,246,209,297,74,106,288,255,105,195,113,295,6,315,220,3,287,223,132,38]",12,1,1,0,0,1,83,244,117,1,,,
,,,,,,,,,,,,,FF,,,,,,,,0.915,,,,,,,,,,,,,,,,,,,,,,,604b169fe4b7991ec08da3a6,60a7d7fabf9a9a712d038866,2021-05-21_17h56.59.075,Simcolourproject_2stim_asymm_v5,2020.2.10,MacIntel,60,60a5f9bf14d0aa2821c4bb84,,,,,2662,-57,-26,1,0,0,response5disk,,7,-9,-5,1,0,0,rectangle,-44,54,1,0,0,0,"[236,246,209,297,74,106,288,255,105,195,113,295,6,315,220,3,287,223,132,38]",-17,-12,1,0,0,1,84,245,152,1,,response7disk_3,rectangle
,,,,,,,,,,,,,FF,,,,,,,,0.965,,,,,,,,,,,,,,,,,,,,,,,604b169fe4b7991ec08da3a6,60a7d7fabf9a9a712d038866,2021-05-21_17h56.59.075,Simcolourproject_2stim_asymm_v5,2020.2.10,MacIntel,60,60a5f9bf14d0aa2821c4bb84,,,,,2088,-33,-54,1,0,0,response5disk,,3,-14,9,1,0,0,rectangle,-14,9,1,0,0,6,"[236,246,209,297,74,106,288,255,105,195,113,295,6,315,220,3,287,223,132,38]",-14,9,1,0,0,1,85,246,79,1,,,
,,,,,,,,,,,,,FF,,,,,,,,1.132,,,,,,,,,,,,,,,,,,,,,,,604b169fe4b7991ec08da3a6,60a7d7fabf9a9a712d038866,2021-05-21_17h56.59.075,Simcolourproject_2stim_asymm_v5,2020.2.10,MacIntel,60,60a5f9bf14d0aa2821c4bb84,,,,,4131,47,72,1,0,0,response1disk,,7,12,-1,1,0,0,rectangle,12,-1,1,0,0,1,"[236,246,209,297,74,106,288,255,105,195,113,295,6,315,220,3,287,223,132,38]",12,-1,1,0,0,1,86,247,3,1,,,
,,,,,,,,,,,,,FF,,,,,,,,0.95,,,,,,,,,,,,,,,,,,,,,,,604b169fe4b7991ec08da3a6,60a7d7fabf9a9a712d038866,2021-05-21_17h56.59.075,Simcolourproject_2stim_asymm_v5,2020.2.10,MacIntel,60,60a5f9bf14d0aa2821c4bb84,,,,,220,29,-66,1,0,0,response3disk,,4,18,-11,1,0,0,rectangle,18,-11,1,0,0,3,"[236,246,209,297,74,106,288,255,105,195,113,295,6,315,220,3,287,223,132,38]",18,-11,1,0,0,1,87,248,27,1,,,
