key_resp.keys,key_resp.rt,key_resp_14.keys,key_resp_14.rt,key_resp_15.keys,key_resp_15.rt,key_resp_17.keys,key_resp_17.rt,key_resp_9.keys,key_resp_9.rt,key_resp_10.keys,key_resp_10.rt,practice_comparison,Ecc,mouse_5.x,mouse_5.y,mouse_5.leftButton,mouse_5.midButton,mouse_5.rightButton,mouse_5.clicked_name,pracsimilarity,response_time,mouse_10.x,mouse_10.y,mouse_10.leftButton,mouse_10.midButton,mouse_10.rightButton,mouse_10.clicked_name,mouse_7.x,mouse_7.y,mouse_7.leftButton,mouse_7.midButton,mouse_7.rightButton,mouse_7.clicked_name,catchnumberprac,mouse_6.x,mouse_6.y,mouse_6.leftButton,mouse_6.midButton,mouse_6.rightButton,mouse_6.clicked_name,duringprac.thisRepN,duringprac.thisTrialN,duringprac.thisN,duringprac.thisIndex,duringprac.ran,participant,session,date,expName,psychopyVersion,OS,frameRate,study_id,key_resp_22.keys,key_resp_22.rt,realcomparison,mouse.x,mouse.y,mouse.leftButton,mouse.midButton,mouse.rightButton,mouse.clicked_name,Colour2,similarity,mouse_2.x,mouse_2.y,mouse_2.leftButton,mouse_2.midButton,mouse_2.rightButton,mouse_2.clicked_name,mouse_3.x,mouse_3.y,mouse_3.leftButton,mouse_3.midButton,mouse_3.rightButton,catchnumber,catchtrialorder,mouse_11.x,mouse_11.y,mouse_11.leftButton,mouse_11.midButton,mouse_11.rightButton,trials_2.thisRepN,trials_2.thisTrialN,trials_2.thisN,trials_2.thisIndex,trials_2.ran,Colour1,mouse_3.clicked_name,mouse_11.clicked_name
space,2.99682,space,14.08238,space,24.877385,space,10.774595,space,1.836565,space,4.57385,39,FF,-42.66660817,85.3333048,1,0,0,response7disk_5,0,8.381655,-10.66660722,-2.000010788,1,0,0,rectangle_8,78.0000214,109.3333259,1,0,0,response1disk_7,7,1.333393137,3.99998939,1,0,0,rectangle_4,0,0,0,5,1,604dedd2805fe682c5bc51c0,60a7d7fc9c148a64ce779f23,2021-05-21_17h56.54.483,Simcolourproject_2stim_asymm_v5,2020.2.10,Win32,60,60a5f9bf14d0aa2821c4bb84,,,,,,,,,,,,,,,,,,,,,,,,,,,,,,,,,,,,,
,,,,,,,,,,,,64,FF,98.00002199,-34.66667843,1,0,0,response3disk_5,5,4.750195,-14.66660734,-2.000010788,1,0,0,rectangle_8,-14.66660734,-2.000010788,1,0,0,,7,-14.66660734,-2.000010788,1,0,0,,0,1,1,0,1,604dedd2805fe682c5bc51c0,60a7d7fc9c148a64ce779f23,2021-05-21_17h56.54.483,Simcolourproject_2stim_asymm_v5,2020.2.10,Win32,60,60a5f9bf14d0aa2821c4bb84,,,,,,,,,,,,,,,,,,,,,,,,,,,,,,,,,,,,,
,,,,,,,,,,,,93,PF,-51.99998248,-68.66667944,1,0,0,response5disk_5,3,3.14555,7.333393315,6.666656137,1,0,0,rectangle_8,7.333393315,6.666656137,1,0,0,,7,7.333393315,6.666656137,1,0,0,,0,2,2,4,1,604dedd2805fe682c5bc51c0,60a7d7fc9c148a64ce779f23,2021-05-21_17h56.54.483,Simcolourproject_2stim_asymm_v5,2020.2.10,Win32,60,60a5f9bf14d0aa2821c4bb84,,,,,,,,,,,,,,,,,,,,,,,,,,,,,,,,,,,,,
,,,,,,,,,,,,81,FF,-48.66660835,-60.6666792,1,0,0,response5disk_5,3,2.516395,-11.3333146,0.666655958,1,0,0,rectangle_8,-11.3333146,0.666655958,1,0,0,,7,-11.3333146,0.666655958,1,0,0,,0,3,3,3,1,604dedd2805fe682c5bc51c0,60a7d7fc9c148a64ce779f23,2021-05-21_17h56.54.483,Simcolourproject_2stim_asymm_v5,2020.2.10,Win32,60,60a5f9bf14d0aa2821c4bb84,,,,,,,,,,,,,,,,,,,,,,,,,,,,,,,,,,,,,
,,,,,,,,,,,,45,PF,52.00002062,-84.00001323,1,0,0,response3disk_5,4,5.50122,3.333393196,11.99998963,1,0,0,rectangle_8,40.00002027,-85.33334661,1,0,0,response3disk_7,7,-3.333314359,-4.000010848,1,0,0,rectangle_4,0,4,4,2,1,604dedd2805fe682c5bc51c0,60a7d7fc9c148a64ce779f23,2021-05-21_17h56.54.483,Simcolourproject_2stim_asymm_v5,2020.2.10,Win32,60,60a5f9bf14d0aa2821c4bb84,,,,,,,,,,,,,,,,,,,,,,,,,,,,,,,,,,,,,
,,,,,,,,,,,,131,PF,-45.33331561,-71.33334619,1,0,0,response5disk_5,3,1.687745,17.33339361,11.33332294,1,0,0,rectangle_8,17.33339361,11.33332294,1,0,0,,7,17.33339361,11.33332294,1,0,0,,0,5,5,1,1,604dedd2805fe682c5bc51c0,60a7d7fc9c148a64ce779f23,2021-05-21_17h56.54.483,Simcolourproject_2stim_asymm_v5,2020.2.10,Win32,60,60a5f9bf14d0aa2821c4bb84,,,,,,,,,,,,,,,,,,,,,,,,,,,,,,,,,,,,,
,,,,,,,,,,,,94,PF,66.00002104,-91.33334678,1,0,0,response3disk_5,4,2.687045,-8.666607161,1.333322644,1,0,0,rectangle_8,-8.666607161,1.333322644,1,0,0,,7,-8.666607161,1.333322644,1,0,0,,0,6,6,6,1,604dedd2805fe682c5bc51c0,60a7d7fc9c148a64ce779f23,2021-05-21_17h56.54.483,Simcolourproject_2stim_asymm_v5,2020.2.10,Win32,60,60a5f9bf14d0aa2821c4bb84,,,,,,,,,,,,,,,,,,,,,,,,,,,,,,,,,,,,,
,,,,,,,,,,,,,FF,,,,,,,,3.148075,,,,,,,,,,,,,,,,,,,,,,,,,604dedd2805fe682c5bc51c0,60a7d7fc9c148a64ce779f23,2021-05-21_17h56.54.483,Simcolourproject_2stim_asymm_v5,2020.2.10,Win32,60,60a5f9bf14d0aa2821c4bb84,space,3.377805,3652,100.6666887,-42.00001198,1,0,0,response3disk,,5,1.9735E-05,3.99998939,1,0,0,rectangle,1.9735E-05,3.99998939,1,0,0,7,"[272,115,53,241,263,212,144,266,285,188,279,141,209,142,128,61,319,178,117,288]",1.9735E-05,3.99998939,1,0,0,0,0,0,31,1,,,
,,,,,,,,,,,,,FF,,,,,,,,2.18809,,,,,,,,,,,,,,,,,,,,,,,,,604dedd2805fe682c5bc51c0,60a7d7fc9c148a64ce779f23,2021-05-21_17h56.54.483,Simcolourproject_2stim_asymm_v5,2020.2.10,Win32,60,60a5f9bf14d0aa2821c4bb84,,,967,52.00002062,67.33330427,1,0,0,response1disk,,7,8.000019312,-3.333344162,1,0,0,rectangle,8.000019312,-3.333344162,1,0,0,6,"[272,115,53,241,263,212,144,266,285,188,279,141,209,142,128,61,319,178,117,288]",8.000019312,-3.333344162,1,0,0,0,1,1,65,1,,,
,,,,,,,,,,,,,FF,,,,,,,,1.5416,,,,,,,,,,,,,,,,,,,,,,,,,604dedd2805fe682c5bc51c0,60a7d7fc9c148a64ce779f23,2021-05-21_17h56.54.483,Simcolourproject_2stim_asymm_v5,2020.2.10,Win32,60,60a5f9bf14d0aa2821c4bb84,,,942,80.66668814,-28.00001156,1,0,0,response3disk,,5,-21.99998158,6.666656137,1,0,0,rectangle,-21.99998158,6.666656137,1,0,0,5,"[272,115,53,241,263,212,144,266,285,188,279,141,209,142,128,61,319,178,117,288]",-21.99998158,6.666656137,1,0,0,0,2,2,78,1,,,
,,,,,,,,,,,,,FF,,,,,,,,2.334155,,,,,,,,,,,,,,,,,,,,,,,,,604dedd2805fe682c5bc51c0,60a7d7fc9c148a64ce779f23,2021-05-21_17h56.54.483,Simcolourproject_2stim_asymm_v5,2020.2.10,Win32,60,60a5f9bf14d0aa2821c4bb84,,,2524,92.6666885,27.33330307,1,0,0,response1disk,,6,1.333393137,1.999989331,1,0,0,rectangle,1.333393137,1.999989331,1,0,0,2,"[272,115,53,241,263,212,144,266,285,188,279,141,209,142,128,61,319,178,117,288]",1.333393137,1.999989331,1,0,0,0,3,3,142,1,,,
,,,,,,,,,,,,,FF,,,,,,,,1.667335,,,,,,,,,,,,,,,,,,,,,,,,,604dedd2805fe682c5bc51c0,60a7d7fc9c148a64ce779f23,2021-05-21_17h56.54.483,Simcolourproject_2stim_asymm_v5,2020.2.10,Win32,60,60a5f9bf14d0aa2821c4bb84,,,453,88.0000217,-33.33334506,1,0,0,response3disk,,5,-9.999981225,3.99998939,1,0,0,rectangle,-9.999981225,3.99998939,1,0,0,4,"[272,115,53,241,263,212,144,266,285,188,279,141,209,142,128,61,319,178,117,288]",-9.999981225,3.99998939,1,0,0,0,4,4,133,1,,,
,,,,,,,,,,,,,FF,,,,,,,,1.913105,,,,,,,,,,,,,,,,,,,,,,,,,604dedd2805fe682c5bc51c0,60a7d7fc9c148a64ce779f23,2021-05-21_17h56.54.483,Simcolourproject_2stim_asymm_v5,2020.2.10,Win32,60,60a5f9bf14d0aa2821c4bb84,,,2766,86.66668832,-26.66667819,1,0,0,response3disk,,5,10.00001937,1.999989331,1,0,0,rectangle,10.00001937,1.999989331,1,0,0,5,"[272,115,53,241,263,212,144,266,285,188,279,141,209,142,128,61,319,178,117,288]",10.00001937,1.999989331,1,0,0,0,5,5,151,1,,,
,,,,,,,,,,,,,FF,,,,,,,,3.25026,,,,,,,,,,,,,,,,,,,,,,,,,604dedd2805fe682c5bc51c0,60a7d7fc9c148a64ce779f23,2021-05-21_17h56.54.483,Simcolourproject_2stim_asymm_v5,2020.2.10,Win32,60,60a5f9bf14d0aa2821c4bb84,,,1573,86.00002164,-24.66667813,1,0,0,response3disk,,5,-3.999981046,11.99998963,1,0,0,rectangle,-3.999981046,11.99998963,1,0,0,3,"[272,115,53,241,263,212,144,266,285,188,279,141,209,142,128,61,319,178,117,288]",-3.999981046,11.99998963,1,0,0,0,6,6,36,1,,,
,,,,,,,,,,,,,FF,,,,,,,,2.27096,,,,,,,,,,,,,,,,,,,,,,,,,604dedd2805fe682c5bc51c0,60a7d7fc9c148a64ce779f23,2021-05-21_17h56.54.483,Simcolourproject_2stim_asymm_v5,2020.2.10,Win32,60,60a5f9bf14d0aa2821c4bb84,,,395,49.33335388,-88.00001335,1,0,0,response3disk,,4,4.666685879,-11.3333444,1,0,0,rectangle,4.666685879,-11.3333444,1,0,0,1,"[272,115,53,241,263,212,144,266,285,188,279,141,209,142,128,61,319,178,117,288]",4.666685879,-11.3333444,1,0,0,0,7,7,115,1,,,
,,,,,,,,,,,,,FF,,,,,,,,1.729965,,,,,,,,,,,,,,,,,,,,,,,,,604dedd2805fe682c5bc51c0,60a7d7fc9c148a64ce779f23,2021-05-21_17h56.54.483,Simcolourproject_2stim_asymm_v5,2020.2.10,Win32,60,60a5f9bf14d0aa2821c4bb84,,,2056,80.00002146,-38.66667855,1,0,0,response3disk,,5,5.333393256,-1.07288E-05,1,0,0,rectangle,5.333393256,-1.07288E-05,1,0,0,7,"[272,115,53,241,263,212,144,266,285,188,279,141,209,142,128,61,319,178,117,288]",5.333393256,-1.07288E-05,1,0,0,0,8,8,140,1,,,
,,,,,,,,,,,,,FF,,,,,,,,1.81898,,,,,,,,,,,,,,,,,,,,,,,,,604dedd2805fe682c5bc51c0,60a7d7fc9c148a64ce779f23,2021-05-21_17h56.54.483,Simcolourproject_2stim_asymm_v5,2020.2.10,Win32,60,60a5f9bf14d0aa2821c4bb84,,,1858,39.33339427,-68.00001276,1,0,0,response3disk,,4,6.666685939,-6.000010908,1,0,0,rectangle,6.666685939,-6.000010908,1,0,0,0,"[272,115,53,241,263,212,144,266,285,188,279,141,209,142,128,61,319,178,117,288]",6.666685939,-6.000010908,1,0,0,0,9,9,76,1,,,
,,,,,,,,,,,,,FF,,,,,,,,1.829265,,,,,,,,,,,,,,,,,,,,,,,,,604dedd2805fe682c5bc51c0,60a7d7fc9c148a64ce779f23,2021-05-21_17h56.54.483,Simcolourproject_2stim_asymm_v5,2020.2.10,Win32,60,60a5f9bf14d0aa2821c4bb84,,,2568,43.3333537,-68.66667944,1,0,0,response3disk,,4,10.00001937,5.99998945,1,0,0,rectangle,10.00001937,5.99998945,1,0,0,0,"[272,115,53,241,263,212,144,266,285,188,279,141,209,142,128,61,319,178,117,288]",10.00001937,5.99998945,1,0,0,0,10,10,52,1,,,
,,,,,,,,,,,,,FF,,,,,,,,2.167105,,,,,,,,,,,,,,,,,,,,,,,,,604dedd2805fe682c5bc51c0,60a7d7fc9c148a64ce779f23,2021-05-21_17h56.54.483,Simcolourproject_2stim_asymm_v5,2020.2.10,Win32,60,60a5f9bf14d0aa2821c4bb84,,,3013,93.33335519,44.66665727,1,0,0,response1disk,,6,2.66668582,7.99998951,1,0,0,rectangle,2.66668582,7.99998951,1,0,0,2,"[272,115,53,241,263,212,144,266,285,188,279,141,209,142,128,61,319,178,117,288]",2.66668582,7.99998951,1,0,0,0,11,11,10,1,,,
,,,,,,,,,,,,,FF,,,,,,,,2.479705,,,,,,,,,,,,,,,,,,,,,,,,,604dedd2805fe682c5bc51c0,60a7d7fc9c148a64ce779f23,2021-05-21_17h56.54.483,Simcolourproject_2stim_asymm_v5,2020.2.10,Win32,60,60a5f9bf14d0aa2821c4bb84,,,1823,-73.33331645,-38.00001186,1,0,0,response5disk,,6,-3.333314359,-3.333344162,1,0,0,rectangle,-3.333314359,-3.333344162,1,0,0,3,"[272,115,53,241,263,212,144,266,285,188,279,141,209,142,128,61,319,178,117,288]",-3.333314359,-3.333344162,1,0,0,0,12,12,58,1,,,
,,,,,,,,,,,,,FF,,,,,,,,2.458185,,,,,,,,,,,,,,,,,,,,,,,,,604dedd2805fe682c5bc51c0,60a7d7fc9c148a64ce779f23,2021-05-21_17h56.54.483,Simcolourproject_2stim_asymm_v5,2020.2.10,Win32,60,60a5f9bf14d0aa2821c4bb84,,,1844,32.66668671,-83.33334655,1,0,0,response3disk,,4,-2.666606983,-2.000010788,1,0,0,rectangle,-2.666606983,-2.000010788,1,0,0,3,"[272,115,53,241,263,212,144,266,285,188,279,141,209,142,128,61,319,178,117,288]",-2.666606983,-2.000010788,1,0,0,0,13,13,77,1,,,
,,,,,,,,,,,,,FF,,,,,,,,1.666965,,,,,,,,,,,,,,,,,,,,,,,,,604dedd2805fe682c5bc51c0,60a7d7fc9c148a64ce779f23,2021-05-21_17h56.54.483,Simcolourproject_2stim_asymm_v5,2020.2.10,Win32,60,60a5f9bf14d0aa2821c4bb84,,,1024,74.66668797,-48.00001216,1,0,0,response3disk,,5,1.333393137,2.666656017,1,0,0,rectangle,1.333393137,2.666656017,1,0,0,0,"[272,115,53,241,263,212,144,266,285,188,279,141,209,142,128,61,319,178,117,288]",1.333393137,2.666656017,1,0,0,0,14,14,35,1,,,
,,,,,,,,,,,,,FF,,,,,,,,1.3337,,,,,,,,,,,,,,,,,,,,,,,,,604dedd2805fe682c5bc51c0,60a7d7fc9c148a64ce779f23,2021-05-21_17h56.54.483,Simcolourproject_2stim_asymm_v5,2020.2.10,Win32,60,60a5f9bf14d0aa2821c4bb84,,,1351,78.0000214,-52.00001228,1,0,0,response3disk,,5,15.33339355,9.999989569,1,0,0,rectangle,15.33339355,9.999989569,1,0,0,1,"[272,115,53,241,263,212,144,266,285,188,279,141,209,142,128,61,319,178,117,288]",15.33339355,9.999989569,1,0,0,0,15,15,70,1,,,
,,,,,,,,,,,,,FF,,,,,,,,2.500075,,,,,,,,,,,,,,,,,,,,,,,,,604dedd2805fe682c5bc51c0,60a7d7fc9c148a64ce779f23,2021-05-21_17h56.54.483,Simcolourproject_2stim_asymm_v5,2020.2.10,Win32,60,60a5f9bf14d0aa2821c4bb84,,,91,38.00002021,-82.66667986,1,0,0,response3disk,,4,1.9735E-05,2.666656017,1,0,0,rectangle,1.9735E-05,2.666656017,1,0,0,2,"[272,115,53,241,263,212,144,266,285,188,279,141,209,142,128,61,319,178,117,288]",1.9735E-05,2.666656017,1,0,0,0,16,16,32,1,,,
,,,,,,,,,,,,,FF,,,,,,,,3.104745,,,,,,,,,,,,,,,,,,,,,,,,,604dedd2805fe682c5bc51c0,60a7d7fc9c148a64ce779f23,2021-05-21_17h56.54.483,Simcolourproject_2stim_asymm_v5,2020.2.10,Win32,60,60a5f9bf14d0aa2821c4bb84,,,75,82.6666882,-61.33334589,1,0,0,response3disk,,5,-9.333314538,12.66665632,1,0,0,rectangle,-9.333314538,12.66665632,1,0,0,2,"[272,115,53,241,263,212,144,266,285,188,279,141,209,142,128,61,319,178,117,288]",-9.333314538,12.66665632,1,0,0,0,17,17,114,1,,,
,,,,,,,,,,,,,FF,,,,,,,,2.12509,,,,,,,,,,,,,,,,,,,,,,,,,604dedd2805fe682c5bc51c0,60a7d7fc9c148a64ce779f23,2021-05-21_17h56.54.483,Simcolourproject_2stim_asymm_v5,2020.2.10,Win32,60,60a5f9bf14d0aa2821c4bb84,,,4294,-33.33331525,-50.66667891,1,0,0,response5disk,,3,-7.333314478,-1.07288E-05,1,0,0,rectangle,-7.333314478,-1.07288E-05,1,0,0,5,"[272,115,53,241,263,212,144,266,285,188,279,141,209,142,128,61,319,178,117,288]",-7.333314478,-1.07288E-05,1,0,0,0,18,18,100,1,,,
,,,,,,,,,,,,,FF,,,,,,,,1.583265,,,,,,,,,,,,,,,,,,,,,,,,,604dedd2805fe682c5bc51c0,60a7d7fc9c148a64ce779f23,2021-05-21_17h56.54.483,Simcolourproject_2stim_asymm_v5,2020.2.10,Win32,60,60a5f9bf14d0aa2821c4bb84,,,2110,62.66668761,-39.33334523,1,0,0,response3disk,,5,12.00001943,0.666655958,1,0,0,rectangle,12.00001943,0.666655958,1,0,0,0,"[272,115,53,241,263,212,144,266,285,188,279,141,209,142,128,61,319,178,117,288]",12.00001943,0.666655958,1,0,0,0,19,19,121,1,,,
,,,,,,,,,,,,,FF,,,,,,,,1.43757,,,,,,,,,,,,,,,,,,,,,,,,,604dedd2805fe682c5bc51c0,60a7d7fc9c148a64ce779f23,2021-05-21_17h56.54.483,Simcolourproject_2stim_asymm_v5,2020.2.10,Win32,60,60a5f9bf14d0aa2821c4bb84,,,51,58.0000208,-66.0000127,1,0,0,response3disk,,4,3.333393196,7.99998951,1,0,0,rectangle,3.333393196,7.99998951,1,0,0,5,"[272,115,53,241,263,212,144,266,285,188,279,141,209,142,128,61,319,178,117,288]",3.333393196,7.99998951,1,0,0,0,20,20,45,1,,,
,,,,,,,,,,,,,FF,,,,,,,,1.35414,,,,,,,,,,,,,,,,,,,,,,,,,604dedd2805fe682c5bc51c0,60a7d7fc9c148a64ce779f23,2021-05-21_17h56.54.483,Simcolourproject_2stim_asymm_v5,2020.2.10,Win32,60,60a5f9bf14d0aa2821c4bb84,,,4324,70.66668785,32.66665691,1,0,0,response1disk,,6,6.000019252,-1.07288E-05,1,0,0,rectangle,6.000019252,-1.07288E-05,1,0,0,1,"[272,115,53,241,263,212,144,266,285,188,279,141,209,142,128,61,319,178,117,288]",6.000019252,-1.07288E-05,1,0,0,0,21,21,71,1,,,
,,,,,,,,,,,,,FF,,,,,,,,1.20927,,,,,,,,,,,,,,,,,,,,,,,,,604dedd2805fe682c5bc51c0,60a7d7fc9c148a64ce779f23,2021-05-21_17h56.54.483,Simcolourproject_2stim_asymm_v5,2020.2.10,Win32,60,60a5f9bf14d0aa2821c4bb84,,,4368,-43.99998224,74.66665816,1,0,0,response7disk,,0,2.66668582,-6.666677594,1,0,0,rectangle,2.66668582,-6.666677594,1,0,0,7,"[272,115,53,241,263,212,144,266,285,188,279,141,209,142,128,61,319,178,117,288]",2.66668582,-6.666677594,1,0,0,0,22,22,104,1,,,
,,,,,,,,,,,,,FF,,,,,,,,1.729575,,,,,,,,,,,,,,,,,,,,,,,,,604dedd2805fe682c5bc51c0,60a7d7fc9c148a64ce779f23,2021-05-21_17h56.54.483,Simcolourproject_2stim_asymm_v5,2020.2.10,Win32,60,60a5f9bf14d0aa2821c4bb84,,,356,-33.33331525,-52.00001228,1,0,0,response5disk,,3,8.666685998,7.99998951,1,0,0,rectangle,8.666685998,7.99998951,1,0,0,6,"[272,115,53,241,263,212,144,266,285,188,279,141,209,142,128,61,319,178,117,288]",8.666685998,7.99998951,1,0,0,0,23,23,24,1,,,
,,,,,,,,,,,,,FF,,,,,,,,1.85486,,,,,,,,,,,,,,,,,,,,,,,,,604dedd2805fe682c5bc51c0,60a7d7fc9c148a64ce779f23,2021-05-21_17h56.54.483,Simcolourproject_2stim_asymm_v5,2020.2.10,Win32,60,60a5f9bf14d0aa2821c4bb84,,,3110,44.00002038,-94.66668022,1,0,0,response3disk,,4,16.66668624,1.999989331,1,0,0,rectangle,16.66668624,1.999989331,1,0,0,6,"[272,115,53,241,263,212,144,266,285,188,279,141,209,142,128,61,319,178,117,288]",16.66668624,1.999989331,1,0,0,0,24,24,136,1,,,
,,,,,,,,,,,,,FF,,,,,,,,1.541765,,,,,,,,,,,,,,,,,,,,,,,,,604dedd2805fe682c5bc51c0,60a7d7fc9c148a64ce779f23,2021-05-21_17h56.54.483,Simcolourproject_2stim_asymm_v5,2020.2.10,Win32,60,60a5f9bf14d0aa2821c4bb84,,,2817,25.33339385,-62.66667926,1,0,0,response3disk,,4,-1.3333143,5.99998945,1,0,0,rectangle,-1.3333143,5.99998945,1,0,0,0,"[272,115,53,241,263,212,144,266,285,188,279,141,209,142,128,61,319,178,117,288]",-1.3333143,5.99998945,1,0,0,0,25,25,44,1,,,
,,,,,,,,,,,,,FF,,,,,,,,1.625535,,,,,,,,,,,,,,,,,,,,,,,,,604dedd2805fe682c5bc51c0,60a7d7fc9c148a64ce779f23,2021-05-21_17h56.54.483,Simcolourproject_2stim_asymm_v5,2020.2.10,Win32,60,60a5f9bf14d0aa2821c4bb84,,,4262,42.66668701,-75.33334631,1,0,0,response3disk,,4,-3.333314359,9.999989569,1,0,0,rectangle,-3.333314359,9.999989569,1,0,0,7,"[272,115,53,241,263,212,144,266,285,188,279,141,209,142,128,61,319,178,117,288]",-3.333314359,9.999989569,1,0,0,0,26,26,159,1,,,
,,,,,,,,,,,,,FF,,,,,,,,1.20887,,,,,,,,,,,,,,,,,,,,,,,,,604dedd2805fe682c5bc51c0,60a7d7fc9c148a64ce779f23,2021-05-21_17h56.54.483,Simcolourproject_2stim_asymm_v5,2020.2.10,Win32,60,60a5f9bf14d0aa2821c4bb84,,,1517,80.66668814,27.33330307,1,0,0,response1disk,,6,6.666685939,-6.666677594,1,0,0,rectangle,6.666685939,-6.666677594,1,0,0,5,"[272,115,53,241,263,212,144,266,285,188,279,141,209,142,128,61,319,178,117,288]",6.666685939,-6.666677594,1,0,0,0,27,27,18,1,,,
,,,,,,,,,,,,,FF,,,,,,,,1.521475,,,,,,,,,,,,,,,,,,,,,,,,,604dedd2805fe682c5bc51c0,60a7d7fc9c148a64ce779f23,2021-05-21_17h56.54.483,Simcolourproject_2stim_asymm_v5,2020.2.10,Win32,60,60a5f9bf14d0aa2821c4bb84,,,2906,56.66668743,-23.33334476,1,0,0,response3disk,,5,23.33339379,5.99998945,1,0,0,rectangle,23.33339379,5.99998945,1,0,0,6,"[272,115,53,241,263,212,144,266,285,188,279,141,209,142,128,61,319,178,117,288]",23.33339379,5.99998945,1,0,0,0,28,28,147,1,,,
,,,,,,,,,,,,,FF,,,,,,,,2.210025,,,,,,,,,,,,,,,,,,,,,,,,,604dedd2805fe682c5bc51c0,60a7d7fc9c148a64ce779f23,2021-05-21_17h56.54.483,Simcolourproject_2stim_asymm_v5,2020.2.10,Win32,60,60a5f9bf14d0aa2821c4bb84,,,2880,52.00002062,-81.33334649,1,0,0,response3disk,,4,6.666685939,6.666656137,1,0,0,rectangle,6.666685939,6.666656137,1,0,0,2,"[272,115,53,241,263,212,144,266,285,188,279,141,209,142,128,61,319,178,117,288]",6.666685939,6.666656137,1,0,0,0,29,29,113,1,,,
,,,,,,,,,,,,,FF,,,,,,,,5.20831,,,,,,,,,,,,,,,,,,,,,,,,,604dedd2805fe682c5bc51c0,60a7d7fc9c148a64ce779f23,2021-05-21_17h56.54.483,Simcolourproject_2stim_asymm_v5,2020.2.10,Win32,60,60a5f9bf14d0aa2821c4bb84,,,1166,-37.99998206,-83.33334655,1,0,0,response5disk,,3,5.333393256,9.999989569,1,0,0,rectangle,5.333393256,9.999989569,1,0,0,4,"[272,115,53,241,263,212,144,266,285,188,279,141,209,142,128,61,319,178,117,288]",5.333393256,9.999989569,1,0,0,0,30,30,96,1,,,
,,,,,,,,,,,,,FF,,,,,,,,2.91711,,,,,,,,,,,,,,,,,,,,,,,,,604dedd2805fe682c5bc51c0,60a7d7fc9c148a64ce779f23,2021-05-21_17h56.54.483,Simcolourproject_2stim_asymm_v5,2020.2.10,Win32,60,60a5f9bf14d0aa2821c4bb84,,,2236,-30.66660782,-42.66667867,1,0,0,response5disk,,3,-3.999981046,1.333322644,1,0,0,rectangle,-3.999981046,1.333322644,1,0,0,3,"[272,115,53,241,263,212,144,266,285,188,279,141,209,142,128,61,319,178,117,288]",-3.999981046,1.333322644,1,0,0,0,31,31,122,1,,,
,,,,,,,,,,,,,FF,,,,,,,,2.063495,,,,,,,,,,,,,,,,,,,,,,,,,604dedd2805fe682c5bc51c0,60a7d7fc9c148a64ce779f23,2021-05-21_17h56.54.483,Simcolourproject_2stim_asymm_v5,2020.2.10,Win32,60,60a5f9bf14d0aa2821c4bb84,,,1769,54.00002068,-77.33334637,1,0,0,response3disk,,4,9.333393375,11.33332294,1,0,0,rectangle,9.333393375,11.33332294,1,0,0,2,"[272,115,53,241,263,212,144,266,285,188,279,141,209,142,128,61,319,178,117,288]",9.333393375,11.33332294,1,0,0,0,32,32,26,1,,,
,,,,,,,,,,,,,FF,,,,,,,,4.937685,,,,,,,,,,,,,,,,,,,,,,,,,604dedd2805fe682c5bc51c0,60a7d7fc9c148a64ce779f23,2021-05-21_17h56.54.483,Simcolourproject_2stim_asymm_v5,2020.2.10,Win32,60,60a5f9bf14d0aa2821c4bb84,,,2853,36.00002015,-83.33334655,1,0,0,response3disk,,4,3.333393196,7.333322823,1,0,0,rectangle,3.333393196,7.333322823,1,0,0,3,"[272,115,53,241,263,212,144,266,285,188,279,141,209,142,128,61,319,178,117,288]",3.333393196,7.333322823,1,0,0,0,33,33,49,1,,,
,,,,,,,,,,,,,FF,,,,,,,,1.68772,,,,,,,,,,,,,,,,,,,,,,,,,604dedd2805fe682c5bc51c0,60a7d7fc9c148a64ce779f23,2021-05-21_17h56.54.483,Simcolourproject_2stim_asymm_v5,2020.2.10,Win32,60,60a5f9bf14d0aa2821c4bb84,,,1135,-66.66660889,-83.33334655,1,0,0,response5disk,,3,-9.333314538,13.333323,1,0,0,rectangle,-9.333314538,13.333323,1,0,0,1,"[272,115,53,241,263,212,144,266,285,188,279,141,209,142,128,61,319,178,117,288]",-9.333314538,13.333323,1,0,0,0,34,34,99,1,,,
,,,,,,,,,,,,,FF,,,,,,,,1.353625,,,,,,,,,,,,,,,,,,,,,,,,,604dedd2805fe682c5bc51c0,60a7d7fc9c148a64ce779f23,2021-05-21_17h56.54.483,Simcolourproject_2stim_asymm_v5,2020.2.10,Win32,60,60a5f9bf14d0aa2821c4bb84,,,2136,23.33339379,-48.66667885,1,0,0,response3disk,,4,8.666685998,-8.000010967,1,0,0,rectangle,8.666685998,-8.000010967,1,0,0,0,"[272,115,53,241,263,212,144,266,285,188,279,141,209,142,128,61,319,178,117,288]",8.666685998,-8.000010967,1,0,0,0,35,35,85,1,,,
,,,,,,,,,,,,,FF,,,,,,,,1.64647,,,,,,,,,,,,,,,,,,,,,,,,,604dedd2805fe682c5bc51c0,60a7d7fc9c148a64ce779f23,2021-05-21_17h56.54.483,Simcolourproject_2stim_asymm_v5,2020.2.10,Win32,60,60a5f9bf14d0aa2821c4bb84,,,3,-55.9999826,-70.00001281,1,0,0,response5disk,,3,-7.333314478,-2.666677475,1,0,0,rectangle,-7.333314478,-2.666677475,1,0,0,5,"[272,115,53,241,263,212,144,266,285,188,279,141,209,142,128,61,319,178,117,288]",-7.333314478,-2.666677475,1,0,0,0,36,36,135,1,,,
,,,,,,,,,,,,,FF,,,,,,,,1.25028,,,,,,,,,,,,,,,,,,,,,,,,,604dedd2805fe682c5bc51c0,60a7d7fc9c148a64ce779f23,2021-05-21_17h56.54.483,Simcolourproject_2stim_asymm_v5,2020.2.10,Win32,60,60a5f9bf14d0aa2821c4bb84,,,1668,73.33335459,28.66665679,1,0,0,response1disk,,6,25.33339385,-2.000010788,1,0,0,rectangle,25.33339385,-2.000010788,1,0,0,2,"[272,115,53,241,263,212,144,266,285,188,279,141,209,142,128,61,319,178,117,288]",25.33339385,-2.000010788,1,0,0,0,37,37,139,1,,,
,,,,,,,,,,,,,FF,,,,,,,,1.45873,,,,,,,,,,,,,,,,,,,,,,,,,604dedd2805fe682c5bc51c0,60a7d7fc9c148a64ce779f23,2021-05-21_17h56.54.483,Simcolourproject_2stim_asymm_v5,2020.2.10,Win32,60,60a5f9bf14d0aa2821c4bb84,,,975,-83.99998343,-30.66667831,1,0,0,response5disk,,6,-12.66660728,6.666656137,1,0,0,rectangle,-12.66660728,6.666656137,1,0,0,2,"[272,115,53,241,263,212,144,266,285,188,279,141,209,142,128,61,319,178,117,288]",-12.66660728,6.666656137,1,0,0,0,38,38,155,1,,,
,,,,,,,,,,,,,FF,,,,,,,,2.750025,,,,,,,,,,,,,,,,,,,,,,,,,604dedd2805fe682c5bc51c0,60a7d7fc9c148a64ce779f23,2021-05-21_17h56.54.483,Simcolourproject_2stim_asymm_v5,2020.2.10,Win32,60,60a5f9bf14d0aa2821c4bb84,,,1718,80.66668814,-38.66667855,1,0,0,response3disk,,5,4.666685879,1.999989331,1,0,0,rectangle,4.666685879,1.999989331,1,0,0,7,"[272,115,53,241,263,212,144,266,285,188,279,141,209,142,128,61,319,178,117,288]",4.666685879,1.999989331,1,0,0,0,39,39,73,1,,,
,,,,,,,,,,,,,FF,,,,,,,,1.43799,,,,,,,,,,,,,,,,,,,,,,,,,604dedd2805fe682c5bc51c0,60a7d7fc9c148a64ce779f23,2021-05-21_17h56.54.483,Simcolourproject_2stim_asymm_v5,2020.2.10,Win32,60,60a5f9bf14d0aa2821c4bb84,,,3664,73.33335459,31.99999022,1,0,0,response1disk,,6,8.000019312,1.333322644,1,0,0,rectangle,8.000019312,1.333322644,1,0,0,2,"[272,115,53,241,263,212,144,266,285,188,279,141,209,142,128,61,319,178,117,288]",8.000019312,1.333322644,1,0,0,0,40,40,12,1,,,
,,,,,,,,,,,,,FF,,,,,,,,1.54202,,,,,,,,,,,,,,,,,,,,,,,,,604dedd2805fe682c5bc51c0,60a7d7fc9c148a64ce779f23,2021-05-21_17h56.54.483,Simcolourproject_2stim_asymm_v5,2020.2.10,Win32,60,60a5f9bf14d0aa2821c4bb84,,,2717,-33.33331525,-73.33334625,1,0,0,response5disk,,3,1.333393137,6.666656137,1,0,0,rectangle,1.333393137,6.666656137,1,0,0,0,"[272,115,53,241,263,212,144,266,285,188,279,141,209,142,128,61,319,178,117,288]",1.333393137,6.666656137,1,0,0,0,41,41,62,1,,,
,,,,,,,,,,,,,FF,,,,,,,,1.60496,,,,,,,,,,,,,,,,,,,,,,,,,604dedd2805fe682c5bc51c0,60a7d7fc9c148a64ce779f23,2021-05-21_17h56.54.483,Simcolourproject_2stim_asymm_v5,2020.2.10,Win32,60,60a5f9bf14d0aa2821c4bb84,,,910,56.66668743,-84.00001323,1,0,0,response3disk,,4,15.33339355,9.333322883,1,0,0,rectangle,15.33339355,9.333322883,1,0,0,0,"[272,115,53,241,263,212,144,266,285,188,279,141,209,142,128,61,319,178,117,288]",15.33339355,9.333322883,1,0,0,0,42,42,43,1,,,
,,,,,,,,,,,,,FF,,,,,,,,2.00024,,,,,,,,,,,,,,,,,,,,,,,,,604dedd2805fe682c5bc51c0,60a7d7fc9c148a64ce779f23,2021-05-21_17h56.54.483,Simcolourproject_2stim_asymm_v5,2020.2.10,Win32,60,60a5f9bf14d0aa2821c4bb84,,,1132,30.66668665,-92.66668016,1,0,0,response3disk,,4,-2.666606983,0.666655958,1,0,0,rectangle,-2.666606983,0.666655958,1,0,0,4,"[272,115,53,241,263,212,144,266,285,188,279,141,209,142,128,61,319,178,117,288]",-2.666606983,0.666655958,1,0,0,0,43,43,6,1,,,
,,,,,,,,,,,,,FF,,,,,,,,1.792045,,,,,,,,,,,,,,,,,,,,,,,,,604dedd2805fe682c5bc51c0,60a7d7fc9c148a64ce779f23,2021-05-21_17h56.54.483,Simcolourproject_2stim_asymm_v5,2020.2.10,Win32,60,60a5f9bf14d0aa2821c4bb84,,,2521,72.00002122,-34.00001174,1,0,0,response3disk,,5,4.666685879,-9.33334434,1,0,0,rectangle,4.666685879,-9.33334434,1,0,0,5,"[272,115,53,241,263,212,144,266,285,188,279,141,209,142,128,61,319,178,117,288]",4.666685879,-9.33334434,1,0,0,0,44,44,109,1,,,
,,,,,,,,,,,,,FF,,,,,,,,1.687715,,,,,,,,,,,,,,,,,,,,,,,,,604dedd2805fe682c5bc51c0,60a7d7fc9c148a64ce779f23,2021-05-21_17h56.54.483,Simcolourproject_2stim_asymm_v5,2020.2.10,Win32,60,60a5f9bf14d0aa2821c4bb84,,,668,42.00002033,-57.33334577,1,0,0,response3disk,,4,20.00001967,1.999989331,1,0,0,rectangle,20.00001967,1.999989331,1,0,0,5,"[272,115,53,241,263,212,144,266,285,188,279,141,209,142,128,61,319,178,117,288]",20.00001967,1.999989331,1,0,0,0,45,45,33,1,,,
,,,,,,,,,,,,,FF,,,,,,,,1.58355,,,,,,,,,,,,,,,,,,,,,,,,,604dedd2805fe682c5bc51c0,60a7d7fc9c148a64ce779f23,2021-05-21_17h56.54.483,Simcolourproject_2stim_asymm_v5,2020.2.10,Win32,60,60a5f9bf14d0aa2821c4bb84,,,39,58.66668749,-32.66667837,1,0,0,response3disk,,5,5.333393256,8.666656196,1,0,0,rectangle,5.333393256,8.666656196,1,0,0,1,"[272,115,53,241,263,212,144,266,285,188,279,141,209,142,128,61,319,178,117,288]",5.333393256,8.666656196,1,0,0,0,46,46,123,1,,,
,,,,,,,,,,,,,FF,,,,,,,,1.312775,,,,,,,,,,,,,,,,,,,,,,,,,604dedd2805fe682c5bc51c0,60a7d7fc9c148a64ce779f23,2021-05-21_17h56.54.483,Simcolourproject_2stim_asymm_v5,2020.2.10,Win32,60,60a5f9bf14d0aa2821c4bb84,,,104,46.00002044,-76.66667968,1,0,0,response3disk,,4,6.666685939,9.333322883,1,0,0,rectangle,6.666685939,9.333322883,1,0,0,3,"[272,115,53,241,263,212,144,266,285,188,279,141,209,142,128,61,319,178,117,288]",6.666685939,9.333322883,1,0,0,0,47,47,107,1,,,
,,,,,,,,,,,,,FF,,,,,,,,1.667165,,,,,,,,,,,,,,,,,,,,,,,,,604dedd2805fe682c5bc51c0,60a7d7fc9c148a64ce779f23,2021-05-21_17h56.54.483,Simcolourproject_2stim_asymm_v5,2020.2.10,Win32,60,60a5f9bf14d0aa2821c4bb84,,,3981,44.00002038,-92.00001347,1,0,0,response3disk,,4,-11.3333146,13.333323,1,0,0,rectangle,-11.3333146,13.333323,1,0,0,4,"[272,115,53,241,263,212,144,266,285,188,279,141,209,142,128,61,319,178,117,288]",-11.3333146,13.333323,1,0,0,0,48,48,126,1,,,
,,,,,,,,,,,,,FF,,,,,,,,2.146265,,,,,,,,,,,,,,,,,,,,,,,,,604dedd2805fe682c5bc51c0,60a7d7fc9c148a64ce779f23,2021-05-21_17h56.54.483,Simcolourproject_2stim_asymm_v5,2020.2.10,Win32,60,60a5f9bf14d0aa2821c4bb84,,,1188,67.33335441,-24.66667813,1,0,0,response3disk,,5,15.33339355,1.999989331,1,0,0,rectangle,15.33339355,1.999989331,1,0,0,7,"[272,115,53,241,263,212,144,266,285,188,279,141,209,142,128,61,319,178,117,288]",15.33339355,1.999989331,1,0,0,0,49,49,7,1,,,
,,,,,,,,,,,,,FF,,,,,,,,2.08384,,,,,,,,,,,,,,,,,,,,,,,,,604dedd2805fe682c5bc51c0,60a7d7fc9c148a64ce779f23,2021-05-21_17h56.54.483,Simcolourproject_2stim_asymm_v5,2020.2.10,Win32,60,60a5f9bf14d0aa2821c4bb84,,,594,52.00002062,-16.00001121,1,0,0,response3disk,,5,8.666685998,5.333322763,1,0,0,rectangle,8.666685998,5.333322763,1,0,0,4,"[272,115,53,241,263,212,144,266,285,188,279,141,209,142,128,61,319,178,117,288]",8.666685998,5.333322763,1,0,0,0,50,50,38,1,,,
,,,,,,,,,,,,,FF,,,,,,,,1.31237,,,,,,,,,,,,,,,,,,,,,,,,,604dedd2805fe682c5bc51c0,60a7d7fc9c148a64ce779f23,2021-05-21_17h56.54.483,Simcolourproject_2stim_asymm_v5,2020.2.10,Win32,60,60a5f9bf14d0aa2821c4bb84,,,832,31.33339403,-80.00001311,1,0,0,response3disk,,4,1.333393137,1.333322644,1,0,0,rectangle,1.333393137,1.333322644,1,0,0,0,"[272,115,53,241,263,212,144,266,285,188,279,141,209,142,128,61,319,178,117,288]",1.333393137,1.333322644,1,0,0,0,51,51,63,1,,,
,,,,,,,,,,,,,FF,,,,,,,,1.1675,,,,,,,,,,,,,,,,,,,,,,,,,604dedd2805fe682c5bc51c0,60a7d7fc9c148a64ce779f23,2021-05-21_17h56.54.483,Simcolourproject_2stim_asymm_v5,2020.2.10,Win32,60,60a5f9bf14d0aa2821c4bb84,,,4177,96.66668862,45.99999064,1,0,0,response1disk,,6,-11.99998128,7.333322823,1,0,0,rectangle,96.66668862,33.33330325,1,0,0,6,"[272,115,53,241,263,212,144,266,285,188,279,141,209,142,128,61,319,178,117,288]",4.666685879,11.33332294,1,0,0,0,52,52,112,1,,response1disk_3,rectangle
,,,,,,,,,,,,,FF,,,,,,,,1.37496,,,,,,,,,,,,,,,,,,,,,,,,,604dedd2805fe682c5bc51c0,60a7d7fc9c148a64ce779f23,2021-05-21_17h56.54.483,Simcolourproject_2stim_asymm_v5,2020.2.10,Win32,60,60a5f9bf14d0aa2821c4bb84,,,2837,79.33335477,-63.33334595,1,0,0,response3disk,,5,9.333393375,-1.333344102,1,0,0,rectangle,9.333393375,-1.333344102,1,0,0,3,"[272,115,53,241,263,212,144,266,285,188,279,141,209,142,128,61,319,178,117,288]",9.333393375,-1.333344102,1,0,0,0,53,53,16,1,,,
,,,,,,,,,,,,,FF,,,,,,,,1.416485,,,,,,,,,,,,,,,,,,,,,,,,,604dedd2805fe682c5bc51c0,60a7d7fc9c148a64ce779f23,2021-05-21_17h56.54.483,Simcolourproject_2stim_asymm_v5,2020.2.10,Win32,60,60a5f9bf14d0aa2821c4bb84,,,1002,46.00002044,-70.6666795,1,0,0,response3disk,,4,6.666685939,1.333322644,1,0,0,rectangle,6.666685939,1.333322644,1,0,0,0,"[272,115,53,241,263,212,144,266,285,188,279,141,209,142,128,61,319,178,117,288]",6.666685939,1.333322644,1,0,0,0,54,54,93,1,,,
,,,,,,,,,,,,,FF,,,,,,,,2.500045,,,,,,,,,,,,,,,,,,,,,,,,,604dedd2805fe682c5bc51c0,60a7d7fc9c148a64ce779f23,2021-05-21_17h56.54.483,Simcolourproject_2stim_asymm_v5,2020.2.10,Win32,60,60a5f9bf14d0aa2821c4bb84,,,550,-75.3333165,-67.33334607,1,0,0,response5disk,,4,2.66668582,0.666655958,1,0,0,rectangle,2.66668582,0.666655958,1,0,0,0,"[272,115,53,241,263,212,144,266,285,188,279,141,209,142,128,61,319,178,117,288]",2.66668582,0.666655958,1,0,0,0,55,55,27,1,,,
,,,,,,,,,,,,,FF,,,,,,,,1.14619,,,,,,,,,,,,,,,,,,,,,,,,,604dedd2805fe682c5bc51c0,60a7d7fc9c148a64ce779f23,2021-05-21_17h56.54.483,Simcolourproject_2stim_asymm_v5,2020.2.10,Win32,60,60a5f9bf14d0aa2821c4bb84,,,2955,-71.33331639,-29.33334494,1,0,0,response5disk,,4,2.66668582,3.333322704,1,0,0,rectangle,2.66668582,3.333322704,1,0,0,3,"[272,115,53,241,263,212,144,266,285,188,279,141,209,142,128,61,319,178,117,288]",2.66668582,3.333322704,1,0,0,0,56,56,95,1,,,
,,,,,,,,,,,,,FF,,,,,,,,1.418305,,,,,,,,,,,,,,,,,,,,,,,,,604dedd2805fe682c5bc51c0,60a7d7fc9c148a64ce779f23,2021-05-21_17h56.54.483,Simcolourproject_2stim_asymm_v5,2020.2.10,Win32,60,60a5f9bf14d0aa2821c4bb84,,,4,-61.33331609,-28.66667825,1,0,0,response5disk,,4,4.666685879,12.66665632,1,0,0,rectangle,4.666685879,12.66665632,1,0,0,4,"[272,115,53,241,263,212,144,266,285,188,279,141,209,142,128,61,319,178,117,288]",4.666685879,12.66665632,1,0,0,0,57,57,80,1,,,
,,,,,,,,,,,,,FF,,,,,,,,1.272845,,,,,,,,,,,,,,,,,,,,,,,,,604dedd2805fe682c5bc51c0,60a7d7fc9c148a64ce779f23,2021-05-21_17h56.54.483,Simcolourproject_2stim_asymm_v5,2020.2.10,Win32,60,60a5f9bf14d0aa2821c4bb84,,,2505,54.00002068,-26.66667819,1,0,0,response3disk,,5,9.333393375,9.999989569,1,0,0,rectangle,9.333393375,9.999989569,1,0,0,6,"[272,115,53,241,263,212,144,266,285,188,279,141,209,142,128,61,319,178,117,288]",9.333393375,9.999989569,1,0,0,0,58,58,50,1,,,
,,,,,,,,,,,,,FF,,,,,,,,2.355575,,,,,,,,,,,,,,,,,,,,,,,,,604dedd2805fe682c5bc51c0,60a7d7fc9c148a64ce779f23,2021-05-21_17h56.54.483,Simcolourproject_2stim_asymm_v5,2020.2.10,Win32,60,60a5f9bf14d0aa2821c4bb84,,,1877,68.0000211,-29.33334494,1,0,0,response3disk,,5,2.000019133,3.99998939,1,0,0,rectangle,2.000019133,3.99998939,1,0,0,1,"[272,115,53,241,263,212,144,266,285,188,279,141,209,142,128,61,319,178,117,288]",2.000019133,3.99998939,1,0,0,0,59,59,134,1,,,
,,,,,,,,,,,,,FF,,,,,,,,1.625265,,,,,,,,,,,,,,,,,,,,,,,,,604dedd2805fe682c5bc51c0,60a7d7fc9c148a64ce779f23,2021-05-21_17h56.54.483,Simcolourproject_2stim_asymm_v5,2020.2.10,Win32,60,60a5f9bf14d0aa2821c4bb84,,,1367,89.33335507,-37.33334517,1,0,0,response3disk,,5,12.00001943,10.66665626,1,0,0,rectangle,-33.99998194,-70.6666795,1,0,0,3,"[272,115,53,241,263,212,144,266,285,188,279,141,209,142,128,61,319,178,117,288]",2.66668582,7.99998951,1,0,0,0,60,60,152,1,,response5disk_3,rectangle
,,,,,,,,,,,,,FF,,,,,,,,1.125985,,,,,,,,,,,,,,,,,,,,,,,,,604dedd2805fe682c5bc51c0,60a7d7fc9c148a64ce779f23,2021-05-21_17h56.54.483,Simcolourproject_2stim_asymm_v5,2020.2.10,Win32,60,60a5f9bf14d0aa2821c4bb84,,,1642,50.00002056,-25.33334482,1,0,0,response3disk,,5,10.66668606,11.33332294,1,0,0,rectangle,10.66668606,11.33332294,1,0,0,6,"[272,115,53,241,263,212,144,266,285,188,279,141,209,142,128,61,319,178,117,288]",10.66668606,11.33332294,1,0,0,0,61,61,119,1,,,
,,,,,,,,,,,,,FF,,,,,,,,1.291525,,,,,,,,,,,,,,,,,,,,,,,,,604dedd2805fe682c5bc51c0,60a7d7fc9c148a64ce779f23,2021-05-21_17h56.54.483,Simcolourproject_2stim_asymm_v5,2020.2.10,Win32,60,60a5f9bf14d0aa2821c4bb84,,,4242,70.00002116,33.33330325,1,0,0,response1disk,,6,18.00001961,0.666655958,1,0,0,rectangle,18.00001961,0.666655958,1,0,0,2,"[272,115,53,241,263,212,144,266,285,188,279,141,209,142,128,61,319,178,117,288]",18.00001961,0.666655958,1,0,0,0,62,62,128,1,,,
,,,,,,,,,,,,,FF,,,,,,,,1.62535,,,,,,,,,,,,,,,,,,,,,,,,,604dedd2805fe682c5bc51c0,60a7d7fc9c148a64ce779f23,2021-05-21_17h56.54.483,Simcolourproject_2stim_asymm_v5,2020.2.10,Win32,60,60a5f9bf14d0aa2821c4bb84,,,72,-71.33331639,26.66665673,1,0,0,response7disk,,1,-24.66660764,5.99998945,1,0,0,rectangle,-24.66660764,5.99998945,1,0,0,5,"[272,115,53,241,263,212,144,266,285,188,279,141,209,142,128,61,319,178,117,288]",-24.66660764,5.99998945,1,0,0,0,63,63,88,1,,,
,,,,,,,,,,,,,FF,,,,,,,,1.208125,,,,,,,,,,,,,,,,,,,,,,,,,604dedd2805fe682c5bc51c0,60a7d7fc9c148a64ce779f23,2021-05-21_17h56.54.483,Simcolourproject_2stim_asymm_v5,2020.2.10,Win32,60,60a5f9bf14d0aa2821c4bb84,,,917,47.33335382,-64.66667932,1,0,0,response3disk,,4,0.66668576,4.666656077,1,0,0,rectangle,0.66668576,4.666656077,1,0,0,7,"[272,115,53,241,263,212,144,266,285,188,279,141,209,142,128,61,319,178,117,288]",0.66668576,4.666656077,1,0,0,0,64,64,132,1,,,
,,,,,,,,,,,,,FF,,,,,,,,1.812695,,,,,,,,,,,,,,,,,,,,,,,,,604dedd2805fe682c5bc51c0,60a7d7fc9c148a64ce779f23,2021-05-21_17h56.54.483,Simcolourproject_2stim_asymm_v5,2020.2.10,Win32,60,60a5f9bf14d0aa2821c4bb84,,,2917,41.33339433,-62.66667926,1,0,0,response3disk,,4,12.66668612,12.66665632,1,0,0,rectangle,12.66668612,12.66665632,1,0,0,6,"[272,115,53,241,263,212,144,266,285,188,279,141,209,142,128,61,319,178,117,288]",12.66668612,12.66665632,1,0,0,0,65,65,120,1,,,
,,,,,,,,,,,,,FF,,,,,,,,1.20841,,,,,,,,,,,,,,,,,,,,,,,,,604dedd2805fe682c5bc51c0,60a7d7fc9c148a64ce779f23,2021-05-21_17h56.54.483,Simcolourproject_2stim_asymm_v5,2020.2.10,Win32,60,60a5f9bf14d0aa2821c4bb84,,,26,54.66668737,-24.66667813,1,0,0,response3disk,,5,19.33339367,5.99998945,1,0,0,rectangle,19.33339367,5.99998945,1,0,0,3,"[272,115,53,241,263,212,144,266,285,188,279,141,209,142,128,61,319,178,117,288]",19.33339367,5.99998945,1,0,0,0,66,66,129,1,,,
,,,,,,,,,,,,,FF,,,,,,,,1.20828,,,,,,,,,,,,,,,,,,,,,,,,,604dedd2805fe682c5bc51c0,60a7d7fc9c148a64ce779f23,2021-05-21_17h56.54.483,Simcolourproject_2stim_asymm_v5,2020.2.10,Win32,60,60a5f9bf14d0aa2821c4bb84,,,4339,60.66668755,26.66665673,1,0,0,response1disk,,6,-5.999981105,-3.333344162,1,0,0,rectangle,-5.999981105,-3.333344162,1,0,0,0,"[272,115,53,241,263,212,144,266,285,188,279,141,209,142,128,61,319,178,117,288]",-5.999981105,-3.333344162,1,0,0,0,67,67,55,1,,,
,,,,,,,,,,,,,FF,,,,,,,,2.499865,,,,,,,,,,,,,,,,,,,,,,,,,604dedd2805fe682c5bc51c0,60a7d7fc9c148a64ce779f23,2021-05-21_17h56.54.483,Simcolourproject_2stim_asymm_v5,2020.2.10,Win32,60,60a5f9bf14d0aa2821c4bb84,,,4102,-79.33331662,-59.33334583,1,0,0,response5disk,,6,-5.333314419,3.99998939,1,0,0,rectangle,-5.333314419,3.99998939,1,0,0,7,"[272,115,53,241,263,212,144,266,285,188,279,141,209,142,128,61,319,178,117,288]",-5.333314419,3.99998939,1,0,0,0,68,68,14,1,,,
,,,,,,,,,,,,,FF,,,,,,,,1.20794,,,,,,,,,,,,,,,,,,,,,,,,,604dedd2805fe682c5bc51c0,60a7d7fc9c148a64ce779f23,2021-05-21_17h56.54.483,Simcolourproject_2stim_asymm_v5,2020.2.10,Win32,60,60a5f9bf14d0aa2821c4bb84,,,1975,47.33335382,-20.00001132,1,0,0,response3disk,,5,-8.666607161,-1.333344102,1,0,0,rectangle,-8.666607161,-1.333344102,1,0,0,5,"[272,115,53,241,263,212,144,266,285,188,279,141,209,142,128,61,319,178,117,288]",-8.666607161,-1.333344102,1,0,0,0,69,69,90,1,,,
,,,,,,,,,,,,,FF,,,,,,,,1.209075,,,,,,,,,,,,,,,,,,,,,,,,,604dedd2805fe682c5bc51c0,60a7d7fc9c148a64ce779f23,2021-05-21_17h56.54.483,Simcolourproject_2stim_asymm_v5,2020.2.10,Win32,60,60a5f9bf14d0aa2821c4bb84,,,3720,23.33339379,-46.0000121,1,0,0,response3disk,,4,-0.666606923,-1.333344102,1,0,0,rectangle,-0.666606923,-1.333344102,1,0,0,5,"[272,115,53,241,263,212,144,266,285,188,279,141,209,142,128,61,319,178,117,288]",-0.666606923,-1.333344102,1,0,0,0,70,70,118,1,,,
,,,,,,,,,,,,,FF,,,,,,,,1.291695,,,,,,,,,,,,,,,,,,,,,,,,,604dedd2805fe682c5bc51c0,60a7d7fc9c148a64ce779f23,2021-05-21_17h56.54.483,Simcolourproject_2stim_asymm_v5,2020.2.10,Win32,60,60a5f9bf14d0aa2821c4bb84,,,4361,-39.99998212,80.66665834,1,0,0,response7disk,,0,-13.99998134,-6.666677594,1,0,0,rectangle,-13.99998134,-6.666677594,1,0,0,3,"[272,115,53,241,263,212,144,266,285,188,279,141,209,142,128,61,319,178,117,288]",-13.99998134,-6.666677594,1,0,0,0,71,71,39,1,,,
,,,,,,,,,,,,,FF,,,,,,,,1.33331,,,,,,,,,,,,,,,,,,,,,,,,,604dedd2805fe682c5bc51c0,60a7d7fc9c148a64ce779f23,2021-05-21_17h56.54.483,Simcolourproject_2stim_asymm_v5,2020.2.10,Win32,60,60a5f9bf14d0aa2821c4bb84,,,2,-74.66660913,27.33330307,1,0,0,response7disk,,1,-19.99998152,-2.000010788,1,0,0,rectangle,-19.99998152,-2.000010788,1,0,0,3,"[272,115,53,241,263,212,144,266,285,188,279,141,209,142,128,61,319,178,117,288]",-19.99998152,-2.000010788,1,0,0,0,72,72,150,1,,,
,,,,,,,,,,,,,FF,,,,,,,,2.146325,,,,,,,,,,,,,,,,,,,,,,,,,604dedd2805fe682c5bc51c0,60a7d7fc9c148a64ce779f23,2021-05-21_17h56.54.483,Simcolourproject_2stim_asymm_v5,2020.2.10,Win32,60,60a5f9bf14d0aa2821c4bb84,,,3680,-81.33331668,-58.00001246,1,0,0,response5disk,,1,12.00001943,-13.33334446,1,0,0,rectangle,12.00001943,-13.33334446,1,0,0,4,"[272,115,53,241,263,212,144,266,285,188,279,141,209,142,128,61,319,178,117,288]",12.00001943,-13.33334446,1,0,0,0,73,73,74,1,,,
,,,,,,,,,,,,,FF,,,,,,,,1.583715,,,,,,,,,,,,,,,,,,,,,,,,,604dedd2805fe682c5bc51c0,60a7d7fc9c148a64ce779f23,2021-05-21_17h56.54.483,Simcolourproject_2stim_asymm_v5,2020.2.10,Win32,60,60a5f9bf14d0aa2821c4bb84,,,4329,68.66668779,-18.00001127,1,0,0,response3disk,,5,6.666685939,-5.333344221,1,0,0,rectangle,6.666685939,-5.333344221,1,0,0,4,"[272,115,53,241,263,212,144,266,285,188,279,141,209,142,128,61,319,178,117,288]",6.666685939,-5.333344221,1,0,0,0,74,74,19,1,,,
,,,,,,,,,,,,,FF,,,,,,,,1.563095,,,,,,,,,,,,,,,,,,,,,,,,,604dedd2805fe682c5bc51c0,60a7d7fc9c148a64ce779f23,2021-05-21_17h56.54.483,Simcolourproject_2stim_asymm_v5,2020.2.10,Win32,60,60a5f9bf14d0aa2821c4bb84,,,4226,40.00002027,-50.66667891,1,0,0,response3disk,,4,15.33339355,-5.333344221,1,0,0,rectangle,15.33339355,-5.333344221,1,0,0,7,"[272,115,53,241,263,212,144,266,285,188,279,141,209,142,128,61,319,178,117,288]",15.33339355,-5.333344221,1,0,0,0,75,75,23,1,,,
,,,,,,,,,,,,,FF,,,,,,,,1.354715,,,,,,,,,,,,,,,,,,,,,,,,,604dedd2805fe682c5bc51c0,60a7d7fc9c148a64ce779f23,2021-05-21_17h56.54.483,Simcolourproject_2stim_asymm_v5,2020.2.10,Win32,60,60a5f9bf14d0aa2821c4bb84,,,1252,30.66668665,-50.00001222,1,0,0,response3disk,,4,8.666685998,1.999989331,1,0,0,rectangle,8.666685998,1.999989331,1,0,0,4,"[272,115,53,241,263,212,144,266,285,188,279,141,209,142,128,61,319,178,117,288]",8.666685998,1.999989331,1,0,0,0,76,76,46,1,,,
,,,,,,,,,,,,,FF,,,,,,,,1.271535,,,,,,,,,,,,,,,,,,,,,,,,,604dedd2805fe682c5bc51c0,60a7d7fc9c148a64ce779f23,2021-05-21_17h56.54.483,Simcolourproject_2stim_asymm_v5,2020.2.10,Win32,60,60a5f9bf14d0aa2821c4bb84,,,1052,-39.99998212,-71.33334619,1,0,0,response5disk,,3,-2.666606983,2.666656017,1,0,0,rectangle,-2.666606983,2.666656017,1,0,0,4,"[272,115,53,241,263,212,144,266,285,188,279,141,209,142,128,61,319,178,117,288]",-2.666606983,2.666656017,1,0,0,0,77,77,130,1,,,
,,,,,,,,,,,,,FF,,,,,,,,1.89574,,,,,,,,,,,,,,,,,,,,,,,,,604dedd2805fe682c5bc51c0,60a7d7fc9c148a64ce779f23,2021-05-21_17h56.54.483,Simcolourproject_2stim_asymm_v5,2020.2.10,Win32,60,60a5f9bf14d0aa2821c4bb84,,,3111,-46.66660829,-90.00001341,1,0,0,response5disk,,3,13.33339349,9.333322883,1,0,0,rectangle,13.33339349,9.333322883,1,0,0,6,"[272,115,53,241,263,212,144,266,285,188,279,141,209,142,128,61,319,178,117,288]",13.33339349,9.333322883,1,0,0,0,78,78,54,1,,,
,,,,,,,,,,,,,FF,,,,,,,,1.12518,,,,,,,,,,,,,,,,,,,,,,,,,604dedd2805fe682c5bc51c0,60a7d7fc9c148a64ce779f23,2021-05-21_17h56.54.483,Simcolourproject_2stim_asymm_v5,2020.2.10,Win32,60,60a5f9bf14d0aa2821c4bb84,,,1995,67.33335441,-21.3333447,1,0,0,response3disk,,5,6.666685939,6.666656137,1,0,0,rectangle,6.666685939,6.666656137,1,0,0,1,"[272,115,53,241,263,212,144,266,285,188,279,141,209,142,128,61,319,178,117,288]",6.666685939,6.666656137,1,0,0,0,79,79,143,1,,,
,,,,,,,,,,,,,FF,,,,,,,,1.271035,,,,,,,,,,,,,,,,,,,,,,,,,604dedd2805fe682c5bc51c0,60a7d7fc9c148a64ce779f23,2021-05-21_17h56.54.483,Simcolourproject_2stim_asymm_v5,2020.2.10,Win32,60,60a5f9bf14d0aa2821c4bb84,,,2802,33.33339409,-54.00001234,1,0,0,response3disk,,4,1.333393137,9.333322883,1,0,0,rectangle,1.333393137,9.333322883,1,0,0,2,"[272,115,53,241,263,212,144,266,285,188,279,141,209,142,128,61,319,178,117,288]",1.333393137,9.333322883,1,0,0,0,80,80,86,1,,,
,,,,,,,,,,,,,FF,,,,,,,,1.437655,,,,,,,,,,,,,,,,,,,,,,,,,604dedd2805fe682c5bc51c0,60a7d7fc9c148a64ce779f23,2021-05-21_17h56.54.483,Simcolourproject_2stim_asymm_v5,2020.2.10,Win32,60,60a5f9bf14d0aa2821c4bb84,,,976,-43.99998224,-72.00001287,1,0,0,response5disk,,3,1.333393137,2.666656017,1,0,0,rectangle,1.333393137,2.666656017,1,0,0,3,"[272,115,53,241,263,212,144,266,285,188,279,141,209,142,128,61,319,178,117,288]",1.333393137,2.666656017,1,0,0,0,81,81,2,1,,,
,,,,,,,,,,,,,FF,,,,,,,,1.645795,,,,,,,,,,,,,,,,,,,,,,,,,604dedd2805fe682c5bc51c0,60a7d7fc9c148a64ce779f23,2021-05-21_17h56.54.483,Simcolourproject_2stim_asymm_v5,2020.2.10,Win32,60,60a5f9bf14d0aa2821c4bb84,,,780,-31.33331519,-72.00001287,1,0,0,response5disk,,3,10.66668606,-0.666677415,1,0,0,rectangle,10.66668606,-0.666677415,1,0,0,4,"[272,115,53,241,263,212,144,266,285,188,279,141,209,142,128,61,319,178,117,288]",10.66668606,-0.666677415,1,0,0,0,82,82,25,1,,,
,,,,,,,,,,,,,FF,,,,,,,,1.20902,,,,,,,,,,,,,,,,,,,,,,,,,604dedd2805fe682c5bc51c0,60a7d7fc9c148a64ce779f23,2021-05-21_17h56.54.483,Simcolourproject_2stim_asymm_v5,2020.2.10,Win32,60,60a5f9bf14d0aa2821c4bb84,,,962,58.0000208,-46.66667879,1,0,0,response3disk,,5,11.33339343,-4.666677535,1,0,0,rectangle,11.33339343,-4.666677535,1,0,0,3,"[272,115,53,241,263,212,144,266,285,188,279,141,209,142,128,61,319,178,117,288]",11.33339343,-4.666677535,1,0,0,0,83,83,64,1,,,
,,,,,,,,,,,,,FF,,,,,,,,1.3124,,,,,,,,,,,,,,,,,,,,,,,,,604dedd2805fe682c5bc51c0,60a7d7fc9c148a64ce779f23,2021-05-21_17h56.54.483,Simcolourproject_2stim_asymm_v5,2020.2.10,Win32,60,60a5f9bf14d0aa2821c4bb84,,,197,28.00001991,-62.00001258,1,0,0,response3disk,,4,6.666685939,8.666656196,1,0,0,rectangle,6.666685939,8.666656196,1,0,0,7,"[272,115,53,241,263,212,144,266,285,188,279,141,209,142,128,61,319,178,117,288]",6.666685939,8.666656196,1,0,0,0,84,84,105,1,,,
,,,,,,,,,,,,,FF,,,,,,,,1.146295,,,,,,,,,,,,,,,,,,,,,,,,,604dedd2805fe682c5bc51c0,60a7d7fc9c148a64ce779f23,2021-05-21_17h56.54.483,Simcolourproject_2stim_asymm_v5,2020.2.10,Win32,60,60a5f9bf14d0aa2821c4bb84,,,627,70.66668785,25.33330301,1,0,0,response1disk,,6,16.66668624,3.99998939,1,0,0,rectangle,16.66668624,3.99998939,1,0,0,7,"[272,115,53,241,263,212,144,266,285,188,279,141,209,142,128,61,319,178,117,288]",16.66668624,3.99998939,1,0,0,0,85,85,9,1,,,
,,,,,,,,,,,,,FF,,,,,,,,2.208745,,,,,,,,,,,,,,,,,,,,,,,,,604dedd2805fe682c5bc51c0,60a7d7fc9c148a64ce779f23,2021-05-21_17h56.54.483,Simcolourproject_2stim_asymm_v5,2020.2.10,Win32,60,60a5f9bf14d0aa2821c4bb84,,,533,-67.99998295,-37.33334517,1,0,0,response5disk,,6,-5.333314419,7.99998951,1,0,0,rectangle,-5.333314419,7.99998951,1,0,0,4,"[272,115,53,241,263,212,144,266,285,188,279,141,209,142,128,61,319,178,117,288]",-5.333314419,7.99998951,1,0,0,0,86,86,41,1,,,
,,,,,,,,,,,,,FF,,,,,,,,1.729845,,,,,,,,,,,,,,,,,,,,,,,,,604dedd2805fe682c5bc51c0,60a7d7fc9c148a64ce779f23,2021-05-21_17h56.54.483,Simcolourproject_2stim_asymm_v5,2020.2.10,Win32,60,60a5f9bf14d0aa2821c4bb84,,,2299,-47.33331567,-66.0000127,1,0,0,response5disk,,3,-1.3333143,11.99998963,1,0,0,rectangle,-1.3333143,11.99998963,1,0,0,6,"[272,115,53,241,263,212,144,266,285,188,279,141,209,142,128,61,319,178,117,288]",-1.3333143,11.99998963,1,0,0,0,87,87,102,1,,,
,,,,,,,,,,,,,FF,,,,,,,,1.354055,,,,,,,,,,,,,,,,,,,,,,,,,604dedd2805fe682c5bc51c0,60a7d7fc9c148a64ce779f23,2021-05-21_17h56.54.483,Simcolourproject_2stim_asymm_v5,2020.2.10,Win32,60,60a5f9bf14d0aa2821c4bb84,,,3426,-65.33331621,-21.3333447,1,0,0,response5disk,,3,15.33339355,-6.666677594,1,0,0,rectangle,15.33339355,-6.666677594,1,0,0,4,"[272,115,53,241,263,212,144,266,285,188,279,141,209,142,128,61,319,178,117,288]",15.33339355,-6.666677594,1,0,0,0,88,88,117,1,,,
,,,,,,,,,,,,,FF,,,,,,,,1.667395,,,,,,,,,,,,,,,,,,,,,,,,,604dedd2805fe682c5bc51c0,60a7d7fc9c148a64ce779f23,2021-05-21_17h56.54.483,Simcolourproject_2stim_asymm_v5,2020.2.10,Win32,60,60a5f9bf14d0aa2821c4bb84,,,3878,-26.6666077,-68.00001276,1,0,0,response5disk,,3,-3.999981046,-4.000010848,1,0,0,rectangle,-3.999981046,-4.000010848,1,0,0,4,"[272,115,53,241,263,212,144,266,285,188,279,141,209,142,128,61,319,178,117,288]",-3.999981046,-4.000010848,1,0,0,0,89,89,84,1,,,
,,,,,,,,,,,,,FF,,,,,,,,1.187775,,,,,,,,,,,,,,,,,,,,,,,,,604dedd2805fe682c5bc51c0,60a7d7fc9c148a64ce779f23,2021-05-21_17h56.54.483,Simcolourproject_2stim_asymm_v5,2020.2.10,Win32,60,60a5f9bf14d0aa2821c4bb84,,,2067,31.33339403,-50.00001222,1,0,0,response3disk,,4,16.00001955,0.666655958,1,0,0,rectangle,16.00001955,0.666655958,1,0,0,3,"[272,115,53,241,263,212,144,266,285,188,279,141,209,142,128,61,319,178,117,288]",16.00001955,0.666655958,1,0,0,0,90,90,87,1,,,
,,,,,,,,,,,,,FF,,,,,,,,1.08395,,,,,,,,,,,,,,,,,,,,,,,,,604dedd2805fe682c5bc51c0,60a7d7fc9c148a64ce779f23,2021-05-21_17h56.54.483,Simcolourproject_2stim_asymm_v5,2020.2.10,Win32,60,60a5f9bf14d0aa2821c4bb84,,,184,69.33335447,-28.00001156,1,0,0,response3disk,,5,-1.999980986,1.999989331,1,0,0,rectangle,-1.999980986,1.999989331,1,0,0,6,"[272,115,53,241,263,212,144,266,285,188,279,141,209,142,128,61,319,178,117,288]",-1.999980986,1.999989331,1,0,0,0,91,91,153,1,,,
,,,,,,,,,,,,,FF,,,,,,,,2.813045,,,,,,,,,,,,,,,,,,,,,,,,,604dedd2805fe682c5bc51c0,60a7d7fc9c148a64ce779f23,2021-05-21_17h56.54.483,Simcolourproject_2stim_asymm_v5,2020.2.10,Win32,60,60a5f9bf14d0aa2821c4bb84,,,934,70.66668785,-33.33334506,1,0,0,response3disk,,5,24.66668648,-3.333344162,1,0,0,rectangle,24.66668648,-3.333344162,1,0,0,2,"[272,115,53,241,263,212,144,266,285,188,279,141,209,142,128,61,319,178,117,288]",24.66668648,-3.333344162,1,0,0,0,92,92,145,1,,,
,,,,,,,,,,,,,FF,,,,,,,,1.31584,,,,,,,,,,,,,,,,,,,,,,,,,604dedd2805fe682c5bc51c0,60a7d7fc9c148a64ce779f23,2021-05-21_17h56.54.483,Simcolourproject_2stim_asymm_v5,2020.2.10,Win32,60,60a5f9bf14d0aa2821c4bb84,,,2785,28.66668659,-55.33334571,1,0,0,response3disk,,4,-7.999981165,3.333322704,1,0,0,rectangle,-7.999981165,3.333322704,1,0,0,3,"[272,115,53,241,263,212,144,266,285,188,279,141,209,142,128,61,319,178,117,288]",-7.999981165,3.333322704,1,0,0,0,93,93,17,1,,,
,,,,,,,,,,,,,FF,,,,,,,,2.02155,,,,,,,,,,,,,,,,,,,,,,,,,604dedd2805fe682c5bc51c0,60a7d7fc9c148a64ce779f23,2021-05-21_17h56.54.483,Simcolourproject_2stim_asymm_v5,2020.2.10,Win32,60,60a5f9bf14d0aa2821c4bb84,,,1316,72.00002122,-46.66667879,1,0,0,response3disk,,5,6.666685939,-10.66667771,1,0,0,rectangle,6.666685939,-10.66667771,1,0,0,5,"[272,115,53,241,263,212,144,266,285,188,279,141,209,142,128,61,319,178,117,288]",6.666685939,-10.66667771,1,0,0,0,94,94,144,1,,,
,,,,,,,,,,,,,FF,,,,,,,,1.77154,,,,,,,,,,,,,,,,,,,,,,,,,604dedd2805fe682c5bc51c0,60a7d7fc9c148a64ce779f23,2021-05-21_17h56.54.483,Simcolourproject_2stim_asymm_v5,2020.2.10,Win32,60,60a5f9bf14d0aa2821c4bb84,,,4184,26.66668653,-44.00001204,1,0,0,response3disk,,4,-3.999981046,9.333322883,1,0,0,rectangle,-3.999981046,9.333322883,1,0,0,7,"[272,115,53,241,263,212,144,266,285,188,279,141,209,142,128,61,319,178,117,288]",-3.999981046,9.333322883,1,0,0,0,95,95,75,1,,,
,,,,,,,,,,,,,FF,,,,,,,,1.589965,,,,,,,,,,,,,,,,,,,,,,,,,604dedd2805fe682c5bc51c0,60a7d7fc9c148a64ce779f23,2021-05-21_17h56.54.483,Simcolourproject_2stim_asymm_v5,2020.2.10,Win32,60,60a5f9bf14d0aa2821c4bb84,,,3912,46.00002044,-59.33334583,1,0,0,response3disk,,4,3.333393196,5.333322763,1,0,0,rectangle,3.333393196,5.333322763,1,0,0,0,"[272,115,53,241,263,212,144,266,285,188,279,141,209,142,128,61,319,178,117,288]",3.333393196,5.333322763,1,0,0,0,96,96,83,1,,,
,,,,,,,,,,,,,FF,,,,,,,,1.605565,,,,,,,,,,,,,,,,,,,,,,,,,604dedd2805fe682c5bc51c0,60a7d7fc9c148a64ce779f23,2021-05-21_17h56.54.483,Simcolourproject_2stim_asymm_v5,2020.2.10,Win32,60,60a5f9bf14d0aa2821c4bb84,,,2840,-51.33331579,-83.33334655,1,0,0,response5disk,,3,-5.999981105,3.333322704,1,0,0,rectangle,-5.999981105,3.333322704,1,0,0,0,"[272,115,53,241,263,212,144,266,285,188,279,141,209,142,128,61,319,178,117,288]",-5.999981105,3.333322704,1,0,0,0,97,97,106,1,,,
,,,,,,,,,,,,,FF,,,,,,,,1.292,,,,,,,,,,,,,,,,,,,,,,,,,604dedd2805fe682c5bc51c0,60a7d7fc9c148a64ce779f23,2021-05-21_17h56.54.483,Simcolourproject_2stim_asymm_v5,2020.2.10,Win32,60,60a5f9bf14d0aa2821c4bb84,,,3859,62.00002092,-61.33334589,1,0,0,response3disk,,5,3.333393196,4.666656077,1,0,0,rectangle,3.333393196,4.666656077,1,0,0,0,"[272,115,53,241,263,212,144,266,285,188,279,141,209,142,128,61,319,178,117,288]",3.333393196,4.666656077,1,0,0,0,98,98,98,1,,,
,,,,,,,,,,,,,FF,,,,,,,,1.667105,,,,,,,,,,,,,,,,,,,,,,,,,604dedd2805fe682c5bc51c0,60a7d7fc9c148a64ce779f23,2021-05-21_17h56.54.483,Simcolourproject_2stim_asymm_v5,2020.2.10,Win32,60,60a5f9bf14d0aa2821c4bb84,,,1484,77.33335471,-26.0000115,1,0,0,response3disk,,5,21.33339373,-4.666677535,1,0,0,rectangle,21.33339373,-4.666677535,1,0,0,3,"[272,115,53,241,263,212,144,266,285,188,279,141,209,142,128,61,319,178,117,288]",21.33339373,-4.666677535,1,0,0,0,99,99,68,1,,,
,,,,,,,,,,,,,FF,,,,,,,,2.083595,,,,,,,,,,,,,,,,,,,,,,,,,604dedd2805fe682c5bc51c0,60a7d7fc9c148a64ce779f23,2021-05-21_17h56.54.483,Simcolourproject_2stim_asymm_v5,2020.2.10,Win32,60,60a5f9bf14d0aa2821c4bb84,,,2027,-13.99998134,-52.66667897,1,0,0,response5disk,,3,-0.666606923,1.333322644,1,0,0,rectangle,-0.666606923,1.333322644,1,0,0,5,"[272,115,53,241,263,212,144,266,285,188,279,141,209,142,128,61,319,178,117,288]",-0.666606923,1.333322644,1,0,0,0,100,100,66,1,,,
,,,,,,,,,,,,,FF,,,,,,,,1.312315,,,,,,,,,,,,,,,,,,,,,,,,,604dedd2805fe682c5bc51c0,60a7d7fc9c148a64ce779f23,2021-05-21_17h56.54.483,Simcolourproject_2stim_asymm_v5,2020.2.10,Win32,60,60a5f9bf14d0aa2821c4bb84,,,2627,53.333354,-23.33334476,1,0,0,response3disk,,5,-7.999981165,11.99998963,1,0,0,rectangle,-7.999981165,11.99998963,1,0,0,5,"[272,115,53,241,263,212,144,266,285,188,279,141,209,142,128,61,319,178,117,288]",-7.999981165,11.99998963,1,0,0,0,101,101,92,1,,,
,,,,,,,,,,,,,FF,,,,,,,,1.516025,,,,,,,,,,,,,,,,,,,,,,,,,604dedd2805fe682c5bc51c0,60a7d7fc9c148a64ce779f23,2021-05-21_17h56.54.483,Simcolourproject_2stim_asymm_v5,2020.2.10,Win32,60,60a5f9bf14d0aa2821c4bb84,,,2008,88.66668838,-40.00001192,1,0,0,response3disk,,5,-2.666606983,-1.07288E-05,1,0,0,rectangle,-2.666606983,-1.07288E-05,1,0,0,0,"[272,115,53,241,263,212,144,266,285,188,279,141,209,142,128,61,319,178,117,288]",-2.666606983,-1.07288E-05,1,0,0,0,102,102,47,1,,,
,,,,,,,,,,,,,FF,,,,,,,,1.167095,,,,,,,,,,,,,,,,,,,,,,,,,604dedd2805fe682c5bc51c0,60a7d7fc9c148a64ce779f23,2021-05-21_17h56.54.483,Simcolourproject_2stim_asymm_v5,2020.2.10,Win32,60,60a5f9bf14d0aa2821c4bb84,,,4054,-45.33331561,-64.66667932,1,0,0,response5disk,,3,-7.333314478,11.33332294,1,0,0,rectangle,-7.333314478,11.33332294,1,0,0,7,"[272,115,53,241,263,212,144,266,285,188,279,141,209,142,128,61,319,178,117,288]",-7.333314478,11.33332294,1,0,0,0,103,103,42,1,,,
,,,,,,,,,,,,,FF,,,,,,,,1.458045,,,,,,,,,,,,,,,,,,,,,,,,,604dedd2805fe682c5bc51c0,60a7d7fc9c148a64ce779f23,2021-05-21_17h56.54.483,Simcolourproject_2stim_asymm_v5,2020.2.10,Win32,60,60a5f9bf14d0aa2821c4bb84,,,4331,48.66668719,86.66665852,1,0,0,response1disk,,7,5.333393256,3.99998939,1,0,0,rectangle,5.333393256,3.99998939,1,0,0,5,"[272,115,53,241,263,212,144,266,285,188,279,141,209,142,128,61,319,178,117,288]",5.333393256,3.99998939,1,0,0,0,104,104,1,1,,,
,,,,,,,,,,,,,FF,,,,,,,,1.840065,,,,,,,,,,,,,,,,,,,,,,,,,604dedd2805fe682c5bc51c0,60a7d7fc9c148a64ce779f23,2021-05-21_17h56.54.483,Simcolourproject_2stim_asymm_v5,2020.2.10,Win32,60,60a5f9bf14d0aa2821c4bb84,,,3513,32.00002003,-59.33334583,1,0,0,response3disk,,4,2.66668582,4.666656077,1,0,0,rectangle,2.66668582,4.666656077,1,0,0,0,"[272,115,53,241,263,212,144,266,285,188,279,141,209,142,128,61,319,178,117,288]",2.66668582,4.666656077,1,0,0,0,105,105,61,1,,,
,,,,,,,,,,,,,FF,,,,,,,,1.146575,,,,,,,,,,,,,,,,,,,,,,,,,604dedd2805fe682c5bc51c0,60a7d7fc9c148a64ce779f23,2021-05-21_17h56.54.483,Simcolourproject_2stim_asymm_v5,2020.2.10,Win32,60,60a5f9bf14d0aa2821c4bb84,,,3202,26.66668653,-53.33334565,1,0,0,response3disk,,4,11.33339343,-1.07288E-05,1,0,0,rectangle,11.33339343,-1.07288E-05,1,0,0,6,"[272,115,53,241,263,212,144,266,285,188,279,141,209,142,128,61,319,178,117,288]",11.33339343,-1.07288E-05,1,0,0,0,106,106,103,1,,,
,,,,,,,,,,,,,FF,,,,,,,,1.543325,,,,,,,,,,,,,,,,,,,,,,,,,604dedd2805fe682c5bc51c0,60a7d7fc9c148a64ce779f23,2021-05-21_17h56.54.483,Simcolourproject_2stim_asymm_v5,2020.2.10,Win32,60,60a5f9bf14d0aa2821c4bb84,,,682,20.66668636,-54.00001234,1,0,0,response3disk,,4,-7.333314478,4.666656077,1,0,0,rectangle,-7.333314478,4.666656077,1,0,0,6,"[272,115,53,241,263,212,144,266,285,188,279,141,209,142,128,61,319,178,117,288]",-7.333314478,4.666656077,1,0,0,0,107,107,91,1,,,
,,,,,,,,,,,,,FF,,,,,,,,1.376685,,,,,,,,,,,,,,,,,,,,,,,,,604dedd2805fe682c5bc51c0,60a7d7fc9c148a64ce779f23,2021-05-21_17h56.54.483,Simcolourproject_2stim_asymm_v5,2020.2.10,Win32,60,60a5f9bf14d0aa2821c4bb84,,,2165,-58.66660865,-36.0000118,1,0,0,response5disk,,4,18.00001961,-1.07288E-05,1,0,0,rectangle,18.00001961,-1.07288E-05,1,0,0,5,"[272,115,53,241,263,212,144,266,285,188,279,141,209,142,128,61,319,178,117,288]",18.00001961,-1.07288E-05,1,0,0,0,108,108,158,1,,,
,,,,,,,,,,,,,FF,,,,,,,,1.37588,,,,,,,,,,,,,,,,,,,,,,,,,604dedd2805fe682c5bc51c0,60a7d7fc9c148a64ce779f23,2021-05-21_17h56.54.483,Simcolourproject_2stim_asymm_v5,2020.2.10,Win32,60,60a5f9bf14d0aa2821c4bb84,,,2821,41.33339433,-64.66667932,1,0,0,response3disk,,4,8.666685998,-3.333344162,1,0,0,rectangle,8.666685998,-3.333344162,1,0,0,3,"[272,115,53,241,263,212,144,266,285,188,279,141,209,142,128,61,319,178,117,288]",8.666685998,-3.333344162,1,0,0,0,109,109,37,1,,,
,,,,,,,,,,,,,FF,,,,,,,,1.354995,,,,,,,,,,,,,,,,,,,,,,,,,604dedd2805fe682c5bc51c0,60a7d7fc9c148a64ce779f23,2021-05-21_17h56.54.483,Simcolourproject_2stim_asymm_v5,2020.2.10,Win32,60,60a5f9bf14d0aa2821c4bb84,,,1215,-70.66660901,-19.33334464,1,0,0,response5disk,,4,-13.33331466,-1.333344102,1,0,0,rectangle,-13.33331466,-1.333344102,1,0,0,0,"[272,115,53,241,263,212,144,266,285,188,279,141,209,142,128,61,319,178,117,288]",-13.33331466,-1.333344102,1,0,0,0,110,110,8,1,,,
,,,,,,,,,,,,,FF,,,,,,,,2.41508,,,,,,,,,,,,,,,,,,,,,,,,,604dedd2805fe682c5bc51c0,60a7d7fc9c148a64ce779f23,2021-05-21_17h56.54.483,Simcolourproject_2stim_asymm_v5,2020.2.10,Win32,60,60a5f9bf14d0aa2821c4bb84,,,1181,62.66668761,-20.66667801,1,0,0,response3disk,,5,16.66668624,6.666656137,1,0,0,rectangle,16.66668624,6.666656137,1,0,0,6,"[272,115,53,241,263,212,144,266,285,188,279,141,209,142,128,61,319,178,117,288]",16.66668624,6.666656137,1,0,0,0,111,111,148,1,,,
,,,,,,,,,,,,,FF,,,,,,,,2.35429,,,,,,,,,,,,,,,,,,,,,,,,,604dedd2805fe682c5bc51c0,60a7d7fc9c148a64ce779f23,2021-05-21_17h56.54.483,Simcolourproject_2stim_asymm_v5,2020.2.10,Win32,60,60a5f9bf14d0aa2821c4bb84,,,1660,71.33335453,-38.00001186,1,0,0,response3disk,,5,-13.99998134,-4.666677535,1,0,0,rectangle,-13.99998134,-4.666677535,1,0,0,4,"[272,115,53,241,263,212,144,266,285,188,279,141,209,142,128,61,319,178,117,288]",-13.99998134,-4.666677535,1,0,0,0,112,112,29,1,,,
,,,,,,,,,,,,,FF,,,,,,,,1.29276,,,,,,,,,,,,,,,,,,,,,,,,,604dedd2805fe682c5bc51c0,60a7d7fc9c148a64ce779f23,2021-05-21_17h56.54.483,Simcolourproject_2stim_asymm_v5,2020.2.10,Win32,60,60a5f9bf14d0aa2821c4bb84,,,661,34.66668677,-71.33334619,1,0,0,response3disk,,4,-7.999981165,-11.3333444,1,0,0,rectangle,-7.999981165,-11.3333444,1,0,0,0,"[272,115,53,241,263,212,144,266,285,188,279,141,209,142,128,61,319,178,117,288]",-7.999981165,-11.3333444,1,0,0,0,113,113,34,1,,,
,,,,,,,,,,,,,FF,,,,,,,,1.87519,,,,,,,,,,,,,,,,,,,,,,,,,604dedd2805fe682c5bc51c0,60a7d7fc9c148a64ce779f23,2021-05-21_17h56.54.483,Simcolourproject_2stim_asymm_v5,2020.2.10,Win32,60,60a5f9bf14d0aa2821c4bb84,,,3411,36.00002015,-78.00001305,1,0,0,response3disk,,4,2.66668582,5.99998945,1,0,0,rectangle,-37.33331537,-99.33334702,1,0,0,3,"[272,115,53,241,263,212,144,266,285,188,279,141,209,142,128,61,319,178,117,288]",6.000019252,-5.333344221,1,0,0,0,114,114,108,1,,response5disk_3,rectangle
,,,,,,,,,,,,,FF,,,,,,,,1.33422,,,,,,,,,,,,,,,,,,,,,,,,,604dedd2805fe682c5bc51c0,60a7d7fc9c148a64ce779f23,2021-05-21_17h56.54.483,Simcolourproject_2stim_asymm_v5,2020.2.10,Win32,60,60a5f9bf14d0aa2821c4bb84,,,2894,-54.66660853,-76.00001299,1,0,0,response5disk,,3,8.000019312,9.333322883,1,0,0,rectangle,8.000019312,9.333322883,1,0,0,3,"[272,115,53,241,263,212,144,266,285,188,279,141,209,142,128,61,319,178,117,288]",8.000019312,9.333322883,1,0,0,0,115,115,111,1,,,
,,,,,,,,,,,,,FF,,,,,,,,1.313515,,,,,,,,,,,,,,,,,,,,,,,,,604dedd2805fe682c5bc51c0,60a7d7fc9c148a64ce779f23,2021-05-21_17h56.54.483,Simcolourproject_2stim_asymm_v5,2020.2.10,Win32,60,60a5f9bf14d0aa2821c4bb84,,,3162,-26.6666077,-48.00001216,1,0,0,response5disk,,3,6.000019252,3.333322704,1,0,0,rectangle,-76.66660919,43.33330355,1,0,0,1,"[272,115,53,241,263,212,144,266,285,188,279,141,209,142,128,61,319,178,117,288]",2.66668582,-5.333344221,1,0,0,0,116,116,28,1,,response7disk_3,rectangle
,,,,,,,,,,,,,FF,,,,,,,,1.72844,,,,,,,,,,,,,,,,,,,,,,,,,604dedd2805fe682c5bc51c0,60a7d7fc9c148a64ce779f23,2021-05-21_17h56.54.483,Simcolourproject_2stim_asymm_v5,2020.2.10,Win32,60,60a5f9bf14d0aa2821c4bb84,,,1434,49.33335388,-57.33334577,1,0,0,response3disk,,4,18.00001961,-10.66667771,1,0,0,rectangle,18.00001961,-10.66667771,1,0,0,3,"[272,115,53,241,263,212,144,266,285,188,279,141,209,142,128,61,319,178,117,288]",18.00001961,-10.66667771,1,0,0,0,117,117,3,1,,,
,,,,,,,,,,,,,FF,,,,,,,,1.02096,,,,,,,,,,,,,,,,,,,,,,,,,604dedd2805fe682c5bc51c0,60a7d7fc9c148a64ce779f23,2021-05-21_17h56.54.483,Simcolourproject_2stim_asymm_v5,2020.2.10,Win32,60,60a5f9bf14d0aa2821c4bb84,,,1627,76.00002134,-47.33334547,1,0,0,response3disk,,5,-9.999981225,4.666656077,1,0,0,rectangle,-9.999981225,4.666656077,1,0,0,6,"[272,115,53,241,263,212,144,266,285,188,279,141,209,142,128,61,319,178,117,288]",-9.999981225,4.666656077,1,0,0,0,118,118,21,1,,,
,,,,,,,,,,,,,FF,,,,,,,,1.14625,,,,,,,,,,,,,,,,,,,,,,,,,604dedd2805fe682c5bc51c0,60a7d7fc9c148a64ce779f23,2021-05-21_17h56.54.483,Simcolourproject_2stim_asymm_v5,2020.2.10,Win32,60,60a5f9bf14d0aa2821c4bb84,,,851,90.00002176,-52.00001228,1,0,0,response3disk,,5,-2.666606983,-7.333344281,1,0,0,rectangle,-2.666606983,-7.333344281,1,0,0,6,"[272,115,53,241,263,212,144,266,285,188,279,141,209,142,128,61,319,178,117,288]",-2.666606983,-7.333344281,1,0,0,0,119,119,72,1,,,
,,,,,,,,,,,,,FF,,,,,,,,1.10358,,,,,,,,,,,,,,,,,,,,,,,,,604dedd2805fe682c5bc51c0,60a7d7fc9c148a64ce779f23,2021-05-21_17h56.54.483,Simcolourproject_2stim_asymm_v5,2020.2.10,Win32,60,60a5f9bf14d0aa2821c4bb84,,,1127,59.33335418,16.66665643,1,0,0,response1disk,,6,-5.333314419,-1.07288E-05,1,0,0,rectangle,-5.333314419,-1.07288E-05,1,0,0,0,"[272,115,53,241,263,212,144,266,285,188,279,141,209,142,128,61,319,178,117,288]",-5.333314419,-1.07288E-05,1,0,0,0,120,120,60,1,,,
,,,,,,,,,,,,,FF,,,,,,,,1.3544,,,,,,,,,,,,,,,,,,,,,,,,,604dedd2805fe682c5bc51c0,60a7d7fc9c148a64ce779f23,2021-05-21_17h56.54.483,Simcolourproject_2stim_asymm_v5,2020.2.10,Win32,60,60a5f9bf14d0aa2821c4bb84,,,1961,-61.33331609,-24.00001144,1,0,0,response5disk,,6,9.333393375,5.333322763,1,0,0,rectangle,9.333393375,5.333322763,1,0,0,4,"[272,115,53,241,263,212,144,266,285,188,279,141,209,142,128,61,319,178,117,288]",9.333393375,5.333322763,1,0,0,0,121,121,157,1,,,
,,,,,,,,,,,,,FF,,,,,,,,1.45952,,,,,,,,,,,,,,,,,,,,,,,,,604dedd2805fe682c5bc51c0,60a7d7fc9c148a64ce779f23,2021-05-21_17h56.54.483,Simcolourproject_2stim_asymm_v5,2020.2.10,Win32,60,60a5f9bf14d0aa2821c4bb84,,,369,-77.33331656,-28.66667825,1,0,0,response5disk,,6,-5.999981105,-3.333344162,1,0,0,rectangle,-5.999981105,-3.333344162,1,0,0,2,"[272,115,53,241,263,212,144,266,285,188,279,141,209,142,128,61,319,178,117,288]",-5.999981105,-3.333344162,1,0,0,0,122,122,124,1,,,
,,,,,,,,,,,,,FF,,,,,,,,1.29273,,,,,,,,,,,,,,,,,,,,,,,,,604dedd2805fe682c5bc51c0,60a7d7fc9c148a64ce779f23,2021-05-21_17h56.54.483,Simcolourproject_2stim_asymm_v5,2020.2.10,Win32,60,60a5f9bf14d0aa2821c4bb84,,,2555,27.33339391,-60.6666792,1,0,0,response3disk,,4,-7.333314478,-12.00001109,1,0,0,rectangle,-7.333314478,-12.00001109,1,0,0,1,"[272,115,53,241,263,212,144,266,285,188,279,141,209,142,128,61,319,178,117,288]",-7.333314478,-12.00001109,1,0,0,0,123,123,116,1,,,
,,,,,,,,,,,,,FF,,,,,,,,1.121085,,,,,,,,,,,,,,,,,,,,,,,,,604dedd2805fe682c5bc51c0,60a7d7fc9c148a64ce779f23,2021-05-21_17h56.54.483,Simcolourproject_2stim_asymm_v5,2020.2.10,Win32,60,60a5f9bf14d0aa2821c4bb84,,,2427,-33.99998194,-66.0000127,1,0,0,response5disk,,3,-0.666606923,-1.07288E-05,1,0,0,rectangle,-0.666606923,-1.07288E-05,1,0,0,0,"[272,115,53,241,263,212,144,266,285,188,279,141,209,142,128,61,319,178,117,288]",-0.666606923,-1.07288E-05,1,0,0,0,124,124,141,1,,,
,,,,,,,,,,,,,FF,,,,,,,,1.313725,,,,,,,,,,,,,,,,,,,,,,,,,604dedd2805fe682c5bc51c0,60a7d7fc9c148a64ce779f23,2021-05-21_17h56.54.483,Simcolourproject_2stim_asymm_v5,2020.2.10,Win32,60,60a5f9bf14d0aa2821c4bb84,,,1256,29.33339397,-59.33334583,1,0,0,response3disk,,4,10.66668606,-6.666677594,1,0,0,rectangle,10.66668606,-6.666677594,1,0,0,3,"[272,115,53,241,263,212,144,266,285,188,279,141,209,142,128,61,319,178,117,288]",10.66668606,-6.666677594,1,0,0,0,125,125,20,1,,,
,,,,,,,,,,,,,FF,,,,,,,,1.417455,,,,,,,,,,,,,,,,,,,,,,,,,604dedd2805fe682c5bc51c0,60a7d7fc9c148a64ce779f23,2021-05-21_17h56.54.483,Simcolourproject_2stim_asymm_v5,2020.2.10,Win32,60,60a5f9bf14d0aa2821c4bb84,,,422,32.66668671,-56.0000124,1,0,0,response3disk,,4,12.66668612,-2.000010788,1,0,0,rectangle,12.66668612,-2.000010788,1,0,0,3,"[272,115,53,241,263,212,144,266,285,188,279,141,209,142,128,61,319,178,117,288]",12.66668612,-2.000010788,1,0,0,0,126,126,101,1,,,
,,,,,,,,,,,,,FF,,,,,,,,1.41248,,,,,,,,,,,,,,,,,,,,,,,,,604dedd2805fe682c5bc51c0,60a7d7fc9c148a64ce779f23,2021-05-21_17h56.54.483,Simcolourproject_2stim_asymm_v5,2020.2.10,Win32,60,60a5f9bf14d0aa2821c4bb84,,,1752,-55.9999826,-23.33334476,1,0,0,response5disk,,4,-21.99998158,4.666656077,1,0,0,rectangle,87.33335501,43.99999058,1,0,0,6,"[272,115,53,241,263,212,144,266,285,188,279,141,209,142,128,61,319,178,117,288]",17.33339361,3.99998939,1,0,0,0,127,127,89,1,,response1disk_3,rectangle
,,,,,,,,,,,,,FF,,,,,,,,1.667275,,,,,,,,,,,,,,,,,,,,,,,,,604dedd2805fe682c5bc51c0,60a7d7fc9c148a64ce779f23,2021-05-21_17h56.54.483,Simcolourproject_2stim_asymm_v5,2020.2.10,Win32,60,60a5f9bf14d0aa2821c4bb84,,,657,80.66668814,-40.00001192,1,0,0,response3disk,,5,-13.99998134,-12.66667777,1,0,0,rectangle,-13.99998134,-12.66667777,1,0,0,1,"[272,115,53,241,263,212,144,266,285,188,279,141,209,142,128,61,319,178,117,288]",-13.99998134,-12.66667777,1,0,0,0,128,128,82,1,,,
,,,,,,,,,,,,,FF,,,,,,,,1.729955,,,,,,,,,,,,,,,,,,,,,,,,,604dedd2805fe682c5bc51c0,60a7d7fc9c148a64ce779f23,2021-05-21_17h56.54.483,Simcolourproject_2stim_asymm_v5,2020.2.10,Win32,60,60a5f9bf14d0aa2821c4bb84,,,4205,-45.33331561,-29.33334494,1,0,0,response5disk,,5,-8.666607161,-5.333344221,1,0,0,rectangle,-8.666607161,-5.333344221,1,0,0,0,"[272,115,53,241,263,212,144,266,285,188,279,141,209,142,128,61,319,178,117,288]",-8.666607161,-5.333344221,1,0,0,0,129,129,13,1,,,
,,,,,,,,,,,,,FF,,,,,,,,1.979905,,,,,,,,,,,,,,,,,,,,,,,,,604dedd2805fe682c5bc51c0,60a7d7fc9c148a64ce779f23,2021-05-21_17h56.54.483,Simcolourproject_2stim_asymm_v5,2020.2.10,Win32,60,60a5f9bf14d0aa2821c4bb84,,,3184,86.00002164,-50.00001222,1,0,0,response3disk,,5,6.666685939,-1.07288E-05,1,0,0,rectangle,6.666685939,-1.07288E-05,1,0,0,5,"[272,115,53,241,263,212,144,266,285,188,279,141,209,142,128,61,319,178,117,288]",6.666685939,-1.07288E-05,1,0,0,0,130,130,131,1,,,
,,,,,,,,,,,,,FF,,,,,,,,1.395385,,,,,,,,,,,,,,,,,,,,,,,,,604dedd2805fe682c5bc51c0,60a7d7fc9c148a64ce779f23,2021-05-21_17h56.54.483,Simcolourproject_2stim_asymm_v5,2020.2.10,Win32,60,60a5f9bf14d0aa2821c4bb84,,,3152,34.66668677,-48.00001216,1,0,0,response3disk,,4,3.333393196,7.99998951,1,0,0,rectangle,3.333393196,7.99998951,1,0,0,3,"[272,115,53,241,263,212,144,266,285,188,279,141,209,142,128,61,319,178,117,288]",3.333393196,7.99998951,1,0,0,0,131,131,160,1,,,
,,,,,,,,,,,,,FF,,,,,,,,1.260305,,,,,,,,,,,,,,,,,,,,,,,,,604dedd2805fe682c5bc51c0,60a7d7fc9c148a64ce779f23,2021-05-21_17h56.54.483,Simcolourproject_2stim_asymm_v5,2020.2.10,Win32,60,60a5f9bf14d0aa2821c4bb84,,,264,-35.999982,-66.0000127,1,0,0,response5disk,,3,2.66668582,1.333322644,1,0,0,rectangle,2.66668582,1.333322644,1,0,0,1,"[272,115,53,241,263,212,144,266,285,188,279,141,209,142,128,61,319,178,117,288]",2.66668582,1.333322644,1,0,0,0,132,132,30,1,,,
,,,,,,,,,,,,,FF,,,,,,,,1.16718,,,,,,,,,,,,,,,,,,,,,,,,,604dedd2805fe682c5bc51c0,60a7d7fc9c148a64ce779f23,2021-05-21_17h56.54.483,Simcolourproject_2stim_asymm_v5,2020.2.10,Win32,60,60a5f9bf14d0aa2821c4bb84,,,4302,27.33339391,-51.33334559,1,0,0,response3disk,,4,1.9735E-05,9.333322883,1,0,0,rectangle,1.9735E-05,9.333322883,1,0,0,3,"[272,115,53,241,263,212,144,266,285,188,279,141,209,142,128,61,319,178,117,288]",1.9735E-05,9.333322883,1,0,0,0,133,133,138,1,,,
,,,,,,,,,,,,,FF,,,,,,,,1.31209,,,,,,,,,,,,,,,,,,,,,,,,,604dedd2805fe682c5bc51c0,60a7d7fc9c148a64ce779f23,2021-05-21_17h56.54.483,Simcolourproject_2stim_asymm_v5,2020.2.10,Win32,60,60a5f9bf14d0aa2821c4bb84,,,4172,68.66668779,21.99998993,1,0,0,response1disk,,6,-3.333314359,-2.666677475,1,0,0,rectangle,-3.333314359,-2.666677475,1,0,0,1,"[272,115,53,241,263,212,144,266,285,188,279,141,209,142,128,61,319,178,117,288]",-3.333314359,-2.666677475,1,0,0,0,134,134,11,1,,,
,,,,,,,,,,,,,FF,,,,,,,,1.375215,,,,,,,,,,,,,,,,,,,,,,,,,604dedd2805fe682c5bc51c0,60a7d7fc9c148a64ce779f23,2021-05-21_17h56.54.483,Simcolourproject_2stim_asymm_v5,2020.2.10,Win32,60,60a5f9bf14d0aa2821c4bb84,,,2565,69.33335447,23.33330295,1,0,0,response1disk,,6,14.66668618,3.99998939,1,0,0,rectangle,14.66668618,3.99998939,1,0,0,1,"[272,115,53,241,263,212,144,266,285,188,279,141,209,142,128,61,319,178,117,288]",14.66668618,3.99998939,1,0,0,0,135,135,97,1,,,
,,,,,,,,,,,,,FF,,,,,,,,1.000675,,,,,,,,,,,,,,,,,,,,,,,,,604dedd2805fe682c5bc51c0,60a7d7fc9c148a64ce779f23,2021-05-21_17h56.54.483,Simcolourproject_2stim_asymm_v5,2020.2.10,Win32,60,60a5f9bf14d0aa2821c4bb84,,,1485,54.66668737,24.66665667,1,0,0,response1disk,,6,18.6666863,3.99998939,1,0,0,rectangle,18.6666863,3.99998939,1,0,0,4,"[272,115,53,241,263,212,144,266,285,188,279,141,209,142,128,61,319,178,117,288]",18.6666863,3.99998939,1,0,0,0,136,136,149,1,,,
,,,,,,,,,,,,,FF,,,,,,,,1.313365,,,,,,,,,,,,,,,,,,,,,,,,,604dedd2805fe682c5bc51c0,60a7d7fc9c148a64ce779f23,2021-05-21_17h56.54.483,Simcolourproject_2stim_asymm_v5,2020.2.10,Win32,60,60a5f9bf14d0aa2821c4bb84,,,2967,63.33335429,-39.33334523,1,0,0,response3disk,,5,-0.666606923,0.666655958,1,0,0,rectangle,-0.666606923,0.666655958,1,0,0,2,"[272,115,53,241,263,212,144,266,285,188,279,141,209,142,128,61,319,178,117,288]",-0.666606923,0.666655958,1,0,0,0,137,137,110,1,,,
,,,,,,,,,,,,,FF,,,,,,,,1.14616,,,,,,,,,,,,,,,,,,,,,,,,,604dedd2805fe682c5bc51c0,60a7d7fc9c148a64ce779f23,2021-05-21_17h56.54.483,Simcolourproject_2stim_asymm_v5,2020.2.10,Win32,60,60a5f9bf14d0aa2821c4bb84,,,385,81.33335483,-34.00001174,1,0,0,response3disk,,5,-9.333314538,4.666656077,1,0,0,rectangle,-9.333314538,4.666656077,1,0,0,2,"[272,115,53,241,263,212,144,266,285,188,279,141,209,142,128,61,319,178,117,288]",-9.333314538,4.666656077,1,0,0,0,138,138,156,1,,,
,,,,,,,,,,,,,FF,,,,,,,,1.999745,,,,,,,,,,,,,,,,,,,,,,,,,604dedd2805fe682c5bc51c0,60a7d7fc9c148a64ce779f23,2021-05-21_17h56.54.483,Simcolourproject_2stim_asymm_v5,2020.2.10,Win32,60,60a5f9bf14d0aa2821c4bb84,,,83,84.66668826,37.9999904,1,0,0,response1disk,,6,1.9735E-05,3.333322704,1,0,0,rectangle,1.9735E-05,3.333322704,1,0,0,5,"[272,115,53,241,263,212,144,266,285,188,279,141,209,142,128,61,319,178,117,288]",1.9735E-05,3.333322704,1,0,0,0,139,139,4,1,,,
,,,,,,,,,,,,,FF,,,,,,,,0.917025,,,,,,,,,,,,,,,,,,,,,,,,,604dedd2805fe682c5bc51c0,60a7d7fc9c148a64ce779f23,2021-05-21_17h56.54.483,Simcolourproject_2stim_asymm_v5,2020.2.10,Win32,60,60a5f9bf14d0aa2821c4bb84,,,231,75.33335465,23.33330295,1,0,0,response1disk,,6,-4.666607042,4.666656077,1,0,0,rectangle,-75.3333165,-44.66667873,1,0,0,2,"[272,115,53,241,263,212,144,266,285,188,279,141,209,142,128,61,319,178,117,288]",6.666685939,-2.000010788,1,0,0,0,140,140,53,1,,response5disk_3,rectangle
,,,,,,,,,,,,,FF,,,,,,,,1.3958,,,,,,,,,,,,,,,,,,,,,,,,,604dedd2805fe682c5bc51c0,60a7d7fc9c148a64ce779f23,2021-05-21_17h56.54.483,Simcolourproject_2stim_asymm_v5,2020.2.10,Win32,60,60a5f9bf14d0aa2821c4bb84,,,3889,32.66668671,-46.66667879,1,0,0,response3disk,,4,10.66668606,1.333322644,1,0,0,rectangle,-26.6666077,80.66665834,1,0,0,0,"[272,115,53,241,263,212,144,266,285,188,279,141,209,142,128,61,319,178,117,288]",-8.666607161,-0.666677415,1,0,0,0,141,141,57,1,,response7disk_3,rectangle
,,,,,,,,,,,,,FF,,,,,,,,1.542135,,,,,,,,,,,,,,,,,,,,,,,,,604dedd2805fe682c5bc51c0,60a7d7fc9c148a64ce779f23,2021-05-21_17h56.54.483,Simcolourproject_2stim_asymm_v5,2020.2.10,Win32,60,60a5f9bf14d0aa2821c4bb84,,,2020,50.00002056,29.99999017,1,0,0,response1disk,,6,6.000019252,6.666656137,1,0,0,rectangle,6.000019252,6.666656137,1,0,0,0,"[272,115,53,241,263,212,144,266,285,188,279,141,209,142,128,61,319,178,117,288]",6.000019252,6.666656137,1,0,0,0,142,142,125,1,,,
,,,,,,,,,,,,,FF,,,,,,,,1.4792,,,,,,,,,,,,,,,,,,,,,,,,,604dedd2805fe682c5bc51c0,60a7d7fc9c148a64ce779f23,2021-05-21_17h56.54.483,Simcolourproject_2stim_asymm_v5,2020.2.10,Win32,60,60a5f9bf14d0aa2821c4bb84,,,2935,86.00002164,35.99999034,1,0,0,response1disk,,6,8.000019312,4.666656077,1,0,0,rectangle,-83.33331674,-44.00001204,1,0,0,2,"[272,115,53,241,263,212,144,266,285,188,279,141,209,142,128,61,319,178,117,288]",8.666685998,6.666656137,1,0,0,0,143,143,15,1,,response5disk_3,rectangle
,,,,,,,,,,,,,FF,,,,,,,,1.251375,,,,,,,,,,,,,,,,,,,,,,,,,604dedd2805fe682c5bc51c0,60a7d7fc9c148a64ce779f23,2021-05-21_17h56.54.483,Simcolourproject_2stim_asymm_v5,2020.2.10,Win32,60,60a5f9bf14d0aa2821c4bb84,,,1926,48.0000205,-89.33334672,1,0,0,response3disk,,4,-1.3333143,-2.666677475,1,0,0,rectangle,-1.3333143,-2.666677475,1,0,0,4,"[272,115,53,241,263,212,144,266,285,188,279,141,209,142,128,61,319,178,117,288]",-1.3333143,-2.666677475,1,0,0,0,144,144,94,1,,,
,,,,,,,,,,,,,FF,,,,,,,,1.81305,,,,,,,,,,,,,,,,,,,,,,,,,604dedd2805fe682c5bc51c0,60a7d7fc9c148a64ce779f23,2021-05-21_17h56.54.483,Simcolourproject_2stim_asymm_v5,2020.2.10,Win32,60,60a5f9bf14d0aa2821c4bb84,,,3569,108.666689,-39.33334523,1,0,0,response3disk,,5,19.33339367,-5.333344221,1,0,0,rectangle,19.33339367,-5.333344221,1,0,0,3,"[272,115,53,241,263,212,144,266,285,188,279,141,209,142,128,61,319,178,117,288]",19.33339367,-5.333344221,1,0,0,0,145,145,137,1,,,
,,,,,,,,,,,,,FF,,,,,,,,1.563035,,,,,,,,,,,,,,,,,,,,,,,,,604dedd2805fe682c5bc51c0,60a7d7fc9c148a64ce779f23,2021-05-21_17h56.54.483,Simcolourproject_2stim_asymm_v5,2020.2.10,Win32,60,60a5f9bf14d0aa2821c4bb84,,,1345,28.00001991,-74.66667962,1,0,0,response3disk,,4,3.333393196,-0.666677415,1,0,0,rectangle,3.333393196,-0.666677415,1,0,0,3,"[272,115,53,241,263,212,144,266,285,188,279,141,209,142,128,61,319,178,117,288]",3.333393196,-0.666677415,1,0,0,0,146,146,40,1,,,
,,,,,,,,,,,,,FF,,,,,,,,1.021395,,,,,,,,,,,,,,,,,,,,,,,,,604dedd2805fe682c5bc51c0,60a7d7fc9c148a64ce779f23,2021-05-21_17h56.54.483,Simcolourproject_2stim_asymm_v5,2020.2.10,Win32,60,60a5f9bf14d0aa2821c4bb84,,,1794,35.33339415,-50.00001222,1,0,0,response3disk,,4,4.000019193,-7.333344281,1,0,0,rectangle,4.000019193,-7.333344281,1,0,0,5,"[272,115,53,241,263,212,144,266,285,188,279,141,209,142,128,61,319,178,117,288]",4.000019193,-7.333344281,1,0,0,0,147,147,81,1,,,
,,,,,,,,,,,,,FF,,,,,,,,1.66623,,,,,,,,,,,,,,,,,,,,,,,,,604dedd2805fe682c5bc51c0,60a7d7fc9c148a64ce779f23,2021-05-21_17h56.54.483,Simcolourproject_2stim_asymm_v5,2020.2.10,Win32,60,60a5f9bf14d0aa2821c4bb84,,,4342,55.33335406,67.33330427,1,0,0,response1disk,,7,15.33339355,-2.666677475,1,0,0,rectangle,15.33339355,-2.666677475,1,0,0,2,"[272,115,53,241,263,212,144,266,285,188,279,141,209,142,128,61,319,178,117,288]",15.33339355,-2.666677475,1,0,0,0,148,148,154,1,,,
,,,,,,,,,,,,,FF,,,,,,,,1.417275,,,,,,,,,,,,,,,,,,,,,,,,,604dedd2805fe682c5bc51c0,60a7d7fc9c148a64ce779f23,2021-05-21_17h56.54.483,Simcolourproject_2stim_asymm_v5,2020.2.10,Win32,60,60a5f9bf14d0aa2821c4bb84,,,24,75.33335465,52.66665751,1,0,0,response1disk,,6,8.000019312,7.333322823,1,0,0,rectangle,8.000019312,7.333322823,1,0,0,6,"[272,115,53,241,263,212,144,266,285,188,279,141,209,142,128,61,319,178,117,288]",8.000019312,7.333322823,1,0,0,0,149,149,146,1,,,
,,,,,,,,,,,,,FF,,,,,,,,1.291725,,,,,,,,,,,,,,,,,,,,,,,,,604dedd2805fe682c5bc51c0,60a7d7fc9c148a64ce779f23,2021-05-21_17h56.54.483,Simcolourproject_2stim_asymm_v5,2020.2.10,Win32,60,60a5f9bf14d0aa2821c4bb84,,,45,38.66668689,-54.00001234,1,0,0,response3disk,,4,-5.333314419,9.999989569,1,0,0,rectangle,-5.333314419,9.999989569,1,0,0,5,"[272,115,53,241,263,212,144,266,285,188,279,141,209,142,128,61,319,178,117,288]",-5.333314419,9.999989569,1,0,0,0,150,150,51,1,,,
,,,,,,,,,,,,,FF,,,,,,,,1.437345,,,,,,,,,,,,,,,,,,,,,,,,,604dedd2805fe682c5bc51c0,60a7d7fc9c148a64ce779f23,2021-05-21_17h56.54.483,Simcolourproject_2stim_asymm_v5,2020.2.10,Win32,60,60a5f9bf14d0aa2821c4bb84,,,2768,34.66668677,-65.33334601,1,0,0,response3disk,,4,-3.333314359,-6.666677594,1,0,0,rectangle,-3.333314359,-6.666677594,1,0,0,4,"[272,115,53,241,263,212,144,266,285,188,279,141,209,142,128,61,319,178,117,288]",-3.333314359,-6.666677594,1,0,0,0,151,151,0,1,,,
,,,,,,,,,,,,,FF,,,,,,,,1.375435,,,,,,,,,,,,,,,,,,,,,,,,,604dedd2805fe682c5bc51c0,60a7d7fc9c148a64ce779f23,2021-05-21_17h56.54.483,Simcolourproject_2stim_asymm_v5,2020.2.10,Win32,60,60a5f9bf14d0aa2821c4bb84,,,378,37.33339421,-54.00001234,1,0,0,response3disk,,4,1.9735E-05,-8.666677654,1,0,0,rectangle,1.9735E-05,-8.666677654,1,0,0,6,"[272,115,53,241,263,212,144,266,285,188,279,141,209,142,128,61,319,178,117,288]",1.9735E-05,-8.666677654,1,0,0,0,152,152,56,1,,,
,,,,,,,,,,,,,FF,,,,,,,,1.29236,,,,,,,,,,,,,,,,,,,,,,,,,604dedd2805fe682c5bc51c0,60a7d7fc9c148a64ce779f23,2021-05-21_17h56.54.483,Simcolourproject_2stim_asymm_v5,2020.2.10,Win32,60,60a5f9bf14d0aa2821c4bb84,,,3776,-35.33331531,77.33330456,1,0,0,response7disk,,0,-5.333314419,1.333322644,1,0,0,rectangle,-5.333314419,1.333322644,1,0,0,3,"[272,115,53,241,263,212,144,266,285,188,279,141,209,142,128,61,319,178,117,288]",-5.333314419,1.333322644,1,0,0,0,153,153,127,1,,,
,,,,,,,,,,,,,FF,,,,,,,,3.33331,,,,,,,,,,,,,,,,,,,,,,,,,604dedd2805fe682c5bc51c0,60a7d7fc9c148a64ce779f23,2021-05-21_17h56.54.483,Simcolourproject_2stim_asymm_v5,2020.2.10,Win32,60,60a5f9bf14d0aa2821c4bb84,,,1785,32.66668671,-62.66667926,1,0,0,response3disk,,4,-8.666607161,-0.666677415,1,0,0,rectangle,-8.666607161,-0.666677415,1,0,0,0,"[272,115,53,241,263,212,144,266,285,188,279,141,209,142,128,61,319,178,117,288]",-8.666607161,-0.666677415,1,0,0,0,154,154,79,1,,,
,,,,,,,,,,,,,FF,,,,,,,,1.12531,,,,,,,,,,,,,,,,,,,,,,,,,604dedd2805fe682c5bc51c0,60a7d7fc9c148a64ce779f23,2021-05-21_17h56.54.483,Simcolourproject_2stim_asymm_v5,2020.2.10,Win32,60,60a5f9bf14d0aa2821c4bb84,,,4069,77.33335471,-36.66667849,1,0,0,response3disk,,5,16.66668624,2.666656017,1,0,0,rectangle,16.66668624,2.666656017,1,0,0,3,"[272,115,53,241,263,212,144,266,285,188,279,141,209,142,128,61,319,178,117,288]",16.66668624,2.666656017,1,0,0,0,155,155,22,1,,,
,,,,,,,,,,,,,FF,,,,,,,,1.22904,,,,,,,,,,,,,,,,,,,,,,,,,604dedd2805fe682c5bc51c0,60a7d7fc9c148a64ce779f23,2021-05-21_17h56.54.483,Simcolourproject_2stim_asymm_v5,2020.2.10,Win32,60,60a5f9bf14d0aa2821c4bb84,,,3330,64.00002098,-38.66667855,1,0,0,response3disk,,5,4.000019193,-2.666677475,1,0,0,rectangle,4.000019193,-2.666677475,1,0,0,1,"[272,115,53,241,263,212,144,266,285,188,279,141,209,142,128,61,319,178,117,288]",4.000019193,-2.666677475,1,0,0,0,156,156,5,1,,,
,,,,,,,,,,,,,FF,,,,,,,,1.875515,,,,,,,,,,,,,,,,,,,,,,,,,604dedd2805fe682c5bc51c0,60a7d7fc9c148a64ce779f23,2021-05-21_17h56.54.483,Simcolourproject_2stim_asymm_v5,2020.2.10,Win32,60,60a5f9bf14d0aa2821c4bb84,,,1889,-29.33331513,-58.66667914,1,0,0,response5disk,,3,-3.333314359,-0.666677415,1,0,0,rectangle,-3.333314359,-0.666677415,1,0,0,7,"[272,115,53,241,263,212,144,266,285,188,279,141,209,142,128,61,319,178,117,288]",-3.333314359,-0.666677415,1,0,0,0,157,157,69,1,,,
,,,,,,,,,,,,,FF,,,,,,,,1.23009,,,,,,,,,,,,,,,,,,,,,,,,,604dedd2805fe682c5bc51c0,60a7d7fc9c148a64ce779f23,2021-05-21_17h56.54.483,Simcolourproject_2stim_asymm_v5,2020.2.10,Win32,60,60a5f9bf14d0aa2821c4bb84,,,1432,52.00002062,-28.66667825,1,0,0,response3disk,,5,1.333393137,-1.07288E-05,1,0,0,rectangle,1.333393137,-1.07288E-05,1,0,0,3,"[272,115,53,241,263,212,144,266,285,188,279,141,209,142,128,61,319,178,117,288]",1.333393137,-1.07288E-05,1,0,0,0,158,158,59,1,,,
,,,,,,,,,,,,,FF,,,,,,,,1.853935,,,,,,,,,,,,,,,,,,,,,,,,,604dedd2805fe682c5bc51c0,60a7d7fc9c148a64ce779f23,2021-05-21_17h56.54.483,Simcolourproject_2stim_asymm_v5,2020.2.10,Win32,60,60a5f9bf14d0aa2821c4bb84,,,3894,37.33339421,-68.66667944,1,0,0,response3disk,,4,8.000019312,9.333322883,1,0,0,rectangle,8.000019312,9.333322883,1,0,0,0,"[272,115,53,241,263,212,144,266,285,188,279,141,209,142,128,61,319,178,117,288]",8.000019312,9.333322883,1,0,0,0,159,159,67,1,,,
,,,,,,,,,,,,,FF,,,,,,,,2.10453,,,,,,,,,,,,,,,,,,,,,,,,,604dedd2805fe682c5bc51c0,60a7d7fc9c148a64ce779f23,2021-05-21_17h56.54.483,Simcolourproject_2stim_asymm_v5,2020.2.10,Win32,60,60a5f9bf14d0aa2821c4bb84,,,3359,86.00002164,40.66665715,1,0,0,response1disk,,6,21.33339373,-1.07288E-05,1,0,0,rectangle,21.33339373,-1.07288E-05,1,0,0,0,"[272,115,53,241,263,212,144,266,285,188,279,141,209,142,128,61,319,178,117,288]",21.33339373,-1.07288E-05,1,0,0,0,160,160,48,1,,,
,,,,,,,,,,,,,FF,,,,,,,,1.81312,,,,,,,,,,,,,,,,,,,,,,,,,604dedd2805fe682c5bc51c0,60a7d7fc9c148a64ce779f23,2021-05-21_17h56.54.483,Simcolourproject_2stim_asymm_v5,2020.2.10,Win32,60,60a5f9bf14d0aa2821c4bb84,,,3555,22.00001973,-66.66667938,1,0,0,response3disk,,4,1.9735E-05,-8.000010967,1,0,0,rectangle,1.9735E-05,-8.000010967,1,0,0,0,"[272,115,53,241,263,212,144,266,285,188,279,141,209,142,128,61,319,178,117,288]",1.9735E-05,-8.000010967,1,0,0,1,0,161,152,1,,,
,,,,,,,,,,,,,FF,,,,,,,,2.917035,,,,,,,,,,,,,,,,,,,,,,,,,604dedd2805fe682c5bc51c0,60a7d7fc9c148a64ce779f23,2021-05-21_17h56.54.483,Simcolourproject_2stim_asymm_v5,2020.2.10,Win32,60,60a5f9bf14d0aa2821c4bb84,,,1769,65.33335435,-53.33334565,1,0,0,response3disk,,5,5.333393256,1.999989331,1,0,0,rectangle,5.333393256,1.999989331,1,0,0,1,"[272,115,53,241,263,212,144,266,285,188,279,141,209,142,128,61,319,178,117,288]",5.333393256,1.999989331,1,0,0,1,1,162,104,1,,,
,,,,,,,,,,,,,FF,,,,,,,,1.250315,,,,,,,,,,,,,,,,,,,,,,,,,604dedd2805fe682c5bc51c0,60a7d7fc9c148a64ce779f23,2021-05-21_17h56.54.483,Simcolourproject_2stim_asymm_v5,2020.2.10,Win32,60,60a5f9bf14d0aa2821c4bb84,,,1345,36.00002015,-50.00001222,1,0,0,response3disk,,4,10.66668606,2.666656017,1,0,0,rectangle,10.66668606,2.666656017,1,0,0,6,"[272,115,53,241,263,212,144,266,285,188,279,141,209,142,128,61,319,178,117,288]",10.66668606,2.666656017,1,0,0,1,2,163,1,1,,,
,,,,,,,,,,,,,FF,,,,,,,,1.87569,,,,,,,,,,,,,,,,,,,,,,,,,604dedd2805fe682c5bc51c0,60a7d7fc9c148a64ce779f23,2021-05-21_17h56.54.483,Simcolourproject_2stim_asymm_v5,2020.2.10,Win32,60,60a5f9bf14d0aa2821c4bb84,,,3912,51.33335394,-40.66667861,1,0,0,response3disk,,5,2.66668582,-1.07288E-05,1,0,0,rectangle,2.66668582,-1.07288E-05,1,0,0,7,"[272,115,53,241,263,212,144,266,285,188,279,141,209,142,128,61,319,178,117,288]",2.66668582,-1.07288E-05,1,0,0,1,3,164,21,1,,,
,,,,,,,,,,,,,FF,,,,,,,,1.938395,,,,,,,,,,,,,,,,,,,,,,,,,604dedd2805fe682c5bc51c0,60a7d7fc9c148a64ce779f23,2021-05-21_17h56.54.483,Simcolourproject_2stim_asymm_v5,2020.2.10,Win32,60,60a5f9bf14d0aa2821c4bb84,,,4054,50.66668725,-35.33334512,1,0,0,response3disk,,5,10.66668606,8.666656196,1,0,0,rectangle,10.66668606,8.666656196,1,0,0,4,"[272,115,53,241,263,212,144,266,285,188,279,141,209,142,128,61,319,178,117,288]",10.66668606,8.666656196,1,0,0,1,4,165,62,1,,,
,,,,,,,,,,,,,FF,,,,,,,,1.438585,,,,,,,,,,,,,,,,,,,,,,,,,604dedd2805fe682c5bc51c0,60a7d7fc9c148a64ce779f23,2021-05-21_17h56.54.483,Simcolourproject_2stim_asymm_v5,2020.2.10,Win32,60,60a5f9bf14d0aa2821c4bb84,,,975,-66.66660889,-37.33334517,1,0,0,response5disk,,5,-15.9999814,-6.666677594,1,0,0,rectangle,-15.9999814,-6.666677594,1,0,0,3,"[272,115,53,241,263,212,144,266,285,188,279,141,209,142,128,61,319,178,117,288]",-15.9999814,-6.666677594,1,0,0,1,5,166,105,1,,,
,,,,,,,,,,,,,FF,,,,,,,,1.45798,,,,,,,,,,,,,,,,,,,,,,,,,604dedd2805fe682c5bc51c0,60a7d7fc9c148a64ce779f23,2021-05-21_17h56.54.483,Simcolourproject_2stim_asymm_v5,2020.2.10,Win32,60,60a5f9bf14d0aa2821c4bb84,,,51,26.66668653,-45.33334541,1,0,0,response3disk,,4,6.000019252,-0.666677415,1,0,0,rectangle,6.000019252,-0.666677415,1,0,0,5,"[272,115,53,241,263,212,144,266,285,188,279,141,209,142,128,61,319,178,117,288]",6.000019252,-0.666677415,1,0,0,1,6,167,9,1,,,
,,,,,,,,,,,,,FF,,,,,,,,1.729675,,,,,,,,,,,,,,,,,,,,,,,,,604dedd2805fe682c5bc51c0,60a7d7fc9c148a64ce779f23,2021-05-21_17h56.54.483,Simcolourproject_2stim_asymm_v5,2020.2.10,Win32,60,60a5f9bf14d0aa2821c4bb84,,,3426,-83.33331674,37.9999904,1,0,0,response7disk,,1,-10.66660722,-0.666677415,1,0,0,rectangle,-10.66660722,-0.666677415,1,0,0,6,"[272,115,53,241,263,212,144,266,285,188,279,141,209,142,128,61,319,178,117,288]",-10.66660722,-0.666677415,1,0,0,1,7,168,94,1,,,
,,,,,,,,,,,,,FF,,,,,,,,2.145845,,,,,,,,,,,,,,,,,,,,,,,,,604dedd2805fe682c5bc51c0,60a7d7fc9c148a64ce779f23,2021-05-21_17h56.54.483,Simcolourproject_2stim_asymm_v5,2020.2.10,Win32,60,60a5f9bf14d0aa2821c4bb84,,,1052,-39.33331543,-48.66667885,1,0,0,response5disk,,3,-1.3333143,12.66665632,1,0,0,rectangle,-1.3333143,12.66665632,1,0,0,7,"[272,115,53,241,263,212,144,266,285,188,279,141,209,142,128,61,319,178,117,288]",-1.3333143,12.66665632,1,0,0,1,8,169,119,1,,,
,,,,,,,,,,,,,FF,,,,,,,,1.22934,,,,,,,,,,,,,,,,,,,,,,,,,604dedd2805fe682c5bc51c0,60a7d7fc9c148a64ce779f23,2021-05-21_17h56.54.483,Simcolourproject_2stim_asymm_v5,2020.2.10,Win32,60,60a5f9bf14d0aa2821c4bb84,,,4339,69.33335447,39.99999046,1,0,0,response1disk,,6,0.66668576,-4.000010848,1,0,0,rectangle,0.66668576,-4.000010848,1,0,0,5,"[272,115,53,241,263,212,144,266,285,188,279,141,209,142,128,61,319,178,117,288]",0.66668576,-4.000010848,1,0,0,1,9,170,52,1,,,
,,,,,,,,,,,,,FF,,,,,,,,3.37509,,,,,,,,,,,,,,,,,,,,,,,,,604dedd2805fe682c5bc51c0,60a7d7fc9c148a64ce779f23,2021-05-21_17h56.54.483,Simcolourproject_2stim_asymm_v5,2020.2.10,Win32,60,60a5f9bf14d0aa2821c4bb84,,,550,-62.66660877,-47.33334547,1,0,0,response5disk,,6,-8.666607161,-9.33334434,1,0,0,rectangle,-8.666607161,-9.33334434,1,0,0,2,"[272,115,53,241,263,212,144,266,285,188,279,141,209,142,128,61,319,178,117,288]",-8.666607161,-9.33334434,1,0,0,1,10,171,118,1,,,
,,,,,,,,,,,,,FF,,,,,,,,1.16668,,,,,,,,,,,,,,,,,,,,,,,,,604dedd2805fe682c5bc51c0,60a7d7fc9c148a64ce779f23,2021-05-21_17h56.54.483,Simcolourproject_2stim_asymm_v5,2020.2.10,Win32,60,60a5f9bf14d0aa2821c4bb84,,,1181,73.33335459,-24.00001144,1,0,0,response3disk,,5,30.66668665,1.333322644,1,0,0,rectangle,30.66668665,1.333322644,1,0,0,6,"[272,115,53,241,263,212,144,266,285,188,279,141,209,142,128,61,319,178,117,288]",30.66668665,1.333322644,1,0,0,1,11,172,34,1,,,
,,,,,,,,,,,,,FF,,,,,,,,1.416725,,,,,,,,,,,,,,,,,,,,,,,,,604dedd2805fe682c5bc51c0,60a7d7fc9c148a64ce779f23,2021-05-21_17h56.54.483,Simcolourproject_2stim_asymm_v5,2020.2.10,Win32,60,60a5f9bf14d0aa2821c4bb84,,,3680,28.00001991,-53.33334565,1,0,0,response3disk,,4,-5.333314419,2.666656017,1,0,0,rectangle,-5.333314419,2.666656017,1,0,0,7,"[272,115,53,241,263,212,144,266,285,188,279,141,209,142,128,61,319,178,117,288]",-5.333314419,2.666656017,1,0,0,1,12,173,96,1,,,
,,,,,,,,,,,,,FF,,,,,,,,1.35424,,,,,,,,,,,,,,,,,,,,,,,,,604dedd2805fe682c5bc51c0,60a7d7fc9c148a64ce779f23,2021-05-21_17h56.54.483,Simcolourproject_2stim_asymm_v5,2020.2.10,Win32,60,60a5f9bf14d0aa2821c4bb84,,,2521,78.66668808,63.99999118,1,0,0,response1disk,,6,4.666685879,5.99998945,1,0,0,rectangle,4.666685879,5.99998945,1,0,0,0,"[272,115,53,241,263,212,144,266,285,188,279,141,209,142,128,61,319,178,117,288]",4.666685879,5.99998945,1,0,0,1,13,174,75,1,,,
,,,,,,,,,,,,,FF,,,,,,,,1.313105,,,,,,,,,,,,,,,,,,,,,,,,,604dedd2805fe682c5bc51c0,60a7d7fc9c148a64ce779f23,2021-05-21_17h56.54.483,Simcolourproject_2stim_asymm_v5,2020.2.10,Win32,60,60a5f9bf14d0aa2821c4bb84,,,3013,52.66668731,-17.33334458,1,0,0,response3disk,,5,8.000019312,-1.333344102,1,0,0,rectangle,8.000019312,-1.333344102,1,0,0,4,"[272,115,53,241,263,212,144,266,285,188,279,141,209,142,128,61,319,178,117,288]",8.000019312,-1.333344102,1,0,0,1,14,175,158,1,,,
,,,,,,,,,,,,,FF,,,,,,,,1.167995,,,,,,,,,,,,,,,,,,,,,,,,,604dedd2805fe682c5bc51c0,60a7d7fc9c148a64ce779f23,2021-05-21_17h56.54.483,Simcolourproject_2stim_asymm_v5,2020.2.10,Win32,60,60a5f9bf14d0aa2821c4bb84,,,3878,42.00002033,-69.33334613,1,0,0,response3disk,,4,3.333393196,-11.3333444,1,0,0,rectangle,3.333393196,-11.3333444,1,0,0,7,"[272,115,53,241,263,212,144,266,285,188,279,141,209,142,128,61,319,178,117,288]",3.333393196,-11.3333444,1,0,0,1,15,176,31,1,,,
,,,,,,,,,,,,,FF,,,,,,,,1.52133,,,,,,,,,,,,,,,,,,,,,,,,,604dedd2805fe682c5bc51c0,60a7d7fc9c148a64ce779f23,2021-05-21_17h56.54.483,Simcolourproject_2stim_asymm_v5,2020.2.10,Win32,60,60a5f9bf14d0aa2821c4bb84,,,197,30.00001997,-64.00001264,1,0,0,response3disk,,4,-4.666607042,-0.666677415,1,0,0,rectangle,-81.99998337,-44.00001204,1,0,0,2,"[272,115,53,241,263,212,144,266,285,188,279,141,209,142,128,61,319,178,117,288]",2.000019133,1.999989331,1,0,0,1,16,177,4,1,,response5disk_3,rectangle
,,,,,,,,,,,,,FF,,,,,,,,1.375665,,,,,,,,,,,,,,,,,,,,,,,,,604dedd2805fe682c5bc51c0,60a7d7fc9c148a64ce779f23,2021-05-21_17h56.54.483,Simcolourproject_2stim_asymm_v5,2020.2.10,Win32,60,60a5f9bf14d0aa2821c4bb84,,,2785,-27.33331507,-63.33334595,1,0,0,response5disk,,3,2.66668582,3.333322704,1,0,0,rectangle,2.66668582,3.333322704,1,0,0,1,"[272,115,53,241,263,212,144,266,285,188,279,141,209,142,128,61,319,178,117,288]",2.66668582,3.333322704,1,0,0,1,17,178,49,1,,,
,,,,,,,,,,,,,FF,,,,,,,,1.291895,,,,,,,,,,,,,,,,,,,,,,,,,604dedd2805fe682c5bc51c0,60a7d7fc9c148a64ce779f23,2021-05-21_17h56.54.483,Simcolourproject_2stim_asymm_v5,2020.2.10,Win32,60,60a5f9bf14d0aa2821c4bb84,,,533,-59.33331603,-36.66667849,1,0,0,response5disk,,3,4.000019193,8.666656196,1,0,0,rectangle,4.000019193,8.666656196,1,0,0,0,"[272,115,53,241,263,212,144,266,285,188,279,141,209,142,128,61,319,178,117,288]",4.000019193,8.666656196,1,0,0,1,18,179,24,1,,,
,,,,,,,,,,,,,FF,,,,,,,,2.186795,,,,,,,,,,,,,,,,,,,,,,,,,604dedd2805fe682c5bc51c0,60a7d7fc9c148a64ce779f23,2021-05-21_17h56.54.483,Simcolourproject_2stim_asymm_v5,2020.2.10,Win32,60,60a5f9bf14d0aa2821c4bb84,,,3569,33.33339409,-70.00001281,1,0,0,response3disk,,4,-19.99998152,10.66665626,1,0,0,rectangle,-19.99998152,10.66665626,1,0,0,2,"[272,115,53,241,263,212,144,266,285,188,279,141,209,142,128,61,319,178,117,288]",-19.99998152,10.66665626,1,0,0,1,19,180,124,1,,,
,,,,,,,,,,,,,FF,,,,,,,,1.167395,,,,,,,,,,,,,,,,,,,,,,,,,604dedd2805fe682c5bc51c0,60a7d7fc9c148a64ce779f23,2021-05-21_17h56.54.483,Simcolourproject_2stim_asymm_v5,2020.2.10,Win32,60,60a5f9bf14d0aa2821c4bb84,,,1434,55.33335406,-42.00001198,1,0,0,response3disk,,5,0.66668576,3.333322704,1,0,0,rectangle,0.66668576,3.333322704,1,0,0,0,"[272,115,53,241,263,212,144,266,285,188,279,141,209,142,128,61,319,178,117,288]",0.66668576,3.333322704,1,0,0,1,20,181,33,1,,,
,,,,,,,,,,,,,FF,,,,,,,,1.6881,,,,,,,,,,,,,,,,,,,,,,,,,604dedd2805fe682c5bc51c0,60a7d7fc9c148a64ce779f23,2021-05-21_17h56.54.483,Simcolourproject_2stim_asymm_v5,2020.2.10,Win32,60,60a5f9bf14d0aa2821c4bb84,,,24,70.00002116,-30.66667831,1,0,0,response3disk,,5,5.333393256,11.33332294,1,0,0,rectangle,5.333393256,11.33332294,1,0,0,7,"[272,115,53,241,263,212,144,266,285,188,279,141,209,142,128,61,319,178,117,288]",5.333393256,11.33332294,1,0,0,1,21,182,107,1,,,
,,,,,,,,,,,,,FF,,,,,,,,2.22917,,,,,,,,,,,,,,,,,,,,,,,,,604dedd2805fe682c5bc51c0,60a7d7fc9c148a64ce779f23,2021-05-21_17h56.54.483,Simcolourproject_2stim_asymm_v5,2020.2.10,Win32,60,60a5f9bf14d0aa2821c4bb84,,,2110,58.66668749,-27.33334488,1,0,0,response3disk,,5,20.00001967,9.999989569,1,0,0,rectangle,20.00001967,9.999989569,1,0,0,2,"[272,115,53,241,263,212,144,266,285,188,279,141,209,142,128,61,319,178,117,288]",20.00001967,9.999989569,1,0,0,1,22,183,142,1,,,
,,,,,,,,,,,,,FF,,,,,,,,2.25077,,,,,,,,,,,,,,,,,,,,,,,,,604dedd2805fe682c5bc51c0,60a7d7fc9c148a64ce779f23,2021-05-21_17h56.54.483,Simcolourproject_2stim_asymm_v5,2020.2.10,Win32,60,60a5f9bf14d0aa2821c4bb84,,,2935,56.00002074,34.66665697,1,0,0,response1disk,,6,-5.999981105,-8.666677654,1,0,0,rectangle,-5.999981105,-8.666677654,1,0,0,2,"[272,115,53,241,263,212,144,266,285,188,279,141,209,142,128,61,319,178,117,288]",-5.999981105,-8.666677654,1,0,0,1,23,184,51,1,,,
,,,,,,,,,,,,,FF,,,,,,,,1.68779,,,,,,,,,,,,,,,,,,,,,,,,,604dedd2805fe682c5bc51c0,60a7d7fc9c148a64ce779f23,2021-05-21_17h56.54.483,Simcolourproject_2stim_asymm_v5,2020.2.10,Win32,60,60a5f9bf14d0aa2821c4bb84,,,917,62.00002092,-32.66667837,1,0,0,response3disk,,5,16.00001955,-1.333344102,1,0,0,rectangle,16.00001955,-1.333344102,1,0,0,7,"[272,115,53,241,263,212,144,266,285,188,279,141,209,142,128,61,319,178,117,288]",16.00001955,-1.333344102,1,0,0,1,24,185,140,1,,,
,,,,,,,,,,,,,FF,,,,,,,,1.45864,,,,,,,,,,,,,,,,,,,,,,,,,604dedd2805fe682c5bc51c0,60a7d7fc9c148a64ce779f23,2021-05-21_17h56.54.483,Simcolourproject_2stim_asymm_v5,2020.2.10,Win32,60,60a5f9bf14d0aa2821c4bb84,,,1844,61.33335423,22.66665661,1,0,0,response1disk,,6,-5.999981105,-4.666677535,1,0,0,rectangle,-5.999981105,-4.666677535,1,0,0,0,"[272,115,53,241,263,212,144,266,285,188,279,141,209,142,128,61,319,178,117,288]",-5.999981105,-4.666677535,1,0,0,1,25,186,99,1,,,
,,,,,,,,,,,,,FF,,,,,,,,1.188215,,,,,,,,,,,,,,,,,,,,,,,,,604dedd2805fe682c5bc51c0,60a7d7fc9c148a64ce779f23,2021-05-21_17h56.54.483,Simcolourproject_2stim_asymm_v5,2020.2.10,Win32,60,60a5f9bf14d0aa2821c4bb84,,,668,66.66668773,-37.33334517,1,0,0,response3disk,,5,-9.999981225,10.66665626,1,0,0,rectangle,-28.66660776,-69.33334613,1,0,0,3,"[272,115,53,241,263,212,144,266,285,188,279,141,209,142,128,61,319,178,117,288]",4.000019193,1.333322644,1,0,0,1,26,187,12,1,,response5disk_3,rectangle
,,,,,,,,,,,,,FF,,,,,,,,1.395835,,,,,,,,,,,,,,,,,,,,,,,,,604dedd2805fe682c5bc51c0,60a7d7fc9c148a64ce779f23,2021-05-21_17h56.54.483,Simcolourproject_2stim_asymm_v5,2020.2.10,Win32,60,60a5f9bf14d0aa2821c4bb84,,,2955,-24.66660764,-58.00001246,1,0,0,response5disk,,3,12.00001943,3.99998939,1,0,0,rectangle,12.00001943,3.99998939,1,0,0,0,"[272,115,53,241,263,212,144,266,285,188,279,141,209,142,128,61,319,178,117,288]",12.00001943,3.99998939,1,0,0,1,27,188,157,1,,,
,,,,,,,,,,,,,FF,,,,,,,,1.64672,,,,,,,,,,,,,,,,,,,,,,,,,604dedd2805fe682c5bc51c0,60a7d7fc9c148a64ce779f23,2021-05-21_17h56.54.483,Simcolourproject_2stim_asymm_v5,2020.2.10,Win32,60,60a5f9bf14d0aa2821c4bb84,,,3162,23.33339379,-61.33334589,1,0,0,response3disk,,4,12.00001943,8.666656196,1,0,0,rectangle,12.00001943,8.666656196,1,0,0,6,"[272,115,53,241,263,212,144,266,285,188,279,141,209,142,128,61,319,178,117,288]",12.00001943,8.666656196,1,0,0,1,28,189,18,1,,,
,,,,,,,,,,,,,FF,,,,,,,,1.105155,,,,,,,,,,,,,,,,,,,,,,,,,604dedd2805fe682c5bc51c0,60a7d7fc9c148a64ce779f23,2021-05-21_17h56.54.483,Simcolourproject_2stim_asymm_v5,2020.2.10,Win32,60,60a5f9bf14d0aa2821c4bb84,,,4,-50.66660841,-73.33334625,1,0,0,response5disk,,3,-9.333314538,-2.000010788,1,0,0,rectangle,-9.333314538,-2.000010788,1,0,0,6,"[272,115,53,241,263,212,144,266,285,188,279,141,209,142,128,61,319,178,117,288]",-9.333314538,-2.000010788,1,0,0,1,29,190,78,1,,,
,,,,,,,,,,,,,FF,,,,,,,,1.875415,,,,,,,,,,,,,,,,,,,,,,,,,604dedd2805fe682c5bc51c0,60a7d7fc9c148a64ce779f23,2021-05-21_17h56.54.483,Simcolourproject_2stim_asymm_v5,2020.2.10,Win32,60,60a5f9bf14d0aa2821c4bb84,,,2555,21.33339373,-56.66667908,1,0,0,response3disk,,4,8.000019312,-8.666677654,1,0,0,rectangle,8.000019312,-8.666677654,1,0,0,5,"[272,115,53,241,263,212,144,266,285,188,279,141,209,142,128,61,319,178,117,288]",8.000019312,-8.666677654,1,0,0,1,30,191,41,1,,,
,,,,,,,,,,,,,FF,,,,,,,,1.47913,,,,,,,,,,,,,,,,,,,,,,,,,604dedd2805fe682c5bc51c0,60a7d7fc9c148a64ce779f23,2021-05-21_17h56.54.483,Simcolourproject_2stim_asymm_v5,2020.2.10,Win32,60,60a5f9bf14d0aa2821c4bb84,,,3513,30.00001997,-54.66667902,1,0,0,response3disk,,4,16.66668624,1.999989331,1,0,0,rectangle,16.66668624,1.999989331,1,0,0,6,"[272,115,53,241,263,212,144,266,285,188,279,141,209,142,128,61,319,178,117,288]",16.66668624,1.999989331,1,0,0,1,31,192,27,1,,,
,,,,,,,,,,,,,FF,,,,,,,,1.020095,,,,,,,,,,,,,,,,,,,,,,,,,604dedd2805fe682c5bc51c0,60a7d7fc9c148a64ce779f23,2021-05-21_17h56.54.483,Simcolourproject_2stim_asymm_v5,2020.2.10,Win32,60,60a5f9bf14d0aa2821c4bb84,,,2056,44.66668707,-24.66667813,1,0,0,response3disk,,5,6.000019252,4.666656077,1,0,0,rectangle,6.000019252,4.666656077,1,0,0,2,"[272,115,53,241,263,212,144,266,285,188,279,141,209,142,128,61,319,178,117,288]",6.000019252,4.666656077,1,0,0,1,32,193,82,1,,,
,,,,,,,,,,,,,FF,,,,,,,,1.210635,,,,,,,,,,,,,,,,,,,,,,,,,604dedd2805fe682c5bc51c0,60a7d7fc9c148a64ce779f23,2021-05-21_17h56.54.483,Simcolourproject_2stim_asymm_v5,2020.2.10,Win32,60,60a5f9bf14d0aa2821c4bb84,,,3152,80.00002146,-42.00001198,1,0,0,response3disk,,5,19.33339367,-4.000010848,1,0,0,rectangle,19.33339367,-4.000010848,1,0,0,0,"[272,115,53,241,263,212,144,266,285,188,279,141,209,142,128,61,319,178,117,288]",19.33339367,-4.000010848,1,0,0,1,33,194,42,1,,,
,,,,,,,,,,,,,FF,,,,,,,,1.52037,,,,,,,,,,,,,,,,,,,,,,,,,604dedd2805fe682c5bc51c0,60a7d7fc9c148a64ce779f23,2021-05-21_17h56.54.483,Simcolourproject_2stim_asymm_v5,2020.2.10,Win32,60,60a5f9bf14d0aa2821c4bb84,,,1858,44.00002038,-26.0000115,1,0,0,response3disk,,5,-5.333314419,9.999989569,1,0,0,rectangle,-5.333314419,9.999989569,1,0,0,0,"[272,115,53,241,263,212,144,266,285,188,279,141,209,142,128,61,319,178,117,288]",-5.333314419,9.999989569,1,0,0,1,34,195,44,1,,,
,,,,,,,,,,,,,FF,,,,,,,,1.520715,,,,,,,,,,,,,,,,,,,,,,,,,604dedd2805fe682c5bc51c0,60a7d7fc9c148a64ce779f23,2021-05-21_17h56.54.483,Simcolourproject_2stim_asymm_v5,2020.2.10,Win32,60,60a5f9bf14d0aa2821c4bb84,,,3184,84.00002158,43.33330355,1,0,0,response1disk,,6,1.333393137,13.333323,1,0,0,rectangle,1.333393137,13.333323,1,0,0,3,"[272,115,53,241,263,212,144,266,285,188,279,141,209,142,128,61,319,178,117,288]",1.333393137,13.333323,1,0,0,1,35,196,144,1,,,
,,,,,,,,,,,,,FF,,,,,,,,1.521325,,,,,,,,,,,,,,,,,,,,,,,,,604dedd2805fe682c5bc51c0,60a7d7fc9c148a64ce779f23,2021-05-21_17h56.54.483,Simcolourproject_2stim_asymm_v5,2020.2.10,Win32,60,60a5f9bf14d0aa2821c4bb84,,,832,62.00002092,-43.33334535,1,0,0,response3disk,,5,4.666685879,1.333322644,1,0,0,rectangle,4.666685879,1.333322644,1,0,0,6,"[272,115,53,241,263,212,144,266,285,188,279,141,209,142,128,61,319,178,117,288]",4.666685879,1.333322644,1,0,0,1,36,197,92,1,,,
,,,,,,,,,,,,,FF,,,,,,,,1.334205,,,,,,,,,,,,,,,,,,,,,,,,,604dedd2805fe682c5bc51c0,60a7d7fc9c148a64ce779f23,2021-05-21_17h56.54.483,Simcolourproject_2stim_asymm_v5,2020.2.10,Win32,60,60a5f9bf14d0aa2821c4bb84,,,942,50.00002056,-30.00001162,1,0,0,response3disk,,5,-5.999981105,0.666655958,1,0,0,rectangle,-5.999981105,0.666655958,1,0,0,3,"[272,115,53,241,263,212,144,266,285,188,279,141,209,142,128,61,319,178,117,288]",-5.999981105,0.666655958,1,0,0,1,37,198,93,1,,,
,,,,,,,,,,,,,FF,,,,,,,,2.7705,,,,,,,,,,,,,,,,,,,,,,,,,604dedd2805fe682c5bc51c0,60a7d7fc9c148a64ce779f23,2021-05-21_17h56.54.483,Simcolourproject_2stim_asymm_v5,2020.2.10,Win32,60,60a5f9bf14d0aa2821c4bb84,,,72,-41.99998218,-18.00001127,1,0,0,response5disk,,5,-7.333314478,1.333322644,1,0,0,rectangle,-7.333314478,1.333322644,1,0,0,7,"[272,115,53,241,263,212,144,266,285,188,279,141,209,142,128,61,319,178,117,288]",-7.333314478,1.333322644,1,0,0,1,38,199,133,1,,,
,,,,,,,,,,,,,FF,,,,,,,,1.56241,,,,,,,,,,,,,,,,,,,,,,,,,604dedd2805fe682c5bc51c0,60a7d7fc9c148a64ce779f23,2021-05-21_17h56.54.483,Simcolourproject_2stim_asymm_v5,2020.2.10,Win32,60,60a5f9bf14d0aa2821c4bb84,,,2766,70.00002116,43.33330355,1,0,0,response1disk,,6,-1.3333143,1.333322644,1,0,0,rectangle,-1.3333143,1.333322644,1,0,0,7,"[272,115,53,241,263,212,144,266,285,188,279,141,209,142,128,61,319,178,117,288]",-1.3333143,1.333322644,1,0,0,1,39,200,95,1,,,
,,,,,,,,,,,,,FF,,,,,,,,1.291945,,,,,,,,,,,,,,,,,,,,,,,,,604dedd2805fe682c5bc51c0,60a7d7fc9c148a64ce779f23,2021-05-21_17h56.54.483,Simcolourproject_2stim_asymm_v5,2020.2.10,Win32,60,60a5f9bf14d0aa2821c4bb84,,,2165,-69.33331633,-34.66667843,1,0,0,response5disk,,6,-12.66660728,-6.666677594,1,0,0,rectangle,-12.66660728,-6.666677594,1,0,0,5,"[272,115,53,241,263,212,144,266,285,188,279,141,209,142,128,61,319,178,117,288]",-12.66660728,-6.666677594,1,0,0,1,40,201,145,1,,,
,,,,,,,,,,,,,FF,,,,,,,,2.104185,,,,,,,,,,,,,,,,,,,,,,,,,604dedd2805fe682c5bc51c0,60a7d7fc9c148a64ce779f23,2021-05-21_17h56.54.483,Simcolourproject_2stim_asymm_v5,2020.2.10,Win32,60,60a5f9bf14d0aa2821c4bb84,,,3,-30.66660782,-52.00001228,1,0,0,response5disk,,3,5.333393256,-1.333344102,1,0,0,rectangle,5.333393256,-1.333344102,1,0,0,2,"[272,115,53,241,263,212,144,266,285,188,279,141,209,142,128,61,319,178,117,288]",5.333393256,-1.333344102,1,0,0,1,41,202,116,1,,,
,,,,,,,,,,,,,FF,,,,,,,,1.125505,,,,,,,,,,,,,,,,,,,,,,,,,604dedd2805fe682c5bc51c0,60a7d7fc9c148a64ce779f23,2021-05-21_17h56.54.483,Simcolourproject_2stim_asymm_v5,2020.2.10,Win32,60,60a5f9bf14d0aa2821c4bb84,,,2906,62.66668761,-28.00001156,1,0,0,response3disk,,5,3.333393196,3.99998939,1,0,0,rectangle,3.333393196,3.99998939,1,0,0,0,"[272,115,53,241,263,212,144,266,285,188,279,141,209,142,128,61,319,178,117,288]",3.333393196,3.99998939,1,0,0,1,42,203,16,1,,,
,,,,,,,,,,,,,FF,,,,,,,,1.31244,,,,,,,,,,,,,,,,,,,,,,,,,604dedd2805fe682c5bc51c0,60a7d7fc9c148a64ce779f23,2021-05-21_17h56.54.483,Simcolourproject_2stim_asymm_v5,2020.2.10,Win32,60,60a5f9bf14d0aa2821c4bb84,,,1975,56.00002074,-14.00001115,1,0,0,response3disk,,5,16.00001955,-4.000010848,1,0,0,rectangle,16.00001955,-4.000010848,1,0,0,4,"[272,115,53,241,263,212,144,266,285,188,279,141,209,142,128,61,319,178,117,288]",16.00001955,-4.000010848,1,0,0,1,43,204,54,1,,,
,,,,,,,,,,,,,FF,,,,,,,,1.6667,,,,,,,,,,,,,,,,,,,,,,,,,604dedd2805fe682c5bc51c0,60a7d7fc9c148a64ce779f23,2021-05-21_17h56.54.483,Simcolourproject_2stim_asymm_v5,2020.2.10,Win32,60,60a5f9bf14d0aa2821c4bb84,,,1517,58.66668749,70.66665804,1,0,0,response1disk,,7,8.666685998,-8.000010967,1,0,0,rectangle,8.666685998,-8.000010967,1,0,0,5,"[272,115,53,241,263,212,144,266,285,188,279,141,209,142,128,61,319,178,117,288]",8.666685998,-8.000010967,1,0,0,1,44,205,110,1,,,
