key_resp.keys,key_resp.rt,key_resp_14.keys,key_resp_14.rt,key_resp_15.keys,key_resp_15.rt,key_resp_17.keys,key_resp_17.rt,key_resp_9.keys,key_resp_9.rt,key_resp_10.keys,key_resp_10.rt,practice_comparison,Ecc,mouse_5.x,mouse_5.y,mouse_5.leftButton,mouse_5.midButton,mouse_5.rightButton,mouse_5.clicked_name,pracsimilarity,response_time,mouse_10.x,mouse_10.y,mouse_10.leftButton,mouse_10.midButton,mouse_10.rightButton,mouse_10.clicked_name,mouse_7.x,mouse_7.y,mouse_7.leftButton,mouse_7.midButton,mouse_7.rightButton,catchnumberprac,mouse_6.x,mouse_6.y,mouse_6.leftButton,mouse_6.midButton,mouse_6.rightButton,duringprac.thisRepN,duringprac.thisTrialN,duringprac.thisN,duringprac.thisIndex,duringprac.ran,participant,session,date,expName,psychopyVersion,OS,frameRate,study_id,mouse_7.clicked_name,mouse_6.clicked_name,key_resp_22.keys,key_resp_22.rt,realcomparison,mouse.x,mouse.y,mouse.leftButton,mouse.midButton,mouse.rightButton,mouse.clicked_name,Colour2,similarity,mouse_2.x,mouse_2.y,mouse_2.leftButton,mouse_2.midButton,mouse_2.rightButton,mouse_2.clicked_name,mouse_3.x,mouse_3.y,mouse_3.leftButton,mouse_3.midButton,mouse_3.rightButton,catchnumber,catchtrialorder,mouse_11.x,mouse_11.y,mouse_11.leftButton,mouse_11.midButton,mouse_11.rightButton,trials_2.thisRepN,trials_2.thisTrialN,trials_2.thisN,trials_2.thisIndex,trials_2.ran,Colour1,mouse_3.clicked_name,mouse_11.clicked_name
space,2.08046,space,3.663685,space,50.291475,space,12.73713,space,1.51704,space,6.169835,102,PF,102.5,-74.5,1,0,0,response3disk_5,5,4.808245,-9.5,-3.5,1,0,0,rectangle_8,-9.5,-3.5,1,0,0,5,-9.5,-3.5,1,0,0,0,0,0,4,1,606248077eb733dc380dc27c,60a7d7fc055cfa8670dc50de,2021-05-21_10h57.00.740,Simcolourproject_2stim_asymm_v5,2020.2.10,Win32,60,60a5f9bf14d0aa2821c4bb84,,,,,,,,,,,,,,,,,,,,,,,,,,,,,,,,,,,,,,,
,,,,,,,,,,,,123,PF,50.5,122.5,1,0,0,response1disk_5,7,8.01451,0.5,-8.5,1,0,0,rectangle_8,0.5,-8.5,1,0,0,5,0.5,-8.5,1,0,0,0,1,1,1,1,606248077eb733dc380dc27c,60a7d7fc055cfa8670dc50de,2021-05-21_10h57.00.740,Simcolourproject_2stim_asymm_v5,2020.2.10,Win32,60,60a5f9bf14d0aa2821c4bb84,,,,,,,,,,,,,,,,,,,,,,,,,,,,,,,,,,,,,,,
,,,,,,,,,,,,15,FF,47.5,117.5,1,0,0,response1disk_5,7,4.22666,-3.5,-2.5,1,0,0,rectangle_8,131.5,-51.5,1,0,0,5,5.5,-1.5,1,0,0,0,2,2,0,1,606248077eb733dc380dc27c,60a7d7fc055cfa8670dc50de,2021-05-21_10h57.00.740,Simcolourproject_2stim_asymm_v5,2020.2.10,Win32,60,60a5f9bf14d0aa2821c4bb84,response3disk_7,rectangle_4,,,,,,,,,,,,,,,,,,,,,,,,,,,,,,,,,,,,,
,,,,,,,,,,,,78,PF,114.5,42.5,1,0,0,response1disk_5,6,4.07553,-4.5,-1.5,1,0,0,rectangle_8,-4.5,-1.5,1,0,0,5,-4.5,-1.5,1,0,0,0,3,3,2,1,606248077eb733dc380dc27c,60a7d7fc055cfa8670dc50de,2021-05-21_10h57.00.740,Simcolourproject_2stim_asymm_v5,2020.2.10,Win32,60,60a5f9bf14d0aa2821c4bb84,,,,,,,,,,,,,,,,,,,,,,,,,,,,,,,,,,,,,,,
,,,,,,,,,,,,136,FF,-71.5,-120.5,1,0,0,response5disk_5,3,3.407465,-20.5,-2.5,1,0,0,rectangle_8,-20.5,-2.5,1,0,0,5,-20.5,-2.5,1,0,0,0,4,4,5,1,606248077eb733dc380dc27c,60a7d7fc055cfa8670dc50de,2021-05-21_10h57.00.740,Simcolourproject_2stim_asymm_v5,2020.2.10,Win32,60,60a5f9bf14d0aa2821c4bb84,,,,,,,,,,,,,,,,,,,,,,,,,,,,,,,,,,,,,,,
,,,,,,,,,,,,49,PF,111.5,-38.5,1,0,0,response3disk_5,5,4.122275,-12.5,-4.5,1,0,0,rectangle_8,120.5,-64.5,1,0,0,5,-1.5,-0.5,1,0,0,0,5,5,6,1,606248077eb733dc380dc27c,60a7d7fc055cfa8670dc50de,2021-05-21_10h57.00.740,Simcolourproject_2stim_asymm_v5,2020.2.10,Win32,60,60a5f9bf14d0aa2821c4bb84,response3disk_7,rectangle_4,,,,,,,,,,,,,,,,,,,,,,,,,,,,,,,,,,,,,
,,,,,,,,,,,,143,FF,47.5,139.5,1,0,0,response1disk_5,7,5.277145,0.5,0.5,1,0,0,rectangle_8,0.5,0.5,1,0,0,5,0.5,0.5,1,0,0,0,6,6,3,1,606248077eb733dc380dc27c,60a7d7fc055cfa8670dc50de,2021-05-21_10h57.00.740,Simcolourproject_2stim_asymm_v5,2020.2.10,Win32,60,60a5f9bf14d0aa2821c4bb84,,,,,,,,,,,,,,,,,,,,,,,,,,,,,,,,,,,,,,,
,,,,,,,,,,,,,FF,,,,,,,,3.50796,,,,,,,,,,,,,,,,,,,,,,,606248077eb733dc380dc27c,60a7d7fc055cfa8670dc50de,2021-05-21_10h57.00.740,Simcolourproject_2stim_asymm_v5,2020.2.10,Win32,60,60a5f9bf14d0aa2821c4bb84,,,space,7.6646,3602,73.5,-127.5,1,0,0,response3disk,,4,-5.5,2.5,1,0,0,rectangle,-5.5,2.5,1,0,0,7,"[65,160,166,256,268,32,100,22,3,254,260,26,187,72,292,105,29,149,296,288]",-5.5,2.5,1,0,0,0,0,0,82,1,,,
,,,,,,,,,,,,,FF,,,,,,,,4.808145,,,,,,,,,,,,,,,,,,,,,,,606248077eb733dc380dc27c,60a7d7fc055cfa8670dc50de,2021-05-21_10h57.00.740,Simcolourproject_2stim_asymm_v5,2020.2.10,Win32,60,60a5f9bf14d0aa2821c4bb84,,,,,480,61.5,113.5,1,0,0,response1disk,,7,-13.5,-2.5,1,0,0,rectangle,-13.5,-2.5,1,0,0,4,"[65,160,166,256,268,32,100,22,3,254,260,26,187,72,292,105,29,149,296,288]",-13.5,-2.5,1,0,0,0,1,1,147,1,,,
,,,,,,,,,,,,,FF,,,,,,,,2.1006,,,,,,,,,,,,,,,,,,,,,,,606248077eb733dc380dc27c,60a7d7fc055cfa8670dc50de,2021-05-21_10h57.00.740,Simcolourproject_2stim_asymm_v5,2020.2.10,Win32,60,60a5f9bf14d0aa2821c4bb84,,,,,3314,86.5,50.5,1,0,0,response1disk,,6,-1.5,-0.5,1,0,0,rectangle,58.5,-120.5,1,0,0,4,"[65,160,166,256,268,32,100,22,3,254,260,26,187,72,292,105,29,149,296,288]",-0.5,2.5,1,0,0,0,2,2,131,1,,response3disk_3,rectangle
,,,,,,,,,,,,,FF,,,,,,,,1.73651,,,,,,,,,,,,,,,,,,,,,,,606248077eb733dc380dc27c,60a7d7fc055cfa8670dc50de,2021-05-21_10h57.00.740,Simcolourproject_2stim_asymm_v5,2020.2.10,Win32,60,60a5f9bf14d0aa2821c4bb84,,,,,3451,45.5,139.5,1,0,0,response1disk,,7,-8.5,0.5,1,0,0,rectangle,-8.5,0.5,1,0,0,5,"[65,160,166,256,268,32,100,22,3,254,260,26,187,72,292,105,29,149,296,288]",-8.5,0.5,1,0,0,0,3,3,74,1,,,
,,,,,,,,,,,,,FF,,,,,,,,2.4541,,,,,,,,,,,,,,,,,,,,,,,606248077eb733dc380dc27c,60a7d7fc055cfa8670dc50de,2021-05-21_10h57.00.740,Simcolourproject_2stim_asymm_v5,2020.2.10,Win32,60,60a5f9bf14d0aa2821c4bb84,,,,,3837,54.5,-143.5,1,0,0,response3disk,,4,-12.5,-2.5,1,0,0,rectangle,-12.5,-2.5,1,0,0,3,"[65,160,166,256,268,32,100,22,3,254,260,26,187,72,292,105,29,149,296,288]",-12.5,-2.5,1,0,0,0,4,4,98,1,,,
,,,,,,,,,,,,,FF,,,,,,,,3.422695,,,,,,,,,,,,,,,,,,,,,,,606248077eb733dc380dc27c,60a7d7fc055cfa8670dc50de,2021-05-21_10h57.00.740,Simcolourproject_2stim_asymm_v5,2020.2.10,Win32,60,60a5f9bf14d0aa2821c4bb84,,,,,219,89.5,58.5,1,0,0,response1disk,,6,-8.5,0.5,1,0,0,rectangle,-8.5,0.5,1,0,0,5,"[65,160,166,256,268,32,100,22,3,254,260,26,187,72,292,105,29,149,296,288]",-8.5,0.5,1,0,0,0,5,5,99,1,,,
,,,,,,,,,,,,,FF,,,,,,,,1.320365,,,,,,,,,,,,,,,,,,,,,,,606248077eb733dc380dc27c,60a7d7fc055cfa8670dc50de,2021-05-21_10h57.00.740,Simcolourproject_2stim_asymm_v5,2020.2.10,Win32,60,60a5f9bf14d0aa2821c4bb84,,,,,1176,35.5,100.5,1,0,0,response1disk,,7,-5.5,-2.5,1,0,0,rectangle,-5.5,-2.5,1,0,0,1,"[65,160,166,256,268,32,100,22,3,254,260,26,187,72,292,105,29,149,296,288]",-5.5,-2.5,1,0,0,0,6,6,75,1,,,
,,,,,,,,,,,,,FF,,,,,,,,10.498465,,,,,,,,,,,,,,,,,,,,,,,606248077eb733dc380dc27c,60a7d7fc055cfa8670dc50de,2021-05-21_10h57.00.740,Simcolourproject_2stim_asymm_v5,2020.2.10,Win32,60,60a5f9bf14d0aa2821c4bb84,,,,,1744,-91.5,-62.5,1,0,0,response5disk,,7,3.5,-13.5,1,0,0,rectangle,3.5,-13.5,1,0,0,0,"[65,160,166,256,268,32,100,22,3,254,260,26,187,72,292,105,29,149,296,288]",3.5,-13.5,1,0,0,0,7,7,18,1,,,
,,,,,,,,,,,,,FF,,,,,,,,1.252495,,,,,,,,,,,,,,,,,,,,,,,606248077eb733dc380dc27c,60a7d7fc055cfa8670dc50de,2021-05-21_10h57.00.740,Simcolourproject_2stim_asymm_v5,2020.2.10,Win32,60,60a5f9bf14d0aa2821c4bb84,,,,,1931,105.5,32.5,1,0,0,response1disk,,6,-5.5,-4.5,1,0,0,rectangle,-5.5,-4.5,1,0,0,0,"[65,160,166,256,268,32,100,22,3,254,260,26,187,72,292,105,29,149,296,288]",-5.5,-4.5,1,0,0,0,8,8,52,1,,,
,,,,,,,,,,,,,FF,,,,,,,,1.33619,,,,,,,,,,,,,,,,,,,,,,,606248077eb733dc380dc27c,60a7d7fc055cfa8670dc50de,2021-05-21_10h57.00.740,Simcolourproject_2stim_asymm_v5,2020.2.10,Win32,60,60a5f9bf14d0aa2821c4bb84,,,,,4115,67.5,128.5,1,0,0,response1disk,,7,-6.5,-2.5,1,0,0,rectangle,-6.5,-2.5,1,0,0,1,"[65,160,166,256,268,32,100,22,3,254,260,26,187,72,292,105,29,149,296,288]",-6.5,-2.5,1,0,0,0,9,9,27,1,,,
,,,,,,,,,,,,,FF,,,,,,,,20.36603,,,,,,,,,,,,,,,,,,,,,,,606248077eb733dc380dc27c,60a7d7fc055cfa8670dc50de,2021-05-21_10h57.00.740,Simcolourproject_2stim_asymm_v5,2020.2.10,Win32,60,60a5f9bf14d0aa2821c4bb84,,,,,2099,-104.5,75.5,1,0,0,response7disk,,1,1.5,6.5,1,0,0,rectangle,1.5,6.5,1,0,0,2,"[65,160,166,256,268,32,100,22,3,254,260,26,187,72,292,105,29,149,296,288]",1.5,6.5,1,0,0,0,10,10,151,1,,,
,,,,,,,,,,,,,FF,,,,,,,,1.45325,,,,,,,,,,,,,,,,,,,,,,,606248077eb733dc380dc27c,60a7d7fc055cfa8670dc50de,2021-05-21_10h57.00.740,Simcolourproject_2stim_asymm_v5,2020.2.10,Win32,60,60a5f9bf14d0aa2821c4bb84,,,,,2801,95.5,-52.5,1,0,0,response3disk,,5,-2.5,-3.5,1,0,0,rectangle,-2.5,-3.5,1,0,0,6,"[65,160,166,256,268,32,100,22,3,254,260,26,187,72,292,105,29,149,296,288]",-2.5,-3.5,1,0,0,0,11,11,14,1,,,
,,,,,,,,,,,,,FF,,,,,,,,1.202885,,,,,,,,,,,,,,,,,,,,,,,606248077eb733dc380dc27c,60a7d7fc055cfa8670dc50de,2021-05-21_10h57.00.740,Simcolourproject_2stim_asymm_v5,2020.2.10,Win32,60,60a5f9bf14d0aa2821c4bb84,,,,,1681,-53.5,-110.5,1,0,0,response5disk,,3,-2.5,-0.5,1,0,0,rectangle,-2.5,-0.5,1,0,0,7,"[65,160,166,256,268,32,100,22,3,254,260,26,187,72,292,105,29,149,296,288]",-2.5,-0.5,1,0,0,0,12,12,95,1,,,
,,,,,,,,,,,,,FF,,,,,,,,1.43551,,,,,,,,,,,,,,,,,,,,,,,606248077eb733dc380dc27c,60a7d7fc055cfa8670dc50de,2021-05-21_10h57.00.740,Simcolourproject_2stim_asymm_v5,2020.2.10,Win32,60,60a5f9bf14d0aa2821c4bb84,,,,,3359,75.5,124.5,1,0,0,response1disk,,7,-5.5,-7.5,1,0,0,rectangle,-5.5,-7.5,1,0,0,7,"[65,160,166,256,268,32,100,22,3,254,260,26,187,72,292,105,29,149,296,288]",-5.5,-7.5,1,0,0,0,13,13,121,1,,,
,,,,,,,,,,,,,FF,,,,,,,,1.28663,,,,,,,,,,,,,,,,,,,,,,,606248077eb733dc380dc27c,60a7d7fc055cfa8670dc50de,2021-05-21_10h57.00.740,Simcolourproject_2stim_asymm_v5,2020.2.10,Win32,60,60a5f9bf14d0aa2821c4bb84,,,,,1986,63.5,-116.5,1,0,0,response3disk,,4,5.5,-3.5,1,0,0,rectangle,5.5,-3.5,1,0,0,6,"[65,160,166,256,268,32,100,22,3,254,260,26,187,72,292,105,29,149,296,288]",5.5,-3.5,1,0,0,0,14,14,144,1,,,
,,,,,,,,,,,,,FF,,,,,,,,1.101455,,,,,,,,,,,,,,,,,,,,,,,606248077eb733dc380dc27c,60a7d7fc055cfa8670dc50de,2021-05-21_10h57.00.740,Simcolourproject_2stim_asymm_v5,2020.2.10,Win32,60,60a5f9bf14d0aa2821c4bb84,,,,,3608,80.5,123.5,1,0,0,response1disk,,7,-4.5,4.5,1,0,0,rectangle,-4.5,4.5,1,0,0,4,"[65,160,166,256,268,32,100,22,3,254,260,26,187,72,292,105,29,149,296,288]",-4.5,4.5,1,0,0,0,15,15,32,1,,,
,,,,,,,,,,,,,FF,,,,,,,,1.202805,,,,,,,,,,,,,,,,,,,,,,,606248077eb733dc380dc27c,60a7d7fc055cfa8670dc50de,2021-05-21_10h57.00.740,Simcolourproject_2stim_asymm_v5,2020.2.10,Win32,60,60a5f9bf14d0aa2821c4bb84,,,,,1039,-60.5,-124.5,1,0,0,response5disk,,3,-1.5,-3.5,1,0,0,rectangle,-1.5,-3.5,1,0,0,1,"[65,160,166,256,268,32,100,22,3,254,260,26,187,72,292,105,29,149,296,288]",-1.5,-3.5,1,0,0,0,16,16,126,1,,,
,,,,,,,,,,,,,FF,,,,,,,,1.018785,,,,,,,,,,,,,,,,,,,,,,,606248077eb733dc380dc27c,60a7d7fc055cfa8670dc50de,2021-05-21_10h57.00.740,Simcolourproject_2stim_asymm_v5,2020.2.10,Win32,60,60a5f9bf14d0aa2821c4bb84,,,,,923,106.5,65.5,1,0,0,response1disk,,6,-3.5,-7.5,1,0,0,rectangle,-3.5,-7.5,1,0,0,4,"[65,160,166,256,268,32,100,22,3,254,260,26,187,72,292,105,29,149,296,288]",-3.5,-7.5,1,0,0,0,17,17,1,1,,,
,,,,,,,,,,,,,FF,,,,,,,,1.386575,,,,,,,,,,,,,,,,,,,,,,,606248077eb733dc380dc27c,60a7d7fc055cfa8670dc50de,2021-05-21_10h57.00.740,Simcolourproject_2stim_asymm_v5,2020.2.10,Win32,60,60a5f9bf14d0aa2821c4bb84,,,,,3811,-108.5,31.5,1,0,0,response7disk,,1,-3.5,-3.5,1,0,0,rectangle,-3.5,-3.5,1,0,0,6,"[65,160,166,256,268,32,100,22,3,254,260,26,187,72,292,105,29,149,296,288]",-3.5,-3.5,1,0,0,0,18,18,19,1,,,
,,,,,,,,,,,,,FF,,,,,,,,0.784655,,,,,,,,,,,,,,,,,,,,,,,606248077eb733dc380dc27c,60a7d7fc055cfa8670dc50de,2021-05-21_10h57.00.740,Simcolourproject_2stim_asymm_v5,2020.2.10,Win32,60,60a5f9bf14d0aa2821c4bb84,,,,,4140,-107.5,45.5,1,0,0,response7disk,,1,-4.5,0.5,1,0,0,rectangle,-4.5,0.5,1,0,0,5,"[65,160,166,256,268,32,100,22,3,254,260,26,187,72,292,105,29,149,296,288]",-4.5,0.5,1,0,0,0,19,19,7,1,,,
,,,,,,,,,,,,,FF,,,,,,,,1.669835,,,,,,,,,,,,,,,,,,,,,,,606248077eb733dc380dc27c,60a7d7fc055cfa8670dc50de,2021-05-21_10h57.00.740,Simcolourproject_2stim_asymm_v5,2020.2.10,Win32,60,60a5f9bf14d0aa2821c4bb84,,,,,3959,42.5,118.5,1,0,0,response1disk,,7,-10.5,3.5,1,0,0,rectangle,-10.5,3.5,1,0,0,6,"[65,160,166,256,268,32,100,22,3,254,260,26,187,72,292,105,29,149,296,288]",-10.5,3.5,1,0,0,0,20,20,65,1,,,
,,,,,,,,,,,,,FF,,,,,,,,1.28375,,,,,,,,,,,,,,,,,,,,,,,606248077eb733dc380dc27c,60a7d7fc055cfa8670dc50de,2021-05-21_10h57.00.740,Simcolourproject_2stim_asymm_v5,2020.2.10,Win32,60,60a5f9bf14d0aa2821c4bb84,,,,,990,43.5,-123.5,1,0,0,response3disk,,4,-11.5,-7.5,1,0,0,rectangle,129.5,33.5,1,0,0,6,"[65,160,166,256,268,32,100,22,3,254,260,26,187,72,292,105,29,149,296,288]",-10.5,-4.5,1,0,0,0,21,21,24,1,,response1disk_3,rectangle
,,,,,,,,,,,,,FF,,,,,,,,1.00173,,,,,,,,,,,,,,,,,,,,,,,606248077eb733dc380dc27c,60a7d7fc055cfa8670dc50de,2021-05-21_10h57.00.740,Simcolourproject_2stim_asymm_v5,2020.2.10,Win32,60,60a5f9bf14d0aa2821c4bb84,,,,,2211,50.5,159.5,1,0,0,response1disk,,7,7.5,8.5,1,0,0,rectangle,7.5,8.5,1,0,0,1,"[65,160,166,256,268,32,100,22,3,254,260,26,187,72,292,105,29,149,296,288]",7.5,8.5,1,0,0,0,22,22,42,1,,,
,,,,,,,,,,,,,FF,,,,,,,,0.768595,,,,,,,,,,,,,,,,,,,,,,,606248077eb733dc380dc27c,60a7d7fc055cfa8670dc50de,2021-05-21_10h57.00.740,Simcolourproject_2stim_asymm_v5,2020.2.10,Win32,60,60a5f9bf14d0aa2821c4bb84,,,,,1870,50.5,107.5,1,0,0,response1disk,,7,-12.5,-0.5,1,0,0,rectangle,-12.5,-0.5,1,0,0,6,"[65,160,166,256,268,32,100,22,3,254,260,26,187,72,292,105,29,149,296,288]",-12.5,-0.5,1,0,0,0,23,23,117,1,,,
,,,,,,,,,,,,,FF,,,,,,,,5.809505,,,,,,,,,,,,,,,,,,,,,,,606248077eb733dc380dc27c,60a7d7fc055cfa8670dc50de,2021-05-21_10h57.00.740,Simcolourproject_2stim_asymm_v5,2020.2.10,Win32,60,60a5f9bf14d0aa2821c4bb84,,,,,2401,44.5,97.5,1,0,0,response1disk,,7,1.5,-1.5,1,0,0,rectangle,1.5,-1.5,1,0,0,6,"[65,160,166,256,268,32,100,22,3,254,260,26,187,72,292,105,29,149,296,288]",1.5,-1.5,1,0,0,0,24,24,93,1,,,
,,,,,,,,,,,,,FF,,,,,,,,2.170855,,,,,,,,,,,,,,,,,,,,,,,606248077eb733dc380dc27c,60a7d7fc055cfa8670dc50de,2021-05-21_10h57.00.740,Simcolourproject_2stim_asymm_v5,2020.2.10,Win32,60,60a5f9bf14d0aa2821c4bb84,,,,,3874,58.5,123.5,1,0,0,response1disk,,7,-4.5,-3.5,1,0,0,rectangle,53.5,-126.5,1,0,0,4,"[65,160,166,256,268,32,100,22,3,254,260,26,187,72,292,105,29,149,296,288]",-4.5,0.5,1,0,0,0,25,25,120,1,,response3disk_3,rectangle
,,,,,,,,,,,,,FF,,,,,,,,0.90148,,,,,,,,,,,,,,,,,,,,,,,606248077eb733dc380dc27c,60a7d7fc055cfa8670dc50de,2021-05-21_10h57.00.740,Simcolourproject_2stim_asymm_v5,2020.2.10,Win32,60,60a5f9bf14d0aa2821c4bb84,,,,,2064,61.5,94.5,1,0,0,response1disk,,7,-0.5,-5.5,1,0,0,rectangle,-0.5,-5.5,1,0,0,2,"[65,160,166,256,268,32,100,22,3,254,260,26,187,72,292,105,29,149,296,288]",-0.5,-5.5,1,0,0,0,26,26,134,1,,,
,,,,,,,,,,,,,FF,,,,,,,,1.035965,,,,,,,,,,,,,,,,,,,,,,,606248077eb733dc380dc27c,60a7d7fc055cfa8670dc50de,2021-05-21_10h57.00.740,Simcolourproject_2stim_asymm_v5,2020.2.10,Win32,60,60a5f9bf14d0aa2821c4bb84,,,,,2202,80.5,139.5,1,0,0,response1disk,,7,2.5,2.5,1,0,0,rectangle,2.5,2.5,1,0,0,0,"[65,160,166,256,268,32,100,22,3,254,260,26,187,72,292,105,29,149,296,288]",2.5,2.5,1,0,0,0,27,27,142,1,,,
,,,,,,,,,,,,,FF,,,,,,,,2.07395,,,,,,,,,,,,,,,,,,,,,,,606248077eb733dc380dc27c,60a7d7fc055cfa8670dc50de,2021-05-21_10h57.00.740,Simcolourproject_2stim_asymm_v5,2020.2.10,Win32,60,60a5f9bf14d0aa2821c4bb84,,,,,3344,86.5,-76.5,1,0,0,response3disk,,5,-9.5,-3.5,1,0,0,rectangle,-75.5,111.5,1,0,0,0,"[65,160,166,256,268,32,100,22,3,254,260,26,187,72,292,105,29,149,296,288]",-9.5,-7.5,1,0,0,0,28,28,152,1,,response7disk_3,rectangle
,,,,,,,,,,,,,FF,,,,,,,,1.21961,,,,,,,,,,,,,,,,,,,,,,,606248077eb733dc380dc27c,60a7d7fc055cfa8670dc50de,2021-05-21_10h57.00.740,Simcolourproject_2stim_asymm_v5,2020.2.10,Win32,60,60a5f9bf14d0aa2821c4bb84,,,,,2166,-60.5,-128.5,1,0,0,response5disk,,3,-3.5,-1.5,1,0,0,rectangle,-3.5,-1.5,1,0,0,6,"[65,160,166,256,268,32,100,22,3,254,260,26,187,72,292,105,29,149,296,288]",-3.5,-1.5,1,0,0,0,29,29,129,1,,,
,,,,,,,,,,,,,FF,,,,,,,,1.967505,,,,,,,,,,,,,,,,,,,,,,,606248077eb733dc380dc27c,60a7d7fc055cfa8670dc50de,2021-05-21_10h57.00.740,Simcolourproject_2stim_asymm_v5,2020.2.10,Win32,60,60a5f9bf14d0aa2821c4bb84,,,,,555,42.5,-134.5,1,0,0,response3disk,,4,-4.5,1.5,1,0,0,rectangle,-4.5,1.5,1,0,0,6,"[65,160,166,256,268,32,100,22,3,254,260,26,187,72,292,105,29,149,296,288]",-4.5,1.5,1,0,0,0,30,30,26,1,,,
,,,,,,,,,,,,,FF,,,,,,,,1.75457,,,,,,,,,,,,,,,,,,,,,,,606248077eb733dc380dc27c,60a7d7fc055cfa8670dc50de,2021-05-21_10h57.00.740,Simcolourproject_2stim_asymm_v5,2020.2.10,Win32,60,60a5f9bf14d0aa2821c4bb84,,,,,372,55.5,-128.5,1,0,0,response3disk,,4,5.5,-4.5,1,0,0,rectangle,-54.5,119.5,1,0,0,0,"[65,160,166,256,268,32,100,22,3,254,260,26,187,72,292,105,29,149,296,288]",-4.5,-9.5,1,0,0,0,31,31,34,1,,response7disk_3,rectangle
,,,,,,,,,,,,,FF,,,,,,,,1.068625,,,,,,,,,,,,,,,,,,,,,,,606248077eb733dc380dc27c,60a7d7fc055cfa8670dc50de,2021-05-21_10h57.00.740,Simcolourproject_2stim_asymm_v5,2020.2.10,Win32,60,60a5f9bf14d0aa2821c4bb84,,,,,790,-43.5,-108.5,1,0,0,response5disk,,3,-6.5,-0.5,1,0,0,rectangle,-6.5,-0.5,1,0,0,7,"[65,160,166,256,268,32,100,22,3,254,260,26,187,72,292,105,29,149,296,288]",-6.5,-0.5,1,0,0,0,32,32,84,1,,,
,,,,,,,,,,,,,FF,,,,,,,,1.3189,,,,,,,,,,,,,,,,,,,,,,,606248077eb733dc380dc27c,60a7d7fc055cfa8670dc50de,2021-05-21_10h57.00.740,Simcolourproject_2stim_asymm_v5,2020.2.10,Win32,60,60a5f9bf14d0aa2821c4bb84,,,,,441,50.5,-144.5,1,0,0,response3disk,,4,2.5,-9.5,1,0,0,rectangle,2.5,-9.5,1,0,0,2,"[65,160,166,256,268,32,100,22,3,254,260,26,187,72,292,105,29,149,296,288]",2.5,-9.5,1,0,0,0,33,33,139,1,,,
,,,,,,,,,,,,,FF,,,,,,,,44.55587,,,,,,,,,,,,,,,,,,,,,,,606248077eb733dc380dc27c,60a7d7fc055cfa8670dc50de,2021-05-21_10h57.00.740,Simcolourproject_2stim_asymm_v5,2020.2.10,Win32,60,60a5f9bf14d0aa2821c4bb84,,,,,3800,100.5,-63.5,1,0,0,response3disk,,5,-12.5,4.5,1,0,0,rectangle,-12.5,4.5,1,0,0,0,"[65,160,166,256,268,32,100,22,3,254,260,26,187,72,292,105,29,149,296,288]",-12.5,4.5,1,0,0,0,34,34,11,1,,,
,,,,,,,,,,,,,FF,,,,,,,,1.319425,,,,,,,,,,,,,,,,,,,,,,,606248077eb733dc380dc27c,60a7d7fc055cfa8670dc50de,2021-05-21_10h57.00.740,Simcolourproject_2stim_asymm_v5,2020.2.10,Win32,60,60a5f9bf14d0aa2821c4bb84,,,,,2052,109.5,-80.5,1,0,0,response3disk,,5,-9.5,-4.5,1,0,0,rectangle,-9.5,-4.5,1,0,0,4,"[65,160,166,256,268,32,100,22,3,254,260,26,187,72,292,105,29,149,296,288]",-9.5,-4.5,1,0,0,0,35,35,96,1,,,
,,,,,,,,,,,,,FF,,,,,,,,1.06832,,,,,,,,,,,,,,,,,,,,,,,606248077eb733dc380dc27c,60a7d7fc055cfa8670dc50de,2021-05-21_10h57.00.740,Simcolourproject_2stim_asymm_v5,2020.2.10,Win32,60,60a5f9bf14d0aa2821c4bb84,,,,,1094,74.5,135.5,1,0,0,response1disk,,7,-3.5,-5.5,1,0,0,rectangle,-3.5,-5.5,1,0,0,7,"[65,160,166,256,268,32,100,22,3,254,260,26,187,72,292,105,29,149,296,288]",-3.5,-5.5,1,0,0,0,36,36,146,1,,,
,,,,,,,,,,,,,FF,,,,,,,,1.135165,,,,,,,,,,,,,,,,,,,,,,,606248077eb733dc380dc27c,60a7d7fc055cfa8670dc50de,2021-05-21_10h57.00.740,Simcolourproject_2stim_asymm_v5,2020.2.10,Win32,60,60a5f9bf14d0aa2821c4bb84,,,,,1821,40.5,-128.5,1,0,0,response3disk,,4,-7.5,-13.5,1,0,0,rectangle,-7.5,-13.5,1,0,0,7,"[65,160,166,256,268,32,100,22,3,254,260,26,187,72,292,105,29,149,296,288]",-7.5,-13.5,1,0,0,0,37,37,114,1,,,
,,,,,,,,,,,,,FF,,,,,,,,1.00039,,,,,,,,,,,,,,,,,,,,,,,606248077eb733dc380dc27c,60a7d7fc055cfa8670dc50de,2021-05-21_10h57.00.740,Simcolourproject_2stim_asymm_v5,2020.2.10,Win32,60,60a5f9bf14d0aa2821c4bb84,,,,,2999,-56.5,-133.5,1,0,0,response5disk,,3,-5.5,-4.5,1,0,0,rectangle,-5.5,-4.5,1,0,0,6,"[65,160,166,256,268,32,100,22,3,254,260,26,187,72,292,105,29,149,296,288]",-5.5,-4.5,1,0,0,0,38,38,104,1,,,
,,,,,,,,,,,,,FF,,,,,,,,1.085235,,,,,,,,,,,,,,,,,,,,,,,606248077eb733dc380dc27c,60a7d7fc055cfa8670dc50de,2021-05-21_10h57.00.740,Simcolourproject_2stim_asymm_v5,2020.2.10,Win32,60,60a5f9bf14d0aa2821c4bb84,,,,,2523,58.5,109.5,1,0,0,response1disk,,7,-17.5,-6.5,1,0,0,rectangle,-17.5,-6.5,1,0,0,4,"[65,160,166,256,268,32,100,22,3,254,260,26,187,72,292,105,29,149,296,288]",-17.5,-6.5,1,0,0,0,39,39,116,1,,,
,,,,,,,,,,,,,FF,,,,,,,,0.95187,,,,,,,,,,,,,,,,,,,,,,,606248077eb733dc380dc27c,60a7d7fc055cfa8670dc50de,2021-05-21_10h57.00.740,Simcolourproject_2stim_asymm_v5,2020.2.10,Win32,60,60a5f9bf14d0aa2821c4bb84,,,,,225,59.5,121.5,1,0,0,response1disk,,7,-2.5,-6.5,1,0,0,rectangle,-2.5,-6.5,1,0,0,4,"[65,160,166,256,268,32,100,22,3,254,260,26,187,72,292,105,29,149,296,288]",-2.5,-6.5,1,0,0,0,40,40,94,1,,,
,,,,,,,,,,,,,FF,,,,,,,,0.684665,,,,,,,,,,,,,,,,,,,,,,,606248077eb733dc380dc27c,60a7d7fc055cfa8670dc50de,2021-05-21_10h57.00.740,Simcolourproject_2stim_asymm_v5,2020.2.10,Win32,60,60a5f9bf14d0aa2821c4bb84,,,,,3725,52.5,130.5,1,0,0,response1disk,,7,3.5,-6.5,1,0,0,rectangle,3.5,-6.5,1,0,0,0,"[65,160,166,256,268,32,100,22,3,254,260,26,187,72,292,105,29,149,296,288]",3.5,-6.5,1,0,0,0,41,41,70,1,,,
,,,,,,,,,,,,,FF,,,,,,,,1.23506,,,,,,,,,,,,,,,,,,,,,,,606248077eb733dc380dc27c,60a7d7fc055cfa8670dc50de,2021-05-21_10h57.00.740,Simcolourproject_2stim_asymm_v5,2020.2.10,Win32,60,60a5f9bf14d0aa2821c4bb84,,,,,1905,126.5,-66.5,1,0,0,response3disk,,5,-0.5,-5.5,1,0,0,rectangle,-0.5,-5.5,1,0,0,2,"[65,160,166,256,268,32,100,22,3,254,260,26,187,72,292,105,29,149,296,288]",-0.5,-5.5,1,0,0,0,42,42,85,1,,,
,,,,,,,,,,,,,FF,,,,,,,,0.701995,,,,,,,,,,,,,,,,,,,,,,,606248077eb733dc380dc27c,60a7d7fc055cfa8670dc50de,2021-05-21_10h57.00.740,Simcolourproject_2stim_asymm_v5,2020.2.10,Win32,60,60a5f9bf14d0aa2821c4bb84,,,,,2100,-73.5,51.5,1,0,0,response7disk,,1,4.5,-11.5,1,0,0,rectangle,4.5,-11.5,1,0,0,0,"[65,160,166,256,268,32,100,22,3,254,260,26,187,72,292,105,29,149,296,288]",4.5,-11.5,1,0,0,0,43,43,80,1,,,
,,,,,,,,,,,,,FF,,,,,,,,1.051965,,,,,,,,,,,,,,,,,,,,,,,606248077eb733dc380dc27c,60a7d7fc055cfa8670dc50de,2021-05-21_10h57.00.740,Simcolourproject_2stim_asymm_v5,2020.2.10,Win32,60,60a5f9bf14d0aa2821c4bb84,,,,,1407,108.5,-47.5,1,0,0,response3disk,,5,8.5,-2.5,1,0,0,rectangle,8.5,-2.5,1,0,0,4,"[65,160,166,256,268,32,100,22,3,254,260,26,187,72,292,105,29,149,296,288]",8.5,-2.5,1,0,0,0,44,44,79,1,,,
,,,,,,,,,,,,,FF,,,,,,,,1.05003,,,,,,,,,,,,,,,,,,,,,,,606248077eb733dc380dc27c,60a7d7fc055cfa8670dc50de,2021-05-21_10h57.00.740,Simcolourproject_2stim_asymm_v5,2020.2.10,Win32,60,60a5f9bf14d0aa2821c4bb84,,,,,96,75.5,-125.5,1,0,0,response3disk,,4,2.5,-4.5,1,0,0,rectangle,2.5,-4.5,1,0,0,5,"[65,160,166,256,268,32,100,22,3,254,260,26,187,72,292,105,29,149,296,288]",2.5,-4.5,1,0,0,0,45,45,0,1,,,
,,,,,,,,,,,,,FF,,,,,,,,135.736445,,,,,,,,,,,,,,,,,,,,,,,606248077eb733dc380dc27c,60a7d7fc055cfa8670dc50de,2021-05-21_10h57.00.740,Simcolourproject_2stim_asymm_v5,2020.2.10,Win32,60,60a5f9bf14d0aa2821c4bb84,,,,,671,-73.5,120.5,1,0,0,response7disk,,0,-9.5,-5.5,1,0,0,rectangle,-9.5,-5.5,1,0,0,5,"[65,160,166,256,268,32,100,22,3,254,260,26,187,72,292,105,29,149,296,288]",-9.5,-5.5,1,0,0,0,46,46,39,1,,,
,,,,,,,,,,,,,FF,,,,,,,,1.03571,,,,,,,,,,,,,,,,,,,,,,,606248077eb733dc380dc27c,60a7d7fc055cfa8670dc50de,2021-05-21_10h57.00.740,Simcolourproject_2stim_asymm_v5,2020.2.10,Win32,60,60a5f9bf14d0aa2821c4bb84,,,,,806,-48.5,-109.5,1,0,0,response5disk,,3,1.5,2.5,1,0,0,rectangle,1.5,2.5,1,0,0,1,"[65,160,166,256,268,32,100,22,3,254,260,26,187,72,292,105,29,149,296,288]",1.5,2.5,1,0,0,0,47,47,88,1,,,
,,,,,,,,,,,,,FF,,,,,,,,1.336265,,,,,,,,,,,,,,,,,,,,,,,606248077eb733dc380dc27c,60a7d7fc055cfa8670dc50de,2021-05-21_10h57.00.740,Simcolourproject_2stim_asymm_v5,2020.2.10,Win32,60,60a5f9bf14d0aa2821c4bb84,,,,,792,118.5,74.5,1,0,0,response1disk,,6,-4.5,-10.5,1,0,0,rectangle,-4.5,-10.5,1,0,0,5,"[65,160,166,256,268,32,100,22,3,254,260,26,187,72,292,105,29,149,296,288]",-4.5,-10.5,1,0,0,0,48,48,141,1,,,
,,,,,,,,,,,,,FF,,,,,,,,1.102045,,,,,,,,,,,,,,,,,,,,,,,606248077eb733dc380dc27c,60a7d7fc055cfa8670dc50de,2021-05-21_10h57.00.740,Simcolourproject_2stim_asymm_v5,2020.2.10,Win32,60,60a5f9bf14d0aa2821c4bb84,,,,,1077,84.5,138.5,1,0,0,response1disk,,7,10.5,1.5,1,0,0,rectangle,10.5,1.5,1,0,0,5,"[65,160,166,256,268,32,100,22,3,254,260,26,187,72,292,105,29,149,296,288]",10.5,1.5,1,0,0,0,49,49,72,1,,,
,,,,,,,,,,,,,FF,,,,,,,,0.768225,,,,,,,,,,,,,,,,,,,,,,,606248077eb733dc380dc27c,60a7d7fc055cfa8670dc50de,2021-05-21_10h57.00.740,Simcolourproject_2stim_asymm_v5,2020.2.10,Win32,60,60a5f9bf14d0aa2821c4bb84,,,,,3881,-35.5,-114.5,1,0,0,response5disk,,3,-15.5,-2.5,1,0,0,rectangle,-15.5,-2.5,1,0,0,3,"[65,160,166,256,268,32,100,22,3,254,260,26,187,72,292,105,29,149,296,288]",-15.5,-2.5,1,0,0,0,50,50,76,1,,,
,,,,,,,,,,,,,FF,,,,,,,,106.91538,,,,,,,,,,,,,,,,,,,,,,,606248077eb733dc380dc27c,60a7d7fc055cfa8670dc50de,2021-05-21_10h57.00.740,Simcolourproject_2stim_asymm_v5,2020.2.10,Win32,60,60a5f9bf14d0aa2821c4bb84,,,,,418,-144.5,80.5,1,0,0,response7disk,,1,-14.5,5.5,1,0,0,rectangle,-14.5,5.5,1,0,0,6,"[65,160,166,256,268,32,100,22,3,254,260,26,187,72,292,105,29,149,296,288]",-14.5,5.5,1,0,0,0,51,51,31,1,,,
,,,,,,,,,,,,,FF,,,,,,,,1.43671,,,,,,,,,,,,,,,,,,,,,,,606248077eb733dc380dc27c,60a7d7fc055cfa8670dc50de,2021-05-21_10h57.00.740,Simcolourproject_2stim_asymm_v5,2020.2.10,Win32,60,60a5f9bf14d0aa2821c4bb84,,,,,426,36.5,114.5,1,0,0,response1disk,,7,-0.5,3.5,1,0,0,rectangle,-0.5,3.5,1,0,0,5,"[65,160,166,256,268,32,100,22,3,254,260,26,187,72,292,105,29,149,296,288]",-0.5,3.5,1,0,0,0,52,52,56,1,,,
,,,,,,,,,,,,,FF,,,,,,,,26.20876,,,,,,,,,,,,,,,,,,,,,,,606248077eb733dc380dc27c,60a7d7fc055cfa8670dc50de,2021-05-21_10h57.00.740,Simcolourproject_2stim_asymm_v5,2020.2.10,Win32,60,60a5f9bf14d0aa2821c4bb84,,,,,2206,121.5,60.5,1,0,0,response1disk,,6,-25.5,-4.5,1,0,0,rectangle,-25.5,-4.5,1,0,0,0,"[65,160,166,256,268,32,100,22,3,254,260,26,187,72,292,105,29,149,296,288]",-25.5,-4.5,1,0,0,0,53,53,133,1,,,
,,,,,,,,,,,,,FF,,,,,,,,0.81414,,,,,,,,,,,,,,,,,,,,,,,606248077eb733dc380dc27c,60a7d7fc055cfa8670dc50de,2021-05-21_10h57.00.740,Simcolourproject_2stim_asymm_v5,2020.2.10,Win32,60,60a5f9bf14d0aa2821c4bb84,,,,,3121,118.5,54.5,1,0,0,response1disk,,6,-1.5,9.5,1,0,0,rectangle,-1.5,9.5,1,0,0,0,"[65,160,166,256,268,32,100,22,3,254,260,26,187,72,292,105,29,149,296,288]",-1.5,9.5,1,0,0,0,54,54,38,1,,,
,,,,,,,,,,,,,FF,,,,,,,,1.75143,,,,,,,,,,,,,,,,,,,,,,,606248077eb733dc380dc27c,60a7d7fc055cfa8670dc50de,2021-05-21_10h57.00.740,Simcolourproject_2stim_asymm_v5,2020.2.10,Win32,60,60a5f9bf14d0aa2821c4bb84,,,,,4041,46.5,-137.5,1,0,0,response3disk,,4,-13.5,-3.5,1,0,0,rectangle,-13.5,-3.5,1,0,0,5,"[65,160,166,256,268,32,100,22,3,254,260,26,187,72,292,105,29,149,296,288]",-13.5,-3.5,1,0,0,0,55,55,97,1,,,
,,,,,,,,,,,,,FF,,,,,,,,1.235775,,,,,,,,,,,,,,,,,,,,,,,606248077eb733dc380dc27c,60a7d7fc055cfa8670dc50de,2021-05-21_10h57.00.740,Simcolourproject_2stim_asymm_v5,2020.2.10,Win32,60,60a5f9bf14d0aa2821c4bb84,,,,,1943,82.5,112.5,1,0,0,response1disk,,7,5.5,0.5,1,0,0,rectangle,5.5,0.5,1,0,0,4,"[65,160,166,256,268,32,100,22,3,254,260,26,187,72,292,105,29,149,296,288]",5.5,0.5,1,0,0,0,56,56,105,1,,,
,,,,,,,,,,,,,FF,,,,,,,,0.884615,,,,,,,,,,,,,,,,,,,,,,,606248077eb733dc380dc27c,60a7d7fc055cfa8670dc50de,2021-05-21_10h57.00.740,Simcolourproject_2stim_asymm_v5,2020.2.10,Win32,60,60a5f9bf14d0aa2821c4bb84,,,,,4251,-44.5,118.5,1,0,0,response7disk,,0,-13.5,5.5,1,0,0,rectangle,-13.5,5.5,1,0,0,5,"[65,160,166,256,268,32,100,22,3,254,260,26,187,72,292,105,29,149,296,288]",-13.5,5.5,1,0,0,0,57,57,3,1,,,
,,,,,,,,,,,,,FF,,,,,,,,1.304285,,,,,,,,,,,,,,,,,,,,,,,606248077eb733dc380dc27c,60a7d7fc055cfa8670dc50de,2021-05-21_10h57.00.740,Simcolourproject_2stim_asymm_v5,2020.2.10,Win32,60,60a5f9bf14d0aa2821c4bb84,,,,,1612,95.5,-79.5,1,0,0,response3disk,,5,3.5,-2.5,1,0,0,rectangle,3.5,-2.5,1,0,0,4,"[65,160,166,256,268,32,100,22,3,254,260,26,187,72,292,105,29,149,296,288]",3.5,-2.5,1,0,0,0,58,58,62,1,,,
,,,,,,,,,,,,,FF,,,,,,,,0.697455,,,,,,,,,,,,,,,,,,,,,,,606248077eb733dc380dc27c,60a7d7fc055cfa8670dc50de,2021-05-21_10h57.00.740,Simcolourproject_2stim_asymm_v5,2020.2.10,Win32,60,60a5f9bf14d0aa2821c4bb84,,,,,2866,42.5,141.5,1,0,0,response1disk,,7,9.5,-3.5,1,0,0,rectangle,9.5,-3.5,1,0,0,3,"[65,160,166,256,268,32,100,22,3,254,260,26,187,72,292,105,29,149,296,288]",9.5,-3.5,1,0,0,0,59,59,50,1,,,
,,,,,,,,,,,,,FF,,,,,,,,1.002775,,,,,,,,,,,,,,,,,,,,,,,606248077eb733dc380dc27c,60a7d7fc055cfa8670dc50de,2021-05-21_10h57.00.740,Simcolourproject_2stim_asymm_v5,2020.2.10,Win32,60,60a5f9bf14d0aa2821c4bb84,,,,,207,101.5,43.5,1,0,0,response1disk,,6,-11.5,-6.5,1,0,0,rectangle,-11.5,-6.5,1,0,0,5,"[65,160,166,256,268,32,100,22,3,254,260,26,187,72,292,105,29,149,296,288]",-11.5,-6.5,1,0,0,0,60,60,77,1,,,
,,,,,,,,,,,,,FF,,,,,,,,0.981755,,,,,,,,,,,,,,,,,,,,,,,606248077eb733dc380dc27c,60a7d7fc055cfa8670dc50de,2021-05-21_10h57.00.740,Simcolourproject_2stim_asymm_v5,2020.2.10,Win32,60,60a5f9bf14d0aa2821c4bb84,,,,,3904,53.5,-136.5,1,0,0,response3disk,,4,-12.5,-6.5,1,0,0,rectangle,-12.5,-6.5,1,0,0,7,"[65,160,166,256,268,32,100,22,3,254,260,26,187,72,292,105,29,149,296,288]",-12.5,-6.5,1,0,0,0,61,61,59,1,,,
,,,,,,,,,,,,,FF,,,,,,,,0.80302,,,,,,,,,,,,,,,,,,,,,,,606248077eb733dc380dc27c,60a7d7fc055cfa8670dc50de,2021-05-21_10h57.00.740,Simcolourproject_2stim_asymm_v5,2020.2.10,Win32,60,60a5f9bf14d0aa2821c4bb84,,,,,1749,98.5,-51.5,1,0,0,response3disk,,5,-8.5,-6.5,1,0,0,rectangle,-8.5,-6.5,1,0,0,2,"[65,160,166,256,268,32,100,22,3,254,260,26,187,72,292,105,29,149,296,288]",-8.5,-6.5,1,0,0,0,62,62,10,1,,,
,,,,,,,,,,,,,FF,,,,,,,,1.1365,,,,,,,,,,,,,,,,,,,,,,,606248077eb733dc380dc27c,60a7d7fc055cfa8670dc50de,2021-05-21_10h57.00.740,Simcolourproject_2stim_asymm_v5,2020.2.10,Win32,60,60a5f9bf14d0aa2821c4bb84,,,,,1292,-35.5,-115.5,1,0,0,response5disk,,3,1.5,6.5,1,0,0,rectangle,1.5,6.5,1,0,0,1,"[65,160,166,256,268,32,100,22,3,254,260,26,187,72,292,105,29,149,296,288]",1.5,6.5,1,0,0,0,63,63,118,1,,,
,,,,,,,,,,,,,FF,,,,,,,,0.752035,,,,,,,,,,,,,,,,,,,,,,,606248077eb733dc380dc27c,60a7d7fc055cfa8670dc50de,2021-05-21_10h57.00.740,Simcolourproject_2stim_asymm_v5,2020.2.10,Win32,60,60a5f9bf14d0aa2821c4bb84,,,,,1131,-62.5,113.5,1,0,0,response7disk,,0,-18.5,-13.5,1,0,0,rectangle,58.5,140.5,1,0,0,7,"[65,160,166,256,268,32,100,22,3,254,260,26,187,72,292,105,29,149,296,288]",3.5,5.5,1,0,0,0,64,64,87,1,,response1disk_3,rectangle
,,,,,,,,,,,,,FF,,,,,,,,0.80356,,,,,,,,,,,,,,,,,,,,,,,606248077eb733dc380dc27c,60a7d7fc055cfa8670dc50de,2021-05-21_10h57.00.740,Simcolourproject_2stim_asymm_v5,2020.2.10,Win32,60,60a5f9bf14d0aa2821c4bb84,,,,,340,127.5,-64.5,1,0,0,response3disk,,5,21.5,-5.5,1,0,0,rectangle,21.5,-5.5,1,0,0,2,"[65,160,166,256,268,32,100,22,3,254,260,26,187,72,292,105,29,149,296,288]",21.5,-5.5,1,0,0,0,65,65,28,1,,,
,,,,,,,,,,,,,FF,,,,,,,,0.799795,,,,,,,,,,,,,,,,,,,,,,,606248077eb733dc380dc27c,60a7d7fc055cfa8670dc50de,2021-05-21_10h57.00.740,Simcolourproject_2stim_asymm_v5,2020.2.10,Win32,60,60a5f9bf14d0aa2821c4bb84,,,,,740,57.5,-101.5,1,0,0,response3disk,,4,1.5,-1.5,1,0,0,rectangle,1.5,-1.5,1,0,0,5,"[65,160,166,256,268,32,100,22,3,254,260,26,187,72,292,105,29,149,296,288]",1.5,-1.5,1,0,0,0,66,66,110,1,,,
,,,,,,,,,,,,,FF,,,,,,,,0.835755,,,,,,,,,,,,,,,,,,,,,,,606248077eb733dc380dc27c,60a7d7fc055cfa8670dc50de,2021-05-21_10h57.00.740,Simcolourproject_2stim_asymm_v5,2020.2.10,Win32,60,60a5f9bf14d0aa2821c4bb84,,,,,2422,-33.5,-104.5,1,0,0,response5disk,,3,-0.5,0.5,1,0,0,rectangle,-0.5,0.5,1,0,0,2,"[65,160,166,256,268,32,100,22,3,254,260,26,187,72,292,105,29,149,296,288]",-0.5,0.5,1,0,0,0,67,67,89,1,,,
,,,,,,,,,,,,,FF,,,,,,,,1.705335,,,,,,,,,,,,,,,,,,,,,,,606248077eb733dc380dc27c,60a7d7fc055cfa8670dc50de,2021-05-21_10h57.00.740,Simcolourproject_2stim_asymm_v5,2020.2.10,Win32,60,60a5f9bf14d0aa2821c4bb84,,,,,1812,129.5,-55.5,1,0,0,response3disk,,5,-7.5,-4.5,1,0,0,rectangle,-7.5,-4.5,1,0,0,4,"[65,160,166,256,268,32,100,22,3,254,260,26,187,72,292,105,29,149,296,288]",-7.5,-4.5,1,0,0,0,68,68,86,1,,,
,,,,,,,,,,,,,FF,,,,,,,,1.20324,,,,,,,,,,,,,,,,,,,,,,,606248077eb733dc380dc27c,60a7d7fc055cfa8670dc50de,2021-05-21_10h57.00.740,Simcolourproject_2stim_asymm_v5,2020.2.10,Win32,60,60a5f9bf14d0aa2821c4bb84,,,,,4049,-130.5,-44.5,1,0,0,response5disk,,5,-5.5,1.5,1,0,0,rectangle,-5.5,1.5,1,0,0,4,"[65,160,166,256,268,32,100,22,3,254,260,26,187,72,292,105,29,149,296,288]",-5.5,1.5,1,0,0,0,69,69,64,1,,,
,,,,,,,,,,,,,FF,,,,,,,,1.252115,,,,,,,,,,,,,,,,,,,,,,,606248077eb733dc380dc27c,60a7d7fc055cfa8670dc50de,2021-05-21_10h57.00.740,Simcolourproject_2stim_asymm_v5,2020.2.10,Win32,60,60a5f9bf14d0aa2821c4bb84,,,,,974,42.5,-130.5,1,0,0,response3disk,,4,-7.5,-10.5,1,0,0,rectangle,-7.5,-10.5,1,0,0,7,"[65,160,166,256,268,32,100,22,3,254,260,26,187,72,292,105,29,149,296,288]",-7.5,-10.5,1,0,0,0,70,70,71,1,,,
,,,,,,,,,,,,,FF,,,,,,,,0.81707,,,,,,,,,,,,,,,,,,,,,,,606248077eb733dc380dc27c,60a7d7fc055cfa8670dc50de,2021-05-21_10h57.00.740,Simcolourproject_2stim_asymm_v5,2020.2.10,Win32,60,60a5f9bf14d0aa2821c4bb84,,,,,4083,51.5,-122.5,1,0,0,response3disk,,4,-2.5,-3.5,1,0,0,rectangle,67.5,137.5,1,0,0,7,"[65,160,166,256,268,32,100,22,3,254,260,26,187,72,292,105,29,149,296,288]",9.5,-10.5,1,0,0,0,71,71,54,1,,response1disk_3,rectangle
,,,,,,,,,,,,,FF,,,,,,,,1.31971,,,,,,,,,,,,,,,,,,,,,,,606248077eb733dc380dc27c,60a7d7fc055cfa8670dc50de,2021-05-21_10h57.00.740,Simcolourproject_2stim_asymm_v5,2020.2.10,Win32,60,60a5f9bf14d0aa2821c4bb84,,,,,3302,74.5,140.5,1,0,0,response1disk,,7,5.5,-6.5,1,0,0,rectangle,5.5,-6.5,1,0,0,1,"[65,160,166,256,268,32,100,22,3,254,260,26,187,72,292,105,29,149,296,288]",5.5,-6.5,1,0,0,0,72,72,145,1,,,
,,,,,,,,,,,,,FF,,,,,,,,0.705485,,,,,,,,,,,,,,,,,,,,,,,606248077eb733dc380dc27c,60a7d7fc055cfa8670dc50de,2021-05-21_10h57.00.740,Simcolourproject_2stim_asymm_v5,2020.2.10,Win32,60,60a5f9bf14d0aa2821c4bb84,,,,,73,-50.5,-117.5,1,0,0,response5disk,,3,0.5,-0.5,1,0,0,rectangle,0.5,-0.5,1,0,0,2,"[65,160,166,256,268,32,100,22,3,254,260,26,187,72,292,105,29,149,296,288]",0.5,-0.5,1,0,0,0,73,73,107,1,,,
,,,,,,,,,,,,,FF,,,,,,,,2.220225,,,,,,,,,,,,,,,,,,,,,,,606248077eb733dc380dc27c,60a7d7fc055cfa8670dc50de,2021-05-21_10h57.00.740,Simcolourproject_2stim_asymm_v5,2020.2.10,Win32,60,60a5f9bf14d0aa2821c4bb84,,,,,2713,113.5,-61.5,1,0,0,response3disk,,5,-6.5,12.5,1,0,0,rectangle,-6.5,12.5,1,0,0,4,"[65,160,166,256,268,32,100,22,3,254,260,26,187,72,292,105,29,149,296,288]",-6.5,12.5,1,0,0,0,74,74,132,1,,,
,,,,,,,,,,,,,FF,,,,,,,,0.701905,,,,,,,,,,,,,,,,,,,,,,,606248077eb733dc380dc27c,60a7d7fc055cfa8670dc50de,2021-05-21_10h57.00.740,Simcolourproject_2stim_asymm_v5,2020.2.10,Win32,60,60a5f9bf14d0aa2821c4bb84,,,,,1536,50.5,-126.5,1,0,0,response3disk,,4,-3.5,-2.5,1,0,0,rectangle,-3.5,-2.5,1,0,0,1,"[65,160,166,256,268,32,100,22,3,254,260,26,187,72,292,105,29,149,296,288]",-3.5,-2.5,1,0,0,0,75,75,69,1,,,
,,,,,,,,,,,,,FF,,,,,,,,0.83577,,,,,,,,,,,,,,,,,,,,,,,606248077eb733dc380dc27c,60a7d7fc055cfa8670dc50de,2021-05-21_10h57.00.740,Simcolourproject_2stim_asymm_v5,2020.2.10,Win32,60,60a5f9bf14d0aa2821c4bb84,,,,,1711,66.5,131.5,1,0,0,response1disk,,7,-5.5,-11.5,1,0,0,rectangle,-5.5,-11.5,1,0,0,0,"[65,160,166,256,268,32,100,22,3,254,260,26,187,72,292,105,29,149,296,288]",-5.5,-11.5,1,0,0,0,76,76,137,1,,,
,,,,,,,,,,,,,FF,,,,,,,,0.81781,,,,,,,,,,,,,,,,,,,,,,,606248077eb733dc380dc27c,60a7d7fc055cfa8670dc50de,2021-05-21_10h57.00.740,Simcolourproject_2stim_asymm_v5,2020.2.10,Win32,60,60a5f9bf14d0aa2821c4bb84,,,,,2751,62.5,128.5,1,0,0,response1disk,,7,11.5,0.5,1,0,0,rectangle,11.5,0.5,1,0,0,7,"[65,160,166,256,268,32,100,22,3,254,260,26,187,72,292,105,29,149,296,288]",11.5,0.5,1,0,0,0,77,77,150,1,,,
,,,,,,,,,,,,,FF,,,,,,,,1.185465,,,,,,,,,,,,,,,,,,,,,,,606248077eb733dc380dc27c,60a7d7fc055cfa8670dc50de,2021-05-21_10h57.00.740,Simcolourproject_2stim_asymm_v5,2020.2.10,Win32,60,60a5f9bf14d0aa2821c4bb84,,,,,3849,68.5,-135.5,1,0,0,response3disk,,4,-0.5,10.5,1,0,0,rectangle,-0.5,10.5,1,0,0,6,"[65,160,166,256,268,32,100,22,3,254,260,26,187,72,292,105,29,149,296,288]",-0.5,10.5,1,0,0,0,78,78,22,1,,,
,,,,,,,,,,,,,FF,,,,,,,,0.7682,,,,,,,,,,,,,,,,,,,,,,,606248077eb733dc380dc27c,60a7d7fc055cfa8670dc50de,2021-05-21_10h57.00.740,Simcolourproject_2stim_asymm_v5,2020.2.10,Win32,60,60a5f9bf14d0aa2821c4bb84,,,,,1542,84.5,132.5,1,0,0,response1disk,,7,15.5,-3.5,1,0,0,rectangle,15.5,-3.5,1,0,0,7,"[65,160,166,256,268,32,100,22,3,254,260,26,187,72,292,105,29,149,296,288]",15.5,-3.5,1,0,0,0,79,79,108,1,,,
,,,,,,,,,,,,,FF,,,,,,,,1.46864,,,,,,,,,,,,,,,,,,,,,,,606248077eb733dc380dc27c,60a7d7fc055cfa8670dc50de,2021-05-21_10h57.00.740,Simcolourproject_2stim_asymm_v5,2020.2.10,Win32,60,60a5f9bf14d0aa2821c4bb84,,,,,119,69.5,140.5,1,0,0,response1disk,,7,1.5,8.5,1,0,0,rectangle,1.5,8.5,1,0,0,5,"[65,160,166,256,268,32,100,22,3,254,260,26,187,72,292,105,29,149,296,288]",1.5,8.5,1,0,0,0,80,80,12,1,,,
,,,,,,,,,,,,,FF,,,,,,,,1.03518,,,,,,,,,,,,,,,,,,,,,,,606248077eb733dc380dc27c,60a7d7fc055cfa8670dc50de,2021-05-21_10h57.00.740,Simcolourproject_2stim_asymm_v5,2020.2.10,Win32,60,60a5f9bf14d0aa2821c4bb84,,,,,2874,81.5,120.5,1,0,0,response1disk,,7,1.5,1.5,1,0,0,rectangle,1.5,1.5,1,0,0,0,"[65,160,166,256,268,32,100,22,3,254,260,26,187,72,292,105,29,149,296,288]",1.5,1.5,1,0,0,0,81,81,102,1,,,
,,,,,,,,,,,,,FF,,,,,,,,1.252765,,,,,,,,,,,,,,,,,,,,,,,606248077eb733dc380dc27c,60a7d7fc055cfa8670dc50de,2021-05-21_10h57.00.740,Simcolourproject_2stim_asymm_v5,2020.2.10,Win32,60,60a5f9bf14d0aa2821c4bb84,,,,,1383,113.5,-72.5,1,0,0,response3disk,,5,-11.5,-1.5,1,0,0,rectangle,-11.5,-1.5,1,0,0,5,"[65,160,166,256,268,32,100,22,3,254,260,26,187,72,292,105,29,149,296,288]",-11.5,-1.5,1,0,0,0,82,82,148,1,,,
,,,,,,,,,,,,,FF,,,,,,,,0.702155,,,,,,,,,,,,,,,,,,,,,,,606248077eb733dc380dc27c,60a7d7fc055cfa8670dc50de,2021-05-21_10h57.00.740,Simcolourproject_2stim_asymm_v5,2020.2.10,Win32,60,60a5f9bf14d0aa2821c4bb84,,,,,3765,53.5,126.5,1,0,0,response1disk,,7,1.5,-8.5,1,0,0,rectangle,1.5,-8.5,1,0,0,5,"[65,160,166,256,268,32,100,22,3,254,260,26,187,72,292,105,29,149,296,288]",1.5,-8.5,1,0,0,0,83,83,160,1,,,
,,,,,,,,,,,,,FF,,,,,,,,0.88497,,,,,,,,,,,,,,,,,,,,,,,606248077eb733dc380dc27c,60a7d7fc055cfa8670dc50de,2021-05-21_10h57.00.740,Simcolourproject_2stim_asymm_v5,2020.2.10,Win32,60,60a5f9bf14d0aa2821c4bb84,,,,,941,55.5,142.5,1,0,0,response1disk,,7,9.5,0.5,1,0,0,rectangle,9.5,0.5,1,0,0,6,"[65,160,166,256,268,32,100,22,3,254,260,26,187,72,292,105,29,149,296,288]",9.5,0.5,1,0,0,0,84,84,43,1,,,
,,,,,,,,,,,,,FF,,,,,,,,1.08777,,,,,,,,,,,,,,,,,,,,,,,606248077eb733dc380dc27c,60a7d7fc055cfa8670dc50de,2021-05-21_10h57.00.740,Simcolourproject_2stim_asymm_v5,2020.2.10,Win32,60,60a5f9bf14d0aa2821c4bb84,,,,,2115,128.5,-64.5,1,0,0,response3disk,,5,-10.5,2.5,1,0,0,rectangle,-10.5,2.5,1,0,0,2,"[65,160,166,256,268,32,100,22,3,254,260,26,187,72,292,105,29,149,296,288]",-10.5,2.5,1,0,0,0,85,85,140,1,,,
,,,,,,,,,,,,,FF,,,,,,,,0.83532,,,,,,,,,,,,,,,,,,,,,,,606248077eb733dc380dc27c,60a7d7fc055cfa8670dc50de,2021-05-21_10h57.00.740,Simcolourproject_2stim_asymm_v5,2020.2.10,Win32,60,60a5f9bf14d0aa2821c4bb84,,,,,1600,115.5,-57.5,1,0,0,response3disk,,5,10.5,0.5,1,0,0,rectangle,10.5,0.5,1,0,0,0,"[65,160,166,256,268,32,100,22,3,254,260,26,187,72,292,105,29,149,296,288]",10.5,0.5,1,0,0,0,86,86,5,1,,,
,,,,,,,,,,,,,FF,,,,,,,,2.12077,,,,,,,,,,,,,,,,,,,,,,,606248077eb733dc380dc27c,60a7d7fc055cfa8670dc50de,2021-05-21_10h57.00.740,Simcolourproject_2stim_asymm_v5,2020.2.10,Win32,60,60a5f9bf14d0aa2821c4bb84,,,,,2220,116.5,55.5,1,0,0,response1disk,,6,12.5,8.5,1,0,0,rectangle,12.5,8.5,1,0,0,3,"[65,160,166,256,268,32,100,22,3,254,260,26,187,72,292,105,29,149,296,288]",12.5,8.5,1,0,0,0,87,87,127,1,,,
,,,,,,,,,,,,,FF,,,,,,,,0.801545,,,,,,,,,,,,,,,,,,,,,,,606248077eb733dc380dc27c,60a7d7fc055cfa8670dc50de,2021-05-21_10h57.00.740,Simcolourproject_2stim_asymm_v5,2020.2.10,Win32,60,60a5f9bf14d0aa2821c4bb84,,,,,1571,47.5,150.5,1,0,0,response1disk,,7,3.5,8.5,1,0,0,rectangle,3.5,8.5,1,0,0,1,"[65,160,166,256,268,32,100,22,3,254,260,26,187,72,292,105,29,149,296,288]",3.5,8.5,1,0,0,0,88,88,155,1,,,
,,,,,,,,,,,,,FF,,,,,,,,0.728885,,,,,,,,,,,,,,,,,,,,,,,606248077eb733dc380dc27c,60a7d7fc055cfa8670dc50de,2021-05-21_10h57.00.740,Simcolourproject_2stim_asymm_v5,2020.2.10,Win32,60,60a5f9bf14d0aa2821c4bb84,,,,,1655,69.5,144.5,1,0,0,response1disk,,7,-5.5,-1.5,1,0,0,rectangle,-5.5,-1.5,1,0,0,5,"[65,160,166,256,268,32,100,22,3,254,260,26,187,72,292,105,29,149,296,288]",-5.5,-1.5,1,0,0,0,89,89,36,1,,,
,,,,,,,,,,,,,FF,,,,,,,,1.303105,,,,,,,,,,,,,,,,,,,,,,,606248077eb733dc380dc27c,60a7d7fc055cfa8670dc50de,2021-05-21_10h57.00.740,Simcolourproject_2stim_asymm_v5,2020.2.10,Win32,60,60a5f9bf14d0aa2821c4bb84,,,,,1824,-132.5,-41.5,1,0,0,response5disk,,7,7.5,2.5,1,0,0,rectangle,7.5,2.5,1,0,0,2,"[65,160,166,256,268,32,100,22,3,254,260,26,187,72,292,105,29,149,296,288]",7.5,2.5,1,0,0,0,90,90,20,1,,,
,,,,,,,,,,,,,FF,,,,,,,,1.153245,,,,,,,,,,,,,,,,,,,,,,,606248077eb733dc380dc27c,60a7d7fc055cfa8670dc50de,2021-05-21_10h57.00.740,Simcolourproject_2stim_asymm_v5,2020.2.10,Win32,60,60a5f9bf14d0aa2821c4bb84,,,,,1378,-106.5,-70.5,1,0,0,response5disk,,7,9.5,-6.5,1,0,0,rectangle,9.5,-6.5,1,0,0,6,"[65,160,166,256,268,32,100,22,3,254,260,26,187,72,292,105,29,149,296,288]",9.5,-6.5,1,0,0,0,91,91,67,1,,,
,,,,,,,,,,,,,FF,,,,,,,,1.552825,,,,,,,,,,,,,,,,,,,,,,,606248077eb733dc380dc27c,60a7d7fc055cfa8670dc50de,2021-05-21_10h57.00.740,Simcolourproject_2stim_asymm_v5,2020.2.10,Win32,60,60a5f9bf14d0aa2821c4bb84,,,,,4337,-50.5,-137.5,1,0,0,response5disk,,3,-5.5,0.5,1,0,0,rectangle,-5.5,0.5,1,0,0,3,"[65,160,166,256,268,32,100,22,3,254,260,26,187,72,292,105,29,149,296,288]",-5.5,0.5,1,0,0,0,92,92,83,1,,,
,,,,,,,,,,,,,FF,,,,,,,,0.702085,,,,,,,,,,,,,,,,,,,,,,,606248077eb733dc380dc27c,60a7d7fc055cfa8670dc50de,2021-05-21_10h57.00.740,Simcolourproject_2stim_asymm_v5,2020.2.10,Win32,60,60a5f9bf14d0aa2821c4bb84,,,,,3457,77.5,133.5,1,0,0,response1disk,,7,-7.5,-8.5,1,0,0,rectangle,-7.5,-8.5,1,0,0,7,"[65,160,166,256,268,32,100,22,3,254,260,26,187,72,292,105,29,149,296,288]",-7.5,-8.5,1,0,0,0,93,93,4,1,,,
,,,,,,,,,,,,,FF,,,,,,,,1.00231,,,,,,,,,,,,,,,,,,,,,,,606248077eb733dc380dc27c,60a7d7fc055cfa8670dc50de,2021-05-21_10h57.00.740,Simcolourproject_2stim_asymm_v5,2020.2.10,Win32,60,60a5f9bf14d0aa2821c4bb84,,,,,1780,42.5,113.5,1,0,0,response1disk,,7,-12.5,12.5,1,0,0,rectangle,-12.5,12.5,1,0,0,0,"[65,160,166,256,268,32,100,22,3,254,260,26,187,72,292,105,29,149,296,288]",-12.5,12.5,1,0,0,0,94,94,46,1,,,
,,,,,,,,,,,,,FF,,,,,,,,0.61812,,,,,,,,,,,,,,,,,,,,,,,606248077eb733dc380dc27c,60a7d7fc055cfa8670dc50de,2021-05-21_10h57.00.740,Simcolourproject_2stim_asymm_v5,2020.2.10,Win32,60,60a5f9bf14d0aa2821c4bb84,,,,,1502,39.5,100.5,1,0,0,response1disk,,7,2.5,-4.5,1,0,0,rectangle,2.5,-4.5,1,0,0,1,"[65,160,166,256,268,32,100,22,3,254,260,26,187,72,292,105,29,149,296,288]",2.5,-4.5,1,0,0,0,95,95,128,1,,,
,,,,,,,,,,,,,FF,,,,,,,,0.80149,,,,,,,,,,,,,,,,,,,,,,,606248077eb733dc380dc27c,60a7d7fc055cfa8670dc50de,2021-05-21_10h57.00.740,Simcolourproject_2stim_asymm_v5,2020.2.10,Win32,60,60a5f9bf14d0aa2821c4bb84,,,,,800,60.5,109.5,1,0,0,response1disk,,7,11.5,-7.5,1,0,0,rectangle,11.5,-7.5,1,0,0,4,"[65,160,166,256,268,32,100,22,3,254,260,26,187,72,292,105,29,149,296,288]",11.5,-7.5,1,0,0,0,96,96,143,1,,,
,,,,,,,,,,,,,FF,,,,,,,,1.135195,,,,,,,,,,,,,,,,,,,,,,,606248077eb733dc380dc27c,60a7d7fc055cfa8670dc50de,2021-05-21_10h57.00.740,Simcolourproject_2stim_asymm_v5,2020.2.10,Win32,60,60a5f9bf14d0aa2821c4bb84,,,,,1045,43.5,124.5,1,0,0,response1disk,,7,-4.5,2.5,1,0,0,rectangle,-4.5,2.5,1,0,0,2,"[65,160,166,256,268,32,100,22,3,254,260,26,187,72,292,105,29,149,296,288]",-4.5,2.5,1,0,0,0,97,97,63,1,,,
,,,,,,,,,,,,,FF,,,,,,,,0.48448,,,,,,,,,,,,,,,,,,,,,,,606248077eb733dc380dc27c,60a7d7fc055cfa8670dc50de,2021-05-21_10h57.00.740,Simcolourproject_2stim_asymm_v5,2020.2.10,Win32,60,60a5f9bf14d0aa2821c4bb84,,,,,752,59.5,107.5,1,0,0,response1disk,,7,1.5,-11.5,1,0,0,rectangle,1.5,-11.5,1,0,0,6,"[65,160,166,256,268,32,100,22,3,254,260,26,187,72,292,105,29,149,296,288]",1.5,-11.5,1,0,0,0,98,98,111,1,,,
,,,,,,,,,,,,,FF,,,,,,,,0.501615,,,,,,,,,,,,,,,,,,,,,,,606248077eb733dc380dc27c,60a7d7fc055cfa8670dc50de,2021-05-21_10h57.00.740,Simcolourproject_2stim_asymm_v5,2020.2.10,Win32,60,60a5f9bf14d0aa2821c4bb84,,,,,2515,38.5,90.5,1,0,0,response1disk,,7,2.5,0.5,1,0,0,rectangle,-130.5,-59.5,1,0,0,2,"[65,160,166,256,268,32,100,22,3,254,260,26,187,72,292,105,29,149,296,288]",1.5,-7.5,1,0,0,0,99,99,35,1,,response5disk_3,rectangle
,,,,,,,,,,,,,FF,,,,,,,,67.176735,,,,,,,,,,,,,,,,,,,,,,,606248077eb733dc380dc27c,60a7d7fc055cfa8670dc50de,2021-05-21_10h57.00.740,Simcolourproject_2stim_asymm_v5,2020.2.10,Win32,60,60a5f9bf14d0aa2821c4bb84,,,,,504,65.5,125.5,1,0,0,response1disk,,7,-12.5,-2.5,1,0,0,rectangle,-12.5,-2.5,1,0,0,6,"[65,160,166,256,268,32,100,22,3,254,260,26,187,72,292,105,29,149,296,288]",-12.5,-2.5,1,0,0,0,100,100,37,1,,,
,,,,,,,,,,,,,FF,,,,,,,,0.869765,,,,,,,,,,,,,,,,,,,,,,,606248077eb733dc380dc27c,60a7d7fc055cfa8670dc50de,2021-05-21_10h57.00.740,Simcolourproject_2stim_asymm_v5,2020.2.10,Win32,60,60a5f9bf14d0aa2821c4bb84,,,,,3439,-36.5,-102.5,1,0,0,response5disk,,3,4.5,-9.5,1,0,0,rectangle,4.5,-9.5,1,0,0,1,"[65,160,166,256,268,32,100,22,3,254,260,26,187,72,292,105,29,149,296,288]",4.5,-9.5,1,0,0,0,101,101,40,1,,,
,,,,,,,,,,,,,FF,,,,,,,,0.902285,,,,,,,,,,,,,,,,,,,,,,,606248077eb733dc380dc27c,60a7d7fc055cfa8670dc50de,2021-05-21_10h57.00.740,Simcolourproject_2stim_asymm_v5,2020.2.10,Win32,60,60a5f9bf14d0aa2821c4bb84,,,,,3042,83.5,-49.5,1,0,0,response3disk,,5,-0.5,-3.5,1,0,0,rectangle,-0.5,-3.5,1,0,0,0,"[65,160,166,256,268,32,100,22,3,254,260,26,187,72,292,105,29,149,296,288]",-0.5,-3.5,1,0,0,0,102,102,33,1,,,
,,,,,,,,,,,,,FF,,,,,,,,1.62019,,,,,,,,,,,,,,,,,,,,,,,606248077eb733dc380dc27c,60a7d7fc055cfa8670dc50de,2021-05-21_10h57.00.740,Simcolourproject_2stim_asymm_v5,2020.2.10,Win32,60,60a5f9bf14d0aa2821c4bb84,,,,,275,114.5,54.5,1,0,0,response1disk,,6,-4.5,-3.5,1,0,0,rectangle,-4.5,-3.5,1,0,0,5,"[65,160,166,256,268,32,100,22,3,254,260,26,187,72,292,105,29,149,296,288]",-4.5,-3.5,1,0,0,0,103,103,23,1,,,
,,,,,,,,,,,,,FF,,,,,,,,1.168705,,,,,,,,,,,,,,,,,,,,,,,606248077eb733dc380dc27c,60a7d7fc055cfa8670dc50de,2021-05-21_10h57.00.740,Simcolourproject_2stim_asymm_v5,2020.2.10,Win32,60,60a5f9bf14d0aa2821c4bb84,,,,,3406,109.5,-46.5,1,0,0,response3disk,,5,-17.5,-2.5,1,0,0,rectangle,-137.5,-62.5,1,0,0,2,"[65,160,166,256,268,32,100,22,3,254,260,26,187,72,292,105,29,149,296,288]",-7.5,1.5,1,0,0,0,104,104,159,1,,response5disk_3,rectangle
,,,,,,,,,,,,,FF,,,,,,,,0.95245,,,,,,,,,,,,,,,,,,,,,,,606248077eb733dc380dc27c,60a7d7fc055cfa8670dc50de,2021-05-21_10h57.00.740,Simcolourproject_2stim_asymm_v5,2020.2.10,Win32,60,60a5f9bf14d0aa2821c4bb84,,,,,1553,60.5,167.5,1,0,0,response1disk,,7,8.5,-1.5,1,0,0,rectangle,8.5,-1.5,1,0,0,2,"[65,160,166,256,268,32,100,22,3,254,260,26,187,72,292,105,29,149,296,288]",8.5,-1.5,1,0,0,0,105,105,115,1,,,
,,,,,,,,,,,,,FF,,,,,,,,0.581235,,,,,,,,,,,,,,,,,,,,,,,606248077eb733dc380dc27c,60a7d7fc055cfa8670dc50de,2021-05-21_10h57.00.740,Simcolourproject_2stim_asymm_v5,2020.2.10,Win32,60,60a5f9bf14d0aa2821c4bb84,,,,,409,48.5,137.5,1,0,0,response1disk,,7,9.5,2.5,1,0,0,rectangle,9.5,2.5,1,0,0,0,"[65,160,166,256,268,32,100,22,3,254,260,26,187,72,292,105,29,149,296,288]",9.5,2.5,1,0,0,0,106,106,158,1,,,
,,,,,,,,,,,,,FF,,,,,,,,1.1073,,,,,,,,,,,,,,,,,,,,,,,606248077eb733dc380dc27c,60a7d7fc055cfa8670dc50de,2021-05-21_10h57.00.740,Simcolourproject_2stim_asymm_v5,2020.2.10,Win32,60,60a5f9bf14d0aa2821c4bb84,,,,,1819,-128.5,-56.5,1,0,0,response5disk,,7,2.5,5.5,1,0,0,rectangle,2.5,5.5,1,0,0,0,"[65,160,166,256,268,32,100,22,3,254,260,26,187,72,292,105,29,149,296,288]",2.5,5.5,1,0,0,0,107,107,44,1,,,
,,,,,,,,,,,,,FF,,,,,,,,4.49165,,,,,,,,,,,,,,,,,,,,,,,606248077eb733dc380dc27c,60a7d7fc055cfa8670dc50de,2021-05-21_10h57.00.740,Simcolourproject_2stim_asymm_v5,2020.2.10,Win32,60,60a5f9bf14d0aa2821c4bb84,,,,,223,79.5,125.5,1,0,0,response1disk,,7,20.5,-6.5,1,0,0,rectangle,20.5,-6.5,1,0,0,2,"[65,160,166,256,268,32,100,22,3,254,260,26,187,72,292,105,29,149,296,288]",20.5,-6.5,1,0,0,0,108,108,106,1,,,
,,,,,,,,,,,,,FF,,,,,,,,0.602945,,,,,,,,,,,,,,,,,,,,,,,606248077eb733dc380dc27c,60a7d7fc055cfa8670dc50de,2021-05-21_10h57.00.740,Simcolourproject_2stim_asymm_v5,2020.2.10,Win32,60,60a5f9bf14d0aa2821c4bb84,,,,,142,50.5,114.5,1,0,0,response1disk,,7,-0.5,0.5,1,0,0,rectangle,-0.5,0.5,1,0,0,3,"[65,160,166,256,268,32,100,22,3,254,260,26,187,72,292,105,29,149,296,288]",-0.5,0.5,1,0,0,0,109,109,57,1,,,
,,,,,,,,,,,,,FF,,,,,,,,0.80288,,,,,,,,,,,,,,,,,,,,,,,606248077eb733dc380dc27c,60a7d7fc055cfa8670dc50de,2021-05-21_10h57.00.740,Simcolourproject_2stim_asymm_v5,2020.2.10,Win32,60,60a5f9bf14d0aa2821c4bb84,,,,,3070,63.5,152.5,1,0,0,response1disk,,7,-10.5,-1.5,1,0,0,rectangle,-10.5,-1.5,1,0,0,7,"[65,160,166,256,268,32,100,22,3,254,260,26,187,72,292,105,29,149,296,288]",-10.5,-1.5,1,0,0,0,110,110,17,1,,,
,,,,,,,,,,,,,FF,,,,,,,,1.59006,,,,,,,,,,,,,,,,,,,,,,,606248077eb733dc380dc27c,60a7d7fc055cfa8670dc50de,2021-05-21_10h57.00.740,Simcolourproject_2stim_asymm_v5,2020.2.10,Win32,60,60a5f9bf14d0aa2821c4bb84,,,,,1541,120.5,-60.5,1,0,0,response3disk,,5,-9.5,1.5,1,0,0,rectangle,-9.5,1.5,1,0,0,7,"[65,160,166,256,268,32,100,22,3,254,260,26,187,72,292,105,29,149,296,288]",-9.5,1.5,1,0,0,0,111,111,149,1,,,
,,,,,,,,,,,,,FF,,,,,,,,0.903175,,,,,,,,,,,,,,,,,,,,,,,606248077eb733dc380dc27c,60a7d7fc055cfa8670dc50de,2021-05-21_10h57.00.740,Simcolourproject_2stim_asymm_v5,2020.2.10,Win32,60,60a5f9bf14d0aa2821c4bb84,,,,,2065,48.5,128.5,1,0,0,response1disk,,7,19.5,1.5,1,0,0,rectangle,19.5,1.5,1,0,0,3,"[65,160,166,256,268,32,100,22,3,254,260,26,187,72,292,105,29,149,296,288]",19.5,1.5,1,0,0,0,112,112,92,1,,,
,,,,,,,,,,,,,FF,,,,,,,,1.06675,,,,,,,,,,,,,,,,,,,,,,,606248077eb733dc380dc27c,60a7d7fc055cfa8670dc50de,2021-05-21_10h57.00.740,Simcolourproject_2stim_asymm_v5,2020.2.10,Win32,60,60a5f9bf14d0aa2821c4bb84,,,,,631,-144.5,-58.5,1,0,0,response5disk,,7,-2.5,0.5,1,0,0,rectangle,-2.5,0.5,1,0,0,2,"[65,160,166,256,268,32,100,22,3,254,260,26,187,72,292,105,29,149,296,288]",-2.5,0.5,1,0,0,0,113,113,154,1,,,
,,,,,,,,,,,,,FF,,,,,,,,0.786175,,,,,,,,,,,,,,,,,,,,,,,606248077eb733dc380dc27c,60a7d7fc055cfa8670dc50de,2021-05-21_10h57.00.740,Simcolourproject_2stim_asymm_v5,2020.2.10,Win32,60,60a5f9bf14d0aa2821c4bb84,,,,,1307,-110.5,-39.5,1,0,0,response5disk,,7,-6.5,-3.5,1,0,0,rectangle,-6.5,-3.5,1,0,0,5,"[65,160,166,256,268,32,100,22,3,254,260,26,187,72,292,105,29,149,296,288]",-6.5,-3.5,1,0,0,0,114,114,109,1,,,
,,,,,,,,,,,,,FF,,,,,,,,1.207265,,,,,,,,,,,,,,,,,,,,,,,606248077eb733dc380dc27c,60a7d7fc055cfa8670dc50de,2021-05-21_10h57.00.740,Simcolourproject_2stim_asymm_v5,2020.2.10,Win32,60,60a5f9bf14d0aa2821c4bb84,,,,,2108,124.5,48.5,1,0,0,response1disk,,6,-9.5,1.5,1,0,0,rectangle,-9.5,1.5,1,0,0,5,"[65,160,166,256,268,32,100,22,3,254,260,26,187,72,292,105,29,149,296,288]",-9.5,1.5,1,0,0,0,115,115,153,1,,,
,,,,,,,,,,,,,FF,,,,,,,,1.470425,,,,,,,,,,,,,,,,,,,,,,,606248077eb733dc380dc27c,60a7d7fc055cfa8670dc50de,2021-05-21_10h57.00.740,Simcolourproject_2stim_asymm_v5,2020.2.10,Win32,60,60a5f9bf14d0aa2821c4bb84,,,,,2842,75.5,110.5,1,0,0,response1disk,,7,7.5,3.5,1,0,0,rectangle,7.5,3.5,1,0,0,7,"[65,160,166,256,268,32,100,22,3,254,260,26,187,72,292,105,29,149,296,288]",7.5,3.5,1,0,0,0,116,116,6,1,,,
,,,,,,,,,,,,,FF,,,,,,,,1.18714,,,,,,,,,,,,,,,,,,,,,,,606248077eb733dc380dc27c,60a7d7fc055cfa8670dc50de,2021-05-21_10h57.00.740,Simcolourproject_2stim_asymm_v5,2020.2.10,Win32,60,60a5f9bf14d0aa2821c4bb84,,,,,3387,38.5,-111.5,1,0,0,response3disk,,4,-20.5,8.5,1,0,0,rectangle,-20.5,8.5,1,0,0,0,"[65,160,166,256,268,32,100,22,3,254,260,26,187,72,292,105,29,149,296,288]",-20.5,8.5,1,0,0,0,117,117,136,1,,,
,,,,,,,,,,,,,FF,,,,,,,,0.9364,,,,,,,,,,,,,,,,,,,,,,,606248077eb733dc380dc27c,60a7d7fc055cfa8670dc50de,2021-05-21_10h57.00.740,Simcolourproject_2stim_asymm_v5,2020.2.10,Win32,60,60a5f9bf14d0aa2821c4bb84,,,,,3063,59.5,132.5,1,0,0,response1disk,,7,-5.5,-2.5,1,0,0,rectangle,-5.5,-2.5,1,0,0,2,"[65,160,166,256,268,32,100,22,3,254,260,26,187,72,292,105,29,149,296,288]",-5.5,-2.5,1,0,0,0,118,118,29,1,,,
,,,,,,,,,,,,,FF,,,,,,,,0.901505,,,,,,,,,,,,,,,,,,,,,,,606248077eb733dc380dc27c,60a7d7fc055cfa8670dc50de,2021-05-21_10h57.00.740,Simcolourproject_2stim_asymm_v5,2020.2.10,Win32,60,60a5f9bf14d0aa2821c4bb84,,,,,2721,-93.5,-65.5,1,0,0,response5disk,,7,-9.5,-3.5,1,0,0,rectangle,-9.5,-3.5,1,0,0,1,"[65,160,166,256,268,32,100,22,3,254,260,26,187,72,292,105,29,149,296,288]",-9.5,-3.5,1,0,0,0,119,119,15,1,,,
,,,,,,,,,,,,,FF,,,,,,,,0.85163,,,,,,,,,,,,,,,,,,,,,,,606248077eb733dc380dc27c,60a7d7fc055cfa8670dc50de,2021-05-21_10h57.00.740,Simcolourproject_2stim_asymm_v5,2020.2.10,Win32,60,60a5f9bf14d0aa2821c4bb84,,,,,2601,-30.5,134.5,1,0,0,response7disk,,0,-12.5,-6.5,1,0,0,rectangle,-12.5,-6.5,1,0,0,6,"[65,160,166,256,268,32,100,22,3,254,260,26,187,72,292,105,29,149,296,288]",-12.5,-6.5,1,0,0,0,120,120,60,1,,,
,,,,,,,,,,,,,FF,,,,,,,,0.873925,,,,,,,,,,,,,,,,,,,,,,,606248077eb733dc380dc27c,60a7d7fc055cfa8670dc50de,2021-05-21_10h57.00.740,Simcolourproject_2stim_asymm_v5,2020.2.10,Win32,60,60a5f9bf14d0aa2821c4bb84,,,,,1887,-100.5,-57.5,1,0,0,response5disk,,0,-19.5,1.5,1,0,0,rectangle,-19.5,1.5,1,0,0,5,"[65,160,166,256,268,32,100,22,3,254,260,26,187,72,292,105,29,149,296,288]",-19.5,1.5,1,0,0,0,121,121,78,1,,,
,,,,,,,,,,,,,FF,,,,,,,,0.73834,,,,,,,,,,,,,,,,,,,,,,,606248077eb733dc380dc27c,60a7d7fc055cfa8670dc50de,2021-05-21_10h57.00.740,Simcolourproject_2stim_asymm_v5,2020.2.10,Win32,60,60a5f9bf14d0aa2821c4bb84,,,,,3895,45.5,120.5,1,0,0,response1disk,,7,0.5,0.5,1,0,0,rectangle,0.5,0.5,1,0,0,5,"[65,160,166,256,268,32,100,22,3,254,260,26,187,72,292,105,29,149,296,288]",0.5,0.5,1,0,0,0,122,122,2,1,,,
,,,,,,,,,,,,,FF,,,,,,,,0.67134,,,,,,,,,,,,,,,,,,,,,,,606248077eb733dc380dc27c,60a7d7fc055cfa8670dc50de,2021-05-21_10h57.00.740,Simcolourproject_2stim_asymm_v5,2020.2.10,Win32,60,60a5f9bf14d0aa2821c4bb84,,,,,1083,41.5,111.5,1,0,0,response1disk,,7,-8.5,10.5,1,0,0,rectangle,-8.5,10.5,1,0,0,1,"[65,160,166,256,268,32,100,22,3,254,260,26,187,72,292,105,29,149,296,288]",-8.5,10.5,1,0,0,0,123,123,124,1,,,
,,,,,,,,,,,,,FF,,,,,,,,1.553385,,,,,,,,,,,,,,,,,,,,,,,606248077eb733dc380dc27c,60a7d7fc055cfa8670dc50de,2021-05-21_10h57.00.740,Simcolourproject_2stim_asymm_v5,2020.2.10,Win32,60,60a5f9bf14d0aa2821c4bb84,,,,,94,-124.5,61.5,1,0,0,response7disk,,1,5.5,-2.5,1,0,0,rectangle,5.5,-2.5,1,0,0,0,"[65,160,166,256,268,32,100,22,3,254,260,26,187,72,292,105,29,149,296,288]",5.5,-2.5,1,0,0,0,124,124,13,1,,,
,,,,,,,,,,,,,FF,,,,,,,,121.586245,,,,,,,,,,,,,,,,,,,,,,,606248077eb733dc380dc27c,60a7d7fc055cfa8670dc50de,2021-05-21_10h57.00.740,Simcolourproject_2stim_asymm_v5,2020.2.10,Win32,60,60a5f9bf14d0aa2821c4bb84,,,,,574,58.5,120.5,1,0,0,response1disk,,7,-12.5,-3.5,1,0,0,rectangle,-12.5,-3.5,1,0,0,4,"[65,160,166,256,268,32,100,22,3,254,260,26,187,72,292,105,29,149,296,288]",-12.5,-3.5,1,0,0,0,125,125,61,1,,,
,,,,,,,,,,,,,FF,,,,,,,,0.819585,,,,,,,,,,,,,,,,,,,,,,,606248077eb733dc380dc27c,60a7d7fc055cfa8670dc50de,2021-05-21_10h57.00.740,Simcolourproject_2stim_asymm_v5,2020.2.10,Win32,60,60a5f9bf14d0aa2821c4bb84,,,,,3712,-52.5,-105.5,1,0,0,response5disk,,3,-14.5,-8.5,1,0,0,rectangle,-14.5,-8.5,1,0,0,0,"[65,160,166,256,268,32,100,22,3,254,260,26,187,72,292,105,29,149,296,288]",-14.5,-8.5,1,0,0,0,126,126,135,1,,,
,,,,,,,,,,,,,FF,,,,,,,,1.371495,,,,,,,,,,,,,,,,,,,,,,,606248077eb733dc380dc27c,60a7d7fc055cfa8670dc50de,2021-05-21_10h57.00.740,Simcolourproject_2stim_asymm_v5,2020.2.10,Win32,60,60a5f9bf14d0aa2821c4bb84,,,,,1466,77.5,-142.5,1,0,0,response3disk,,4,-2.5,-5.5,1,0,0,rectangle,-2.5,-5.5,1,0,0,3,"[65,160,166,256,268,32,100,22,3,254,260,26,187,72,292,105,29,149,296,288]",-2.5,-5.5,1,0,0,0,127,127,81,1,,,
,,,,,,,,,,,,,FF,,,,,,,,1.035425,,,,,,,,,,,,,,,,,,,,,,,606248077eb733dc380dc27c,60a7d7fc055cfa8670dc50de,2021-05-21_10h57.00.740,Simcolourproject_2stim_asymm_v5,2020.2.10,Win32,60,60a5f9bf14d0aa2821c4bb84,,,,,3562,95.5,-66.5,1,0,0,response3disk,,5,-4.5,6.5,1,0,0,rectangle,-4.5,6.5,1,0,0,4,"[65,160,166,256,268,32,100,22,3,254,260,26,187,72,292,105,29,149,296,288]",-4.5,6.5,1,0,0,0,128,128,41,1,,,
,,,,,,,,,,,,,FF,,,,,,,,1.00204,,,,,,,,,,,,,,,,,,,,,,,606248077eb733dc380dc27c,60a7d7fc055cfa8670dc50de,2021-05-21_10h57.00.740,Simcolourproject_2stim_asymm_v5,2020.2.10,Win32,60,60a5f9bf14d0aa2821c4bb84,,,,,2348,79.5,110.5,1,0,0,response1disk,,7,6.5,-3.5,1,0,0,rectangle,6.5,-3.5,1,0,0,3,"[65,160,166,256,268,32,100,22,3,254,260,26,187,72,292,105,29,149,296,288]",6.5,-3.5,1,0,0,0,129,129,9,1,,,
,,,,,,,,,,,,,FF,,,,,,,,0.68247,,,,,,,,,,,,,,,,,,,,,,,606248077eb733dc380dc27c,60a7d7fc055cfa8670dc50de,2021-05-21_10h57.00.740,Simcolourproject_2stim_asymm_v5,2020.2.10,Win32,60,60a5f9bf14d0aa2821c4bb84,,,,,746,65.5,108.5,1,0,0,response1disk,,7,9.5,-2.5,1,0,0,rectangle,9.5,-2.5,1,0,0,6,"[65,160,166,256,268,32,100,22,3,254,260,26,187,72,292,105,29,149,296,288]",9.5,-2.5,1,0,0,0,130,130,113,1,,,
,,,,,,,,,,,,,FF,,,,,,,,0.602185,,,,,,,,,,,,,,,,,,,,,,,606248077eb733dc380dc27c,60a7d7fc055cfa8670dc50de,2021-05-21_10h57.00.740,Simcolourproject_2stim_asymm_v5,2020.2.10,Win32,60,60a5f9bf14d0aa2821c4bb84,,,,,2053,53.5,124.5,1,0,0,response1disk,,7,5.5,2.5,1,0,0,rectangle,5.5,2.5,1,0,0,4,"[65,160,166,256,268,32,100,22,3,254,260,26,187,72,292,105,29,149,296,288]",5.5,2.5,1,0,0,0,131,131,138,1,,,
,,,,,,,,,,,,,FF,,,,,,,,0.77286,,,,,,,,,,,,,,,,,,,,,,,606248077eb733dc380dc27c,60a7d7fc055cfa8670dc50de,2021-05-21_10h57.00.740,Simcolourproject_2stim_asymm_v5,2020.2.10,Win32,60,60a5f9bf14d0aa2821c4bb84,,,,,189,-74.5,-131.5,1,0,0,response5disk,,3,-14.5,7.5,1,0,0,rectangle,-14.5,7.5,1,0,0,0,"[65,160,166,256,268,32,100,22,3,254,260,26,187,72,292,105,29,149,296,288]",-14.5,7.5,1,0,0,0,132,132,30,1,,,
,,,,,,,,,,,,,FF,,,,,,,,0.703395,,,,,,,,,,,,,,,,,,,,,,,606248077eb733dc380dc27c,60a7d7fc055cfa8670dc50de,2021-05-21_10h57.00.740,Simcolourproject_2stim_asymm_v5,2020.2.10,Win32,60,60a5f9bf14d0aa2821c4bb84,,,,,528,-49.5,-112.5,1,0,0,response5disk,,3,-2.5,-0.5,1,0,0,rectangle,-2.5,-0.5,1,0,0,2,"[65,160,166,256,268,32,100,22,3,254,260,26,187,72,292,105,29,149,296,288]",-2.5,-0.5,1,0,0,0,133,133,130,1,,,
,,,,,,,,,,,,,FF,,,,,,,,0.89836,,,,,,,,,,,,,,,,,,,,,,,606248077eb733dc380dc27c,60a7d7fc055cfa8670dc50de,2021-05-21_10h57.00.740,Simcolourproject_2stim_asymm_v5,2020.2.10,Win32,60,60a5f9bf14d0aa2821c4bb84,,,,,2204,78.5,147.5,1,0,0,response1disk,,7,11.5,-13.5,1,0,0,rectangle,11.5,-13.5,1,0,0,2,"[65,160,166,256,268,32,100,22,3,254,260,26,187,72,292,105,29,149,296,288]",11.5,-13.5,1,0,0,0,134,134,103,1,,,
,,,,,,,,,,,,,FF,,,,,,,,0.652235,,,,,,,,,,,,,,,,,,,,,,,606248077eb733dc380dc27c,60a7d7fc055cfa8670dc50de,2021-05-21_10h57.00.740,Simcolourproject_2stim_asymm_v5,2020.2.10,Win32,60,60a5f9bf14d0aa2821c4bb84,,,,,1179,88.5,134.5,1,0,0,response1disk,,7,0.5,-8.5,1,0,0,rectangle,0.5,-8.5,1,0,0,5,"[65,160,166,256,268,32,100,22,3,254,260,26,187,72,292,105,29,149,296,288]",0.5,-8.5,1,0,0,0,135,135,156,1,,,
,,,,,,,,,,,,,FF,,,,,,,,0.901115,,,,,,,,,,,,,,,,,,,,,,,606248077eb733dc380dc27c,60a7d7fc055cfa8670dc50de,2021-05-21_10h57.00.740,Simcolourproject_2stim_asymm_v5,2020.2.10,Win32,60,60a5f9bf14d0aa2821c4bb84,,,,,1463,60.5,-120.5,1,0,0,response3disk,,4,0.5,-2.5,1,0,0,rectangle,0.5,-2.5,1,0,0,0,"[65,160,166,256,268,32,100,22,3,254,260,26,187,72,292,105,29,149,296,288]",0.5,-2.5,1,0,0,0,136,136,25,1,,,
,,,,,,,,,,,,,FF,,,,,,,,0.93949,,,,,,,,,,,,,,,,,,,,,,,606248077eb733dc380dc27c,60a7d7fc055cfa8670dc50de,2021-05-21_10h57.00.740,Simcolourproject_2stim_asymm_v5,2020.2.10,Win32,60,60a5f9bf14d0aa2821c4bb84,,,,,876,54.5,145.5,1,0,0,response1disk,,7,-1.5,-0.5,1,0,0,rectangle,-1.5,-0.5,1,0,0,4,"[65,160,166,256,268,32,100,22,3,254,260,26,187,72,292,105,29,149,296,288]",-1.5,-0.5,1,0,0,0,137,137,58,1,,,
,,,,,,,,,,,,,FF,,,,,,,,0.6848,,,,,,,,,,,,,,,,,,,,,,,606248077eb733dc380dc27c,60a7d7fc055cfa8670dc50de,2021-05-21_10h57.00.740,Simcolourproject_2stim_asymm_v5,2020.2.10,Win32,60,60a5f9bf14d0aa2821c4bb84,,,,,3234,51.5,120.5,1,0,0,response1disk,,7,-2.5,3.5,1,0,0,rectangle,-2.5,3.5,1,0,0,1,"[65,160,166,256,268,32,100,22,3,254,260,26,187,72,292,105,29,149,296,288]",-2.5,3.5,1,0,0,0,138,138,47,1,,,
,,,,,,,,,,,,,FF,,,,,,,,0.854225,,,,,,,,,,,,,,,,,,,,,,,606248077eb733dc380dc27c,60a7d7fc055cfa8670dc50de,2021-05-21_10h57.00.740,Simcolourproject_2stim_asymm_v5,2020.2.10,Win32,60,60a5f9bf14d0aa2821c4bb84,,,,,4359,-81.5,-124.5,1,0,0,response5disk,,3,-4.5,13.5,1,0,0,rectangle,-4.5,13.5,1,0,0,1,"[65,160,166,256,268,32,100,22,3,254,260,26,187,72,292,105,29,149,296,288]",-4.5,13.5,1,0,0,0,139,139,48,1,,,
,,,,,,,,,,,,,FF,,,,,,,,0.548985,,,,,,,,,,,,,,,,,,,,,,,606248077eb733dc380dc27c,60a7d7fc055cfa8670dc50de,2021-05-21_10h57.00.740,Simcolourproject_2stim_asymm_v5,2020.2.10,Win32,60,60a5f9bf14d0aa2821c4bb84,,,,,2679,47.5,128.5,1,0,0,response1disk,,7,6.5,-6.5,1,0,0,rectangle,6.5,-6.5,1,0,0,7,"[65,160,166,256,268,32,100,22,3,254,260,26,187,72,292,105,29,149,296,288]",6.5,-6.5,1,0,0,0,140,140,16,1,,,
,,,,,,,,,,,,,FF,,,,,,,,1.50544,,,,,,,,,,,,,,,,,,,,,,,606248077eb733dc380dc27c,60a7d7fc055cfa8670dc50de,2021-05-21_10h57.00.740,Simcolourproject_2stim_asymm_v5,2020.2.10,Win32,60,60a5f9bf14d0aa2821c4bb84,,,,,1038,59.5,-121.5,1,0,0,response3disk,,4,-17.5,-0.5,1,0,0,rectangle,-17.5,-0.5,1,0,0,5,"[65,160,166,256,268,32,100,22,3,254,260,26,187,72,292,105,29,149,296,288]",-17.5,-0.5,1,0,0,0,141,141,112,1,,,
,,,,,,,,,,,,,FF,,,,,,,,1.36588,,,,,,,,,,,,,,,,,,,,,,,606248077eb733dc380dc27c,60a7d7fc055cfa8670dc50de,2021-05-21_10h57.00.740,Simcolourproject_2stim_asymm_v5,2020.2.10,Win32,60,60a5f9bf14d0aa2821c4bb84,,,,,1228,124.5,29.5,1,0,0,response1disk,,6,11.5,0.5,1,0,0,rectangle,11.5,0.5,1,0,0,7,"[65,160,166,256,268,32,100,22,3,254,260,26,187,72,292,105,29,149,296,288]",11.5,0.5,1,0,0,0,142,142,53,1,,,
,,,,,,,,,,,,,FF,,,,,,,,0.823065,,,,,,,,,,,,,,,,,,,,,,,606248077eb733dc380dc27c,60a7d7fc055cfa8670dc50de,2021-05-21_10h57.00.740,Simcolourproject_2stim_asymm_v5,2020.2.10,Win32,60,60a5f9bf14d0aa2821c4bb84,,,,,1024,48.5,108.5,1,0,0,response1disk,,7,-24.5,-1.5,1,0,0,rectangle,-24.5,-1.5,1,0,0,6,"[65,160,166,256,268,32,100,22,3,254,260,26,187,72,292,105,29,149,296,288]",-24.5,-1.5,1,0,0,0,143,143,91,1,,,
,,,,,,,,,,,,,FF,,,,,,,,0.61939,,,,,,,,,,,,,,,,,,,,,,,606248077eb733dc380dc27c,60a7d7fc055cfa8670dc50de,2021-05-21_10h57.00.740,Simcolourproject_2stim_asymm_v5,2020.2.10,Win32,60,60a5f9bf14d0aa2821c4bb84,,,,,2815,48.5,106.5,1,0,0,response1disk,,7,-1.5,9.5,1,0,0,rectangle,-1.5,9.5,1,0,0,2,"[65,160,166,256,268,32,100,22,3,254,260,26,187,72,292,105,29,149,296,288]",-1.5,9.5,1,0,0,0,144,144,122,1,,,
,,,,,,,,,,,,,FF,,,,,,,,1.155425,,,,,,,,,,,,,,,,,,,,,,,606248077eb733dc380dc27c,60a7d7fc055cfa8670dc50de,2021-05-21_10h57.00.740,Simcolourproject_2stim_asymm_v5,2020.2.10,Win32,60,60a5f9bf14d0aa2821c4bb84,,,,,2779,92.5,-61.5,1,0,0,response3disk,,5,-9.5,6.5,1,0,0,rectangle,-9.5,6.5,1,0,0,7,"[65,160,166,256,268,32,100,22,3,254,260,26,187,72,292,105,29,149,296,288]",-9.5,6.5,1,0,0,0,145,145,123,1,,,
,,,,,,,,,,,,,FF,,,,,,,,0.91463,,,,,,,,,,,,,,,,,,,,,,,606248077eb733dc380dc27c,60a7d7fc055cfa8670dc50de,2021-05-21_10h57.00.740,Simcolourproject_2stim_asymm_v5,2020.2.10,Win32,60,60a5f9bf14d0aa2821c4bb84,,,,,2778,-69.5,-117.5,1,0,0,response5disk,,3,-13.5,0.5,1,0,0,rectangle,-13.5,0.5,1,0,0,4,"[65,160,166,256,268,32,100,22,3,254,260,26,187,72,292,105,29,149,296,288]",-13.5,0.5,1,0,0,0,146,146,21,1,,,
,,,,,,,,,,,,,FF,,,,,,,,1.281835,,,,,,,,,,,,,,,,,,,,,,,606248077eb733dc380dc27c,60a7d7fc055cfa8670dc50de,2021-05-21_10h57.00.740,Simcolourproject_2stim_asymm_v5,2020.2.10,Win32,60,60a5f9bf14d0aa2821c4bb84,,,,,3215,53.5,91.5,1,0,0,response1disk,,7,-2.5,3.5,1,0,0,rectangle,-2.5,3.5,1,0,0,7,"[65,160,166,256,268,32,100,22,3,254,260,26,187,72,292,105,29,149,296,288]",-2.5,3.5,1,0,0,0,147,147,157,1,,,
,,,,,,,,,,,,,FF,,,,,,,,0.7892,,,,,,,,,,,,,,,,,,,,,,,606248077eb733dc380dc27c,60a7d7fc055cfa8670dc50de,2021-05-21_10h57.00.740,Simcolourproject_2stim_asymm_v5,2020.2.10,Win32,60,60a5f9bf14d0aa2821c4bb84,,,,,2030,-64.5,-130.5,1,0,0,response5disk,,3,-2.5,-1.5,1,0,0,rectangle,-121.5,50.5,1,0,0,1,"[65,160,166,256,268,32,100,22,3,254,260,26,187,72,292,105,29,149,296,288]",-14.5,0.5,1,0,0,0,148,148,73,1,,response7disk_3,rectangle
,,,,,,,,,,,,,FF,,,,,,,,1.31946,,,,,,,,,,,,,,,,,,,,,,,606248077eb733dc380dc27c,60a7d7fc055cfa8670dc50de,2021-05-21_10h57.00.740,Simcolourproject_2stim_asymm_v5,2020.2.10,Win32,60,60a5f9bf14d0aa2821c4bb84,,,,,3014,112.5,-57.5,1,0,0,response3disk,,5,0.5,-3.5,1,0,0,rectangle,0.5,-3.5,1,0,0,2,"[65,160,166,256,268,32,100,22,3,254,260,26,187,72,292,105,29,149,296,288]",0.5,-3.5,1,0,0,0,149,149,66,1,,,
,,,,,,,,,,,,,FF,,,,,,,,1.05215,,,,,,,,,,,,,,,,,,,,,,,606248077eb733dc380dc27c,60a7d7fc055cfa8670dc50de,2021-05-21_10h57.00.740,Simcolourproject_2stim_asymm_v5,2020.2.10,Win32,60,60a5f9bf14d0aa2821c4bb84,,,,,1308,75.5,-129.5,1,0,0,response3disk,,4,-6.5,5.5,1,0,0,rectangle,-6.5,5.5,1,0,0,5,"[65,160,166,256,268,32,100,22,3,254,260,26,187,72,292,105,29,149,296,288]",-6.5,5.5,1,0,0,0,150,150,125,1,,,
,,,,,,,,,,,,,FF,,,,,,,,0.70157,,,,,,,,,,,,,,,,,,,,,,,606248077eb733dc380dc27c,60a7d7fc055cfa8670dc50de,2021-05-21_10h57.00.740,Simcolourproject_2stim_asymm_v5,2020.2.10,Win32,60,60a5f9bf14d0aa2821c4bb84,,,,,3508,-48.5,-132.5,1,0,0,response5disk,,3,-6.5,0.5,1,0,0,rectangle,-6.5,0.5,1,0,0,3,"[65,160,166,256,268,32,100,22,3,254,260,26,187,72,292,105,29,149,296,288]",-6.5,0.5,1,0,0,0,151,151,45,1,,,
,,,,,,,,,,,,,FF,,,,,,,,1.0548,,,,,,,,,,,,,,,,,,,,,,,606248077eb733dc380dc27c,60a7d7fc055cfa8670dc50de,2021-05-21_10h57.00.740,Simcolourproject_2stim_asymm_v5,2020.2.10,Win32,60,60a5f9bf14d0aa2821c4bb84,,,,,4101,62.5,-123.5,1,0,0,response3disk,,4,-4.5,-1.5,1,0,0,rectangle,-4.5,-1.5,1,0,0,2,"[65,160,166,256,268,32,100,22,3,254,260,26,187,72,292,105,29,149,296,288]",-4.5,-1.5,1,0,0,0,152,152,51,1,,,
,,,,,,,,,,,,,FF,,,,,,,,1.252515,,,,,,,,,,,,,,,,,,,,,,,606248077eb733dc380dc27c,60a7d7fc055cfa8670dc50de,2021-05-21_10h57.00.740,Simcolourproject_2stim_asymm_v5,2020.2.10,Win32,60,60a5f9bf14d0aa2821c4bb84,,,,,4363,-118.5,-42.5,1,0,0,response5disk,,4,-11.5,-2.5,1,0,0,rectangle,-11.5,-2.5,1,0,0,0,"[65,160,166,256,268,32,100,22,3,254,260,26,187,72,292,105,29,149,296,288]",-11.5,-2.5,1,0,0,0,153,153,101,1,,,
,,,,,,,,,,,,,FF,,,,,,,,1.318805,,,,,,,,,,,,,,,,,,,,,,,606248077eb733dc380dc27c,60a7d7fc055cfa8670dc50de,2021-05-21_10h57.00.740,Simcolourproject_2stim_asymm_v5,2020.2.10,Win32,60,60a5f9bf14d0aa2821c4bb84,,,,,3370,65.5,106.5,1,0,0,response1disk,,7,-7.5,-4.5,1,0,0,rectangle,-7.5,-4.5,1,0,0,3,"[65,160,166,256,268,32,100,22,3,254,260,26,187,72,292,105,29,149,296,288]",-7.5,-4.5,1,0,0,0,154,154,49,1,,,
,,,,,,,,,,,,,FF,,,,,,,,0.80274,,,,,,,,,,,,,,,,,,,,,,,606248077eb733dc380dc27c,60a7d7fc055cfa8670dc50de,2021-05-21_10h57.00.740,Simcolourproject_2stim_asymm_v5,2020.2.10,Win32,60,60a5f9bf14d0aa2821c4bb84,,,,,2253,38.5,121.5,1,0,0,response1disk,,7,3.5,-5.5,1,0,0,rectangle,3.5,-5.5,1,0,0,7,"[65,160,166,256,268,32,100,22,3,254,260,26,187,72,292,105,29,149,296,288]",3.5,-5.5,1,0,0,0,155,155,8,1,,,
,,,,,,,,,,,,,FF,,,,,,,,0.75251,,,,,,,,,,,,,,,,,,,,,,,606248077eb733dc380dc27c,60a7d7fc055cfa8670dc50de,2021-05-21_10h57.00.740,Simcolourproject_2stim_asymm_v5,2020.2.10,Win32,60,60a5f9bf14d0aa2821c4bb84,,,,,2048,136.5,43.5,1,0,0,response1disk,,6,-6.5,-6.5,1,0,0,rectangle,-6.5,-6.5,1,0,0,3,"[65,160,166,256,268,32,100,22,3,254,260,26,187,72,292,105,29,149,296,288]",-6.5,-6.5,1,0,0,0,156,156,68,1,,,
,,,,,,,,,,,,,FF,,,,,,,,0.768495,,,,,,,,,,,,,,,,,,,,,,,606248077eb733dc380dc27c,60a7d7fc055cfa8670dc50de,2021-05-21_10h57.00.740,Simcolourproject_2stim_asymm_v5,2020.2.10,Win32,60,60a5f9bf14d0aa2821c4bb84,,,,,1832,64.5,126.5,1,0,0,response1disk,,7,-6.5,-2.5,1,0,0,rectangle,-6.5,-2.5,1,0,0,5,"[65,160,166,256,268,32,100,22,3,254,260,26,187,72,292,105,29,149,296,288]",-6.5,-2.5,1,0,0,0,157,157,55,1,,,
,,,,,,,,,,,,,FF,,,,,,,,1.068935,,,,,,,,,,,,,,,,,,,,,,,606248077eb733dc380dc27c,60a7d7fc055cfa8670dc50de,2021-05-21_10h57.00.740,Simcolourproject_2stim_asymm_v5,2020.2.10,Win32,60,60a5f9bf14d0aa2821c4bb84,,,,,431,95.5,-59.5,1,0,0,response3disk,,5,-10.5,-7.5,1,0,0,rectangle,-10.5,-7.5,1,0,0,1,"[65,160,166,256,268,32,100,22,3,254,260,26,187,72,292,105,29,149,296,288]",-10.5,-7.5,1,0,0,0,158,158,119,1,,,
,,,,,,,,,,,,,FF,,,,,,,,0.834885,,,,,,,,,,,,,,,,,,,,,,,606248077eb733dc380dc27c,60a7d7fc055cfa8670dc50de,2021-05-21_10h57.00.740,Simcolourproject_2stim_asymm_v5,2020.2.10,Win32,60,60a5f9bf14d0aa2821c4bb84,,,,,4295,-48.5,-119.5,1,0,0,response5disk,,3,-6.5,14.5,1,0,0,rectangle,-90.5,40.5,1,0,0,1,"[65,160,166,256,268,32,100,22,3,254,260,26,187,72,292,105,29,149,296,288]",-12.5,-10.5,1,0,0,0,159,159,100,1,,response7disk_3,rectangle
,,,,,,,,,,,,,FF,,,,,,,,1.66957,,,,,,,,,,,,,,,,,,,,,,,606248077eb733dc380dc27c,60a7d7fc055cfa8670dc50de,2021-05-21_10h57.00.740,Simcolourproject_2stim_asymm_v5,2020.2.10,Win32,60,60a5f9bf14d0aa2821c4bb84,,,,,3313,59.5,131.5,1,0,0,response1disk,,7,-7.5,-2.5,1,0,0,rectangle,-7.5,-2.5,1,0,0,1,"[65,160,166,256,268,32,100,22,3,254,260,26,187,72,292,105,29,149,296,288]",-7.5,-2.5,1,0,0,0,160,160,90,1,,,
,,,,,,,,,,,,,FF,,,,,,,,0.769525,,,,,,,,,,,,,,,,,,,,,,,606248077eb733dc380dc27c,60a7d7fc055cfa8670dc50de,2021-05-21_10h57.00.740,Simcolourproject_2stim_asymm_v5,2020.2.10,Win32,60,60a5f9bf14d0aa2821c4bb84,,,,,3083,62.5,120.5,1,0,0,response1disk,,7,-0.5,0.5,1,0,0,rectangle,-0.5,0.5,1,0,0,5,"[65,160,166,256,268,32,100,22,3,254,260,26,187,72,292,105,29,149,296,288]",-0.5,0.5,1,0,0,1,0,161,50,1,,,
,,,,,,,,,,,,,FF,,,,,,,,0.95176,,,,,,,,,,,,,,,,,,,,,,,606248077eb733dc380dc27c,60a7d7fc055cfa8670dc50de,2021-05-21_10h57.00.740,Simcolourproject_2stim_asymm_v5,2020.2.10,Win32,60,60a5f9bf14d0aa2821c4bb84,,,,,740,34.5,-109.5,1,0,0,response3disk,,4,-1.5,1.5,1,0,0,rectangle,-1.5,1.5,1,0,0,5,"[65,160,166,256,268,32,100,22,3,254,260,26,187,72,292,105,29,149,296,288]",-1.5,1.5,1,0,0,1,1,162,86,1,,,
,,,,,,,,,,,,,FF,,,,,,,,1.71913,,,,,,,,,,,,,,,,,,,,,,,606248077eb733dc380dc27c,60a7d7fc055cfa8670dc50de,2021-05-21_10h57.00.740,Simcolourproject_2stim_asymm_v5,2020.2.10,Win32,60,60a5f9bf14d0aa2821c4bb84,,,,,1571,74.5,106.5,1,0,0,response1disk,,7,13.5,6.5,1,0,0,rectangle,13.5,6.5,1,0,0,7,"[65,160,166,256,268,32,100,22,3,254,260,26,187,72,292,105,29,149,296,288]",13.5,6.5,1,0,0,1,2,163,153,1,,,
,,,,,,,,,,,,,FF,,,,,,,,2.100585,,,,,,,,,,,,,,,,,,,,,,,606248077eb733dc380dc27c,60a7d7fc055cfa8670dc50de,2021-05-21_10h57.00.740,Simcolourproject_2stim_asymm_v5,2020.2.10,Win32,60,60a5f9bf14d0aa2821c4bb84,,,,,1536,99.5,-63.5,1,0,0,response3disk,,5,-2.5,-11.5,1,0,0,rectangle,-2.5,-11.5,1,0,0,0,"[65,160,166,256,268,32,100,22,3,254,260,26,187,72,292,105,29,149,296,288]",-2.5,-11.5,1,0,0,1,3,164,115,1,,,
,,,,,,,,,,,,,FF,,,,,,,,0.871765,,,,,,,,,,,,,,,,,,,,,,,606248077eb733dc380dc27c,60a7d7fc055cfa8670dc50de,2021-05-21_10h57.00.740,Simcolourproject_2stim_asymm_v5,2020.2.10,Win32,60,60a5f9bf14d0aa2821c4bb84,,,,,3451,46.5,140.5,1,0,0,response1disk,,7,-13.5,-1.5,1,0,0,rectangle,113.5,-65.5,1,0,0,5,"[65,160,166,256,268,32,100,22,3,254,260,26,187,72,292,105,29,149,296,288]",-8.5,-8.5,1,0,0,1,4,165,117,1,,response3disk_3,rectangle
,,,,,,,,,,,,,FF,,,,,,,,1.156245,,,,,,,,,,,,,,,,,,,,,,,606248077eb733dc380dc27c,60a7d7fc055cfa8670dc50de,2021-05-21_10h57.00.740,Simcolourproject_2stim_asymm_v5,2020.2.10,Win32,60,60a5f9bf14d0aa2821c4bb84,,,,,4083,54.5,-138.5,1,0,0,response3disk,,4,-2.5,-0.5,1,0,0,rectangle,-2.5,-0.5,1,0,0,1,"[65,160,166,256,268,32,100,22,3,254,260,26,187,72,292,105,29,149,296,288]",-2.5,-0.5,1,0,0,1,5,166,141,1,,,
,,,,,,,,,,,,,FF,,,,,,,,1.10105,,,,,,,,,,,,,,,,,,,,,,,606248077eb733dc380dc27c,60a7d7fc055cfa8670dc50de,2021-05-21_10h57.00.740,Simcolourproject_2stim_asymm_v5,2020.2.10,Win32,60,60a5f9bf14d0aa2821c4bb84,,,,,96,-102.5,-67.5,1,0,0,response5disk,,4,-2.5,-9.5,1,0,0,rectangle,-2.5,-9.5,1,0,0,3,"[65,160,166,256,268,32,100,22,3,254,260,26,187,72,292,105,29,149,296,288]",-2.5,-9.5,1,0,0,1,6,167,62,1,,,
,,,,,,,,,,,,,FF,,,,,,,,0.59702,,,,,,,,,,,,,,,,,,,,,,,606248077eb733dc380dc27c,60a7d7fc055cfa8670dc50de,2021-05-21_10h57.00.740,Simcolourproject_2stim_asymm_v5,2020.2.10,Win32,60,60a5f9bf14d0aa2821c4bb84,,,,,671,68.5,134.5,1,0,0,response1disk,,7,-9.5,-1.5,1,0,0,rectangle,-9.5,-1.5,1,0,0,3,"[65,160,166,256,268,32,100,22,3,254,260,26,187,72,292,105,29,149,296,288]",-9.5,-1.5,1,0,0,1,7,168,89,1,,,
,,,,,,,,,,,,,FF,,,,,,,,0.753445,,,,,,,,,,,,,,,,,,,,,,,606248077eb733dc380dc27c,60a7d7fc055cfa8670dc50de,2021-05-21_10h57.00.740,Simcolourproject_2stim_asymm_v5,2020.2.10,Win32,60,60a5f9bf14d0aa2821c4bb84,,,,,2801,48.5,124.5,1,0,0,response1disk,,7,-15.5,-1.5,1,0,0,rectangle,-15.5,-1.5,1,0,0,4,"[65,160,166,256,268,32,100,22,3,254,260,26,187,72,292,105,29,149,296,288]",-15.5,-1.5,1,0,0,1,8,169,97,1,,,
,,,,,,,,,,,,,FF,,,,,,,,0.552625,,,,,,,,,,,,,,,,,,,,,,,606248077eb733dc380dc27c,60a7d7fc055cfa8670dc50de,2021-05-21_10h57.00.740,Simcolourproject_2stim_asymm_v5,2020.2.10,Win32,60,60a5f9bf14d0aa2821c4bb84,,,,,1094,46.5,114.5,1,0,0,response1disk,,7,0.5,0.5,1,0,0,rectangle,0.5,0.5,1,0,0,5,"[65,160,166,256,268,32,100,22,3,254,260,26,187,72,292,105,29,149,296,288]",0.5,0.5,1,0,0,1,9,170,107,1,,,
,,,,,,,,,,,,,FF,,,,,,,,0.45158,,,,,,,,,,,,,,,,,,,,,,,606248077eb733dc380dc27c,60a7d7fc055cfa8670dc50de,2021-05-21_10h57.00.740,Simcolourproject_2stim_asymm_v5,2020.2.10,Win32,60,60a5f9bf14d0aa2821c4bb84,,,,,2202,61.5,106.5,1,0,0,response1disk,,7,9.5,5.5,1,0,0,rectangle,9.5,5.5,1,0,0,5,"[65,160,166,256,268,32,100,22,3,254,260,26,187,72,292,105,29,149,296,288]",9.5,5.5,1,0,0,1,10,171,48,1,,,
,,,,,,,,,,,,,FF,,,,,,,,1.135265,,,,,,,,,,,,,,,,,,,,,,,606248077eb733dc380dc27c,60a7d7fc055cfa8670dc50de,2021-05-21_10h57.00.740,Simcolourproject_2stim_asymm_v5,2020.2.10,Win32,60,60a5f9bf14d0aa2821c4bb84,,,,,4041,95.5,52.5,1,0,0,response1disk,,6,-2.5,-4.5,1,0,0,rectangle,-2.5,-4.5,1,0,0,1,"[65,160,166,256,268,32,100,22,3,254,260,26,187,72,292,105,29,149,296,288]",-2.5,-4.5,1,0,0,1,11,172,85,1,,,
,,,,,,,,,,,,,FF,,,,,,,,0.56775,,,,,,,,,,,,,,,,,,,,,,,606248077eb733dc380dc27c,60a7d7fc055cfa8670dc50de,2021-05-21_10h57.00.740,Simcolourproject_2stim_asymm_v5,2020.2.10,Win32,60,60a5f9bf14d0aa2821c4bb84,,,,,426,54.5,137.5,1,0,0,response1disk,,7,-2.5,7.5,1,0,0,rectangle,-2.5,7.5,1,0,0,4,"[65,160,166,256,268,32,100,22,3,254,260,26,187,72,292,105,29,149,296,288]",-2.5,7.5,1,0,0,1,12,173,45,1,,,
,,,,,,,,,,,,,FF,,,,,,,,1.235935,,,,,,,,,,,,,,,,,,,,,,,606248077eb733dc380dc27c,60a7d7fc055cfa8670dc50de,2021-05-21_10h57.00.740,Simcolourproject_2stim_asymm_v5,2020.2.10,Win32,60,60a5f9bf14d0aa2821c4bb84,,,,,3042,108.5,-55.5,1,0,0,response3disk,,5,4.5,-0.5,1,0,0,rectangle,4.5,-0.5,1,0,0,3,"[65,160,166,256,268,32,100,22,3,254,260,26,187,72,292,105,29,149,296,288]",4.5,-0.5,1,0,0,1,13,174,21,1,,,
,,,,,,,,,,,,,FF,,,,,,,,1.853175,,,,,,,,,,,,,,,,,,,,,,,606248077eb733dc380dc27c,60a7d7fc055cfa8670dc50de,2021-05-21_10h57.00.740,Simcolourproject_2stim_asymm_v5,2020.2.10,Win32,60,60a5f9bf14d0aa2821c4bb84,,,,,1228,118.5,-55.5,1,0,0,response3disk,,5,-1.5,-6.5,1,0,0,rectangle,-1.5,-6.5,1,0,0,5,"[65,160,166,256,268,32,100,22,3,254,260,26,187,72,292,105,29,149,296,288]",-1.5,-6.5,1,0,0,1,14,175,93,1,,,
,,,,,,,,,,,,,FF,,,,,,,,0.83491,,,,,,,,,,,,,,,,,,,,,,,606248077eb733dc380dc27c,60a7d7fc055cfa8670dc50de,2021-05-21_10h57.00.740,Simcolourproject_2stim_asymm_v5,2020.2.10,Win32,60,60a5f9bf14d0aa2821c4bb84,,,,,2601,-42.5,108.5,1,0,0,response7disk,,0,-17.5,-2.5,1,0,0,rectangle,-17.5,-2.5,1,0,0,5,"[65,160,166,256,268,32,100,22,3,254,260,26,187,72,292,105,29,149,296,288]",-17.5,-2.5,1,0,0,1,15,176,64,1,,,
,,,,,,,,,,,,,FF,,,,,,,,1.085645,,,,,,,,,,,,,,,,,,,,,,,606248077eb733dc380dc27c,60a7d7fc055cfa8670dc50de,2021-05-21_10h57.00.740,Simcolourproject_2stim_asymm_v5,2020.2.10,Win32,60,60a5f9bf14d0aa2821c4bb84,,,,,3849,-110.5,-46.5,1,0,0,response5disk,,0,-2.5,-2.5,1,0,0,rectangle,-2.5,-2.5,1,0,0,6,"[65,160,166,256,268,32,100,22,3,254,260,26,187,72,292,105,29,149,296,288]",-2.5,-2.5,1,0,0,1,16,177,100,1,,,
,,,,,,,,,,,,,FF,,,,,,,,1.102065,,,,,,,,,,,,,,,,,,,,,,,606248077eb733dc380dc27c,60a7d7fc055cfa8670dc50de,2021-05-21_10h57.00.740,Simcolourproject_2stim_asymm_v5,2020.2.10,Win32,60,60a5f9bf14d0aa2821c4bb84,,,,,631,-139.5,-63.5,1,0,0,response5disk,,0,-18.5,0.5,1,0,0,rectangle,-18.5,0.5,1,0,0,1,"[65,160,166,256,268,32,100,22,3,254,260,26,187,72,292,105,29,149,296,288]",-18.5,0.5,1,0,0,1,17,178,105,1,,,
,,,,,,,,,,,,,FF,,,,,,,,0.818095,,,,,,,,,,,,,,,,,,,,,,,606248077eb733dc380dc27c,60a7d7fc055cfa8670dc50de,2021-05-21_10h57.00.740,Simcolourproject_2stim_asymm_v5,2020.2.10,Win32,60,60a5f9bf14d0aa2821c4bb84,,,,,1887,-105.5,-59.5,1,0,0,response5disk,,0,-5.5,6.5,1,0,0,rectangle,-5.5,6.5,1,0,0,3,"[65,160,166,256,268,32,100,22,3,254,260,26,187,72,292,105,29,149,296,288]",-5.5,6.5,1,0,0,1,18,179,121,1,,,
,,,,,,,,,,,,,FF,,,,,,,,0.584395,,,,,,,,,,,,,,,,,,,,,,,606248077eb733dc380dc27c,60a7d7fc055cfa8670dc50de,2021-05-21_10h57.00.740,Simcolourproject_2stim_asymm_v5,2020.2.10,Win32,60,60a5f9bf14d0aa2821c4bb84,,,,,3083,73.5,152.5,1,0,0,response1disk,,7,-0.5,2.5,1,0,0,rectangle,-0.5,2.5,1,0,0,3,"[65,160,166,256,268,32,100,22,3,254,260,26,187,72,292,105,29,149,296,288]",-0.5,2.5,1,0,0,1,19,180,128,1,,,
,,,,,,,,,,,,,FF,,,,,,,,1.853235,,,,,,,,,,,,,,,,,,,,,,,606248077eb733dc380dc27c,60a7d7fc055cfa8670dc50de,2021-05-21_10h57.00.740,Simcolourproject_2stim_asymm_v5,2020.2.10,Win32,60,60a5f9bf14d0aa2821c4bb84,,,,,189,31.5,-111.5,1,0,0,response3disk,,4,-5.5,-6.5,1,0,0,rectangle,-5.5,-6.5,1,0,0,2,"[65,160,166,256,268,32,100,22,3,254,260,26,187,72,292,105,29,149,296,288]",-5.5,-6.5,1,0,0,1,20,181,4,1,,,
,,,,,,,,,,,,,FF,,,,,,,,0.65237,,,,,,,,,,,,,,,,,,,,,,,606248077eb733dc380dc27c,60a7d7fc055cfa8670dc50de,2021-05-21_10h57.00.740,Simcolourproject_2stim_asymm_v5,2020.2.10,Win32,60,60a5f9bf14d0aa2821c4bb84,,,,,2206,32.5,118.5,1,0,0,response1disk,,7,-12.5,-5.5,1,0,0,rectangle,-12.5,-5.5,1,0,0,4,"[65,160,166,256,268,32,100,22,3,254,260,26,187,72,292,105,29,149,296,288]",-12.5,-5.5,1,0,0,1,21,182,131,1,,,
,,,,,,,,,,,,,FF,,,,,,,,0.735285,,,,,,,,,,,,,,,,,,,,,,,606248077eb733dc380dc27c,60a7d7fc055cfa8670dc50de,2021-05-21_10h57.00.740,Simcolourproject_2stim_asymm_v5,2020.2.10,Win32,60,60a5f9bf14d0aa2821c4bb84,,,,,1466,-25.5,-129.5,1,0,0,response5disk,,3,1.5,7.5,1,0,0,rectangle,1.5,7.5,1,0,0,3,"[65,160,166,256,268,32,100,22,3,254,260,26,187,72,292,105,29,149,296,288]",1.5,7.5,1,0,0,1,22,183,150,1,,,
,,,,,,,,,,,,,FF,,,,,,,,0.751695,,,,,,,,,,,,,,,,,,,,,,,606248077eb733dc380dc27c,60a7d7fc055cfa8670dc50de,2021-05-21_10h57.00.740,Simcolourproject_2stim_asymm_v5,2020.2.10,Win32,60,60a5f9bf14d0aa2821c4bb84,,,,,225,26.5,144.5,1,0,0,response1disk,,7,-11.5,-1.5,1,0,0,rectangle,-11.5,-1.5,1,0,0,5,"[65,160,166,256,268,32,100,22,3,254,260,26,187,72,292,105,29,149,296,288]",-11.5,-1.5,1,0,0,1,23,184,106,1,,,
,,,,,,,,,,,,,FF,,,,,,,,0.668215,,,,,,,,,,,,,,,,,,,,,,,606248077eb733dc380dc27c,60a7d7fc055cfa8670dc50de,2021-05-21_10h57.00.740,Simcolourproject_2stim_asymm_v5,2020.2.10,Win32,60,60a5f9bf14d0aa2821c4bb84,,,,,207,37.5,100.5,1,0,0,response1disk,,7,-3.5,-4.5,1,0,0,rectangle,-3.5,-4.5,1,0,0,0,"[65,160,166,256,268,32,100,22,3,254,260,26,187,72,292,105,29,149,296,288]",-3.5,-4.5,1,0,0,1,24,185,94,1,,,
,,,,,,,,,,,,,FF,,,,,,,,0.8016,,,,,,,,,,,,,,,,,,,,,,,606248077eb733dc380dc27c,60a7d7fc055cfa8670dc50de,2021-05-21_10h57.00.740,Simcolourproject_2stim_asymm_v5,2020.2.10,Win32,60,60a5f9bf14d0aa2821c4bb84,,,,,1870,64.5,120.5,1,0,0,response1disk,,7,-2.5,-3.5,1,0,0,rectangle,-58.5,-124.5,1,0,0,3,"[65,160,166,256,268,32,100,22,3,254,260,26,187,72,292,105,29,149,296,288]",-2.5,0.5,1,0,0,1,25,186,146,1,,response5disk_3,rectangle
,,,,,,,,,,,,,FF,,,,,,,,0.66792,,,,,,,,,,,,,,,,,,,,,,,606248077eb733dc380dc27c,60a7d7fc055cfa8670dc50de,2021-05-21_10h57.00.740,Simcolourproject_2stim_asymm_v5,2020.2.10,Win32,60,60a5f9bf14d0aa2821c4bb84,,,,,923,52.5,133.5,1,0,0,response1disk,,7,-6.5,5.5,1,0,0,rectangle,-6.5,5.5,1,0,0,0,"[65,160,166,256,268,32,100,22,3,254,260,26,187,72,292,105,29,149,296,288]",-6.5,5.5,1,0,0,1,26,187,24,1,,,
,,,,,,,,,,,,,FF,,,,,,,,0.68506,,,,,,,,,,,,,,,,,,,,,,,606248077eb733dc380dc27c,60a7d7fc055cfa8670dc50de,2021-05-21_10h57.00.740,Simcolourproject_2stim_asymm_v5,2020.2.10,Win32,60,60a5f9bf14d0aa2821c4bb84,,,,,3387,39.5,136.5,1,0,0,response1disk,,7,0.5,-7.5,1,0,0,rectangle,0.5,-7.5,1,0,0,0,"[65,160,166,256,268,32,100,22,3,254,260,26,187,72,292,105,29,149,296,288]",0.5,-7.5,1,0,0,1,27,188,139,1,,,
,,,,,,,,,,,,,FF,,,,,,,,1.284325,,,,,,,,,,,,,,,,,,,,,,,606248077eb733dc380dc27c,60a7d7fc055cfa8670dc50de,2021-05-21_10h57.00.740,Simcolourproject_2stim_asymm_v5,2020.2.10,Win32,60,60a5f9bf14d0aa2821c4bb84,,,,,3904,43.5,-134.5,1,0,0,response3disk,,4,-9.5,-8.5,1,0,0,rectangle,-9.5,-8.5,1,0,0,6,"[65,160,166,256,268,32,100,22,3,254,260,26,187,72,292,105,29,149,296,288]",-9.5,-8.5,1,0,0,1,28,189,116,1,,,
,,,,,,,,,,,,,FF,,,,,,,,1.302435,,,,,,,,,,,,,,,,,,,,,,,606248077eb733dc380dc27c,60a7d7fc055cfa8670dc50de,2021-05-21_10h57.00.740,Simcolourproject_2stim_asymm_v5,2020.2.10,Win32,60,60a5f9bf14d0aa2821c4bb84,,,,,94,-40.5,122.5,1,0,0,response7disk,,0,-10.5,-2.5,1,0,0,rectangle,-10.5,-2.5,1,0,0,7,"[65,160,166,256,268,32,100,22,3,254,260,26,187,72,292,105,29,149,296,288]",-10.5,-2.5,1,0,0,1,29,190,0,1,,,
,,,,,,,,,,,,,FF,,,,,,,,0.80201,,,,,,,,,,,,,,,,,,,,,,,606248077eb733dc380dc27c,60a7d7fc055cfa8670dc50de,2021-05-21_10h57.00.740,Simcolourproject_2stim_asymm_v5,2020.2.10,Win32,60,60a5f9bf14d0aa2821c4bb84,,,,,3881,-30.5,-92.5,1,0,0,response5disk,,3,0.5,-1.5,1,0,0,rectangle,0.5,-1.5,1,0,0,2,"[65,160,166,256,268,32,100,22,3,254,260,26,187,72,292,105,29,149,296,288]",0.5,-1.5,1,0,0,1,30,191,65,1,,,
,,,,,,,,,,,,,FF,,,,,,,,0.61791,,,,,,,,,,,,,,,,,,,,,,,606248077eb733dc380dc27c,60a7d7fc055cfa8670dc50de,2021-05-21_10h57.00.740,Simcolourproject_2stim_asymm_v5,2020.2.10,Win32,60,60a5f9bf14d0aa2821c4bb84,,,,,3811,-47.5,115.5,1,0,0,response7disk,,0,-9.5,-4.5,1,0,0,rectangle,-9.5,-4.5,1,0,0,6,"[65,160,166,256,268,32,100,22,3,254,260,26,187,72,292,105,29,149,296,288]",-9.5,-4.5,1,0,0,1,31,192,135,1,,,
,,,,,,,,,,,,,FF,,,,,,,,0.935605,,,,,,,,,,,,,,,,,,,,,,,606248077eb733dc380dc27c,60a7d7fc055cfa8670dc50de,2021-05-21_10h57.00.740,Simcolourproject_2stim_asymm_v5,2020.2.10,Win32,60,60a5f9bf14d0aa2821c4bb84,,,,,3712,-108.5,32.5,1,0,0,response7disk,,1,-22.5,-5.5,1,0,0,rectangle,-22.5,-5.5,1,0,0,5,"[65,160,166,256,268,32,100,22,3,254,260,26,187,72,292,105,29,149,296,288]",-22.5,-5.5,1,0,0,1,32,193,145,1,,,
,,,,,,,,,,,,,FF,,,,,,,,0.551235,,,,,,,,,,,,,,,,,,,,,,,606248077eb733dc380dc27c,60a7d7fc055cfa8670dc50de,2021-05-21_10h57.00.740,Simcolourproject_2stim_asymm_v5,2020.2.10,Win32,60,60a5f9bf14d0aa2821c4bb84,,,,,142,39.5,99.5,1,0,0,response1disk,,7,-5.5,5.5,1,0,0,rectangle,-5.5,5.5,1,0,0,6,"[65,160,166,256,268,32,100,22,3,254,260,26,187,72,292,105,29,149,296,288]",-5.5,5.5,1,0,0,1,33,194,129,1,,,
,,,,,,,,,,,,,FF,,,,,,,,1.26947,,,,,,,,,,,,,,,,,,,,,,,606248077eb733dc380dc27c,60a7d7fc055cfa8670dc50de,2021-05-21_10h57.00.740,Simcolourproject_2stim_asymm_v5,2020.2.10,Win32,60,60a5f9bf14d0aa2821c4bb84,,,,,4363,-107.5,-37.5,1,0,0,response5disk,,7,9.5,15.5,1,0,0,rectangle,9.5,15.5,1,0,0,0,"[65,160,166,256,268,32,100,22,3,254,260,26,187,72,292,105,29,149,296,288]",9.5,15.5,1,0,0,1,34,195,51,1,,,
,,,,,,,,,,,,,FF,,,,,,,,1.236005,,,,,,,,,,,,,,,,,,,,,,,606248077eb733dc380dc27c,60a7d7fc055cfa8670dc50de,2021-05-21_10h57.00.740,Simcolourproject_2stim_asymm_v5,2020.2.10,Win32,60,60a5f9bf14d0aa2821c4bb84,,,,,1541,97.5,-55.5,1,0,0,response3disk,,5,24.5,-2.5,1,0,0,rectangle,24.5,-2.5,1,0,0,3,"[65,160,166,256,268,32,100,22,3,254,260,26,187,72,292,105,29,149,296,288]",24.5,-2.5,1,0,0,1,35,196,58,1,,,
,,,,,,,,,,,,,FF,,,,,,,,1.8198,,,,,,,,,,,,,,,,,,,,,,,606248077eb733dc380dc27c,60a7d7fc055cfa8670dc50de,2021-05-21_10h57.00.740,Simcolourproject_2stim_asymm_v5,2020.2.10,Win32,60,60a5f9bf14d0aa2821c4bb84,,,,,941,49.5,90.5,1,0,0,response1disk,,7,2.5,1.5,1,0,0,rectangle,2.5,1.5,1,0,0,0,"[65,160,166,256,268,32,100,22,3,254,260,26,187,72,292,105,29,149,296,288]",2.5,1.5,1,0,0,1,36,197,124,1,,,
,,,,,,,,,,,,,FF,,,,,,,,0.885495,,,,,,,,,,,,,,,,,,,,,,,606248077eb733dc380dc27c,60a7d7fc055cfa8670dc50de,2021-05-21_10h57.00.740,Simcolourproject_2stim_asymm_v5,2020.2.10,Win32,60,60a5f9bf14d0aa2821c4bb84,,,,,1749,37.5,-120.5,1,0,0,response3disk,,4,9.5,-15.5,1,0,0,rectangle,9.5,-15.5,1,0,0,4,"[65,160,166,256,268,32,100,22,3,254,260,26,187,72,292,105,29,149,296,288]",9.5,-15.5,1,0,0,1,37,198,75,1,,,
,,,,,,,,,,,,,FF,,,,,,,,0.65163,,,,,,,,,,,,,,,,,,,,,,,606248077eb733dc380dc27c,60a7d7fc055cfa8670dc50de,2021-05-21_10h57.00.740,Simcolourproject_2stim_asymm_v5,2020.2.10,Win32,60,60a5f9bf14d0aa2821c4bb84,,,,,3215,32.5,72.5,1,0,0,response1disk,,7,-0.5,-11.5,1,0,0,rectangle,-0.5,-11.5,1,0,0,5,"[65,160,166,256,268,32,100,22,3,254,260,26,187,72,292,105,29,149,296,288]",-0.5,-11.5,1,0,0,1,38,199,38,1,,,
,,,,,,,,,,,,,FF,,,,,,,,0.51837,,,,,,,,,,,,,,,,,,,,,,,606248077eb733dc380dc27c,60a7d7fc055cfa8670dc50de,2021-05-21_10h57.00.740,Simcolourproject_2stim_asymm_v5,2020.2.10,Win32,60,60a5f9bf14d0aa2821c4bb84,,,,,219,36.5,89.5,1,0,0,response1disk,,7,1.5,-12.5,1,0,0,rectangle,1.5,-12.5,1,0,0,1,"[65,160,166,256,268,32,100,22,3,254,260,26,187,72,292,105,29,149,296,288]",1.5,-12.5,1,0,0,1,39,200,68,1,,,
,,,,,,,,,,,,,FF,,,,,,,,0.784705,,,,,,,,,,,,,,,,,,,,,,,606248077eb733dc380dc27c,60a7d7fc055cfa8670dc50de,2021-05-21_10h57.00.740,Simcolourproject_2stim_asymm_v5,2020.2.10,Win32,60,60a5f9bf14d0aa2821c4bb84,,,,,1292,-65.5,-99.5,1,0,0,response5disk,,3,-11.5,-14.5,1,0,0,rectangle,-11.5,-14.5,1,0,0,6,"[65,160,166,256,268,32,100,22,3,254,260,26,187,72,292,105,29,149,296,288]",-11.5,-14.5,1,0,0,1,40,201,22,1,,,
,,,,,,,,,,,,,FF,,,,,,,,0.62013,,,,,,,,,,,,,,,,,,,,,,,606248077eb733dc380dc27c,60a7d7fc055cfa8670dc50de,2021-05-21_10h57.00.740,Simcolourproject_2stim_asymm_v5,2020.2.10,Win32,60,60a5f9bf14d0aa2821c4bb84,,,,,3457,56.5,112.5,1,0,0,response1disk,,7,-12.5,-5.5,1,0,0,rectangle,-12.5,-5.5,1,0,0,1,"[65,160,166,256,268,32,100,22,3,254,260,26,187,72,292,105,29,149,296,288]",-12.5,-5.5,1,0,0,1,41,202,10,1,,,
,,,,,,,,,,,,,FF,,,,,,,,0.55157,,,,,,,,,,,,,,,,,,,,,,,606248077eb733dc380dc27c,60a7d7fc055cfa8670dc50de,2021-05-21_10h57.00.740,Simcolourproject_2stim_asymm_v5,2020.2.10,Win32,60,60a5f9bf14d0aa2821c4bb84,,,,,3895,45.5,115.5,1,0,0,response1disk,,7,0.5,1.5,1,0,0,rectangle,0.5,1.5,1,0,0,5,"[65,160,166,256,268,32,100,22,3,254,260,26,187,72,292,105,29,149,296,288]",0.5,1.5,1,0,0,1,42,203,30,1,,,
,,,,,,,,,,,,,FF,,,,,,,,0.60143,,,,,,,,,,,,,,,,,,,,,,,606248077eb733dc380dc27c,60a7d7fc055cfa8670dc50de,2021-05-21_10h57.00.740,Simcolourproject_2stim_asymm_v5,2020.2.10,Win32,60,60a5f9bf14d0aa2821c4bb84,,,,,3063,41.5,85.5,1,0,0,response1disk,,7,-11.5,-14.5,1,0,0,rectangle,-11.5,-14.5,1,0,0,7,"[65,160,166,256,268,32,100,22,3,254,260,26,187,72,292,105,29,149,296,288]",-11.5,-14.5,1,0,0,1,43,204,29,1,,,
,,,,,,,,,,,,,FF,,,,,,,,1.118535,,,,,,,,,,,,,,,,,,,,,,,606248077eb733dc380dc27c,60a7d7fc055cfa8670dc50de,2021-05-21_10h57.00.740,Simcolourproject_2stim_asymm_v5,2020.2.10,Win32,60,60a5f9bf14d0aa2821c4bb84,,,,,4049,-88.5,-114.5,1,0,0,response5disk,,3,-22.5,7.5,1,0,0,rectangle,-22.5,7.5,1,0,0,0,"[65,160,166,256,268,32,100,22,3,254,260,26,187,72,292,105,29,149,296,288]",-22.5,7.5,1,0,0,1,44,205,119,1,,,
,,,,,,,,,,,,,FF,,,,,,,,0.56794,,,,,,,,,,,,,,,,,,,,,,,606248077eb733dc380dc27c,60a7d7fc055cfa8670dc50de,2021-05-21_10h57.00.740,Simcolourproject_2stim_asymm_v5,2020.2.10,Win32,60,60a5f9bf14d0aa2821c4bb84,,,,,3800,40.5,119.5,1,0,0,response1disk,,7,-15.5,10.5,1,0,0,rectangle,-15.5,10.5,1,0,0,1,"[65,160,166,256,268,32,100,22,3,254,260,26,187,72,292,105,29,149,296,288]",-15.5,10.5,1,0,0,1,45,206,37,1,,,
,,,,,,,,,,,,,FF,,,,,,,,1.052575,,,,,,,,,,,,,,,,,,,,,,,606248077eb733dc380dc27c,60a7d7fc055cfa8670dc50de,2021-05-21_10h57.00.740,Simcolourproject_2stim_asymm_v5,2020.2.10,Win32,60,60a5f9bf14d0aa2821c4bb84,,,,,1463,75.5,-57.5,1,0,0,response3disk,,5,-4.5,-8.5,1,0,0,rectangle,-4.5,-8.5,1,0,0,7,"[65,160,166,256,268,32,100,22,3,254,260,26,187,72,292,105,29,149,296,288]",-4.5,-8.5,1,0,0,1,46,207,11,1,,,
,,,,,,,,,,,,,FF,,,,,,,,1.40221,,,,,,,,,,,,,,,,,,,,,,,606248077eb733dc380dc27c,60a7d7fc055cfa8670dc50de,2021-05-21_10h57.00.740,Simcolourproject_2stim_asymm_v5,2020.2.10,Win32,60,60a5f9bf14d0aa2821c4bb84,,,,,1832,108.5,-61.5,1,0,0,response3disk,,5,10.5,-6.5,1,0,0,rectangle,10.5,-6.5,1,0,0,7,"[65,160,166,256,268,32,100,22,3,254,260,26,187,72,292,105,29,149,296,288]",10.5,-6.5,1,0,0,1,47,208,47,1,,,
,,,,,,,,,,,,,FF,,,,,,,,0.617805,,,,,,,,,,,,,,,,,,,,,,,606248077eb733dc380dc27c,60a7d7fc055cfa8670dc50de,2021-05-21_10h57.00.740,Simcolourproject_2stim_asymm_v5,2020.2.10,Win32,60,60a5f9bf14d0aa2821c4bb84,,,,,2751,41.5,121.5,1,0,0,response1disk,,7,-13.5,-2.5,1,0,0,rectangle,-13.5,-2.5,1,0,0,7,"[65,160,166,256,268,32,100,22,3,254,260,26,187,72,292,105,29,149,296,288]",-13.5,-2.5,1,0,0,1,48,209,113,1,,,
,,,,,,,,,,,,,FF,,,,,,,,0.567895,,,,,,,,,,,,,,,,,,,,,,,606248077eb733dc380dc27c,60a7d7fc055cfa8670dc50de,2021-05-21_10h57.00.740,Simcolourproject_2stim_asymm_v5,2020.2.10,Win32,60,60a5f9bf14d0aa2821c4bb84,,,,,3121,63.5,128.5,1,0,0,response1disk,,7,2.5,2.5,1,0,0,rectangle,2.5,2.5,1,0,0,2,"[65,160,166,256,268,32,100,22,3,254,260,26,187,72,292,105,29,149,296,288]",2.5,2.5,1,0,0,1,49,210,59,1,,,
,,,,,,,,,,,,,FF,,,,,,,,0.63341,,,,,,,,,,,,,,,,,,,,,,,606248077eb733dc380dc27c,60a7d7fc055cfa8670dc50de,2021-05-21_10h57.00.740,Simcolourproject_2stim_asymm_v5,2020.2.10,Win32,60,60a5f9bf14d0aa2821c4bb84,,,,,2030,-48.5,-132.5,1,0,0,response5disk,,3,6.5,2.5,1,0,0,rectangle,6.5,2.5,1,0,0,1,"[65,160,166,256,268,32,100,22,3,254,260,26,187,72,292,105,29,149,296,288]",6.5,2.5,1,0,0,1,50,211,5,1,,,
,,,,,,,,,,,,,FF,,,,,,,,1.135415,,,,,,,,,,,,,,,,,,,,,,,606248077eb733dc380dc27c,60a7d7fc055cfa8670dc50de,2021-05-21_10h57.00.740,Simcolourproject_2stim_asymm_v5,2020.2.10,Win32,60,60a5f9bf14d0aa2821c4bb84,,,,,3508,57.5,-116.5,1,0,0,response3disk,,4,-4.5,-6.5,1,0,0,rectangle,-4.5,-6.5,1,0,0,3,"[65,160,166,256,268,32,100,22,3,254,260,26,187,72,292,105,29,149,296,288]",-4.5,-6.5,1,0,0,1,51,212,149,1,,,
,,,,,,,,,,,,,FF,,,,,,,,0.500985,,,,,,,,,,,,,,,,,,,,,,,606248077eb733dc380dc27c,60a7d7fc055cfa8670dc50de,2021-05-21_10h57.00.740,Simcolourproject_2stim_asymm_v5,2020.2.10,Win32,60,60a5f9bf14d0aa2821c4bb84,,,,,2523,63.5,126.5,1,0,0,response1disk,,7,-7.5,-0.5,1,0,0,rectangle,-7.5,-0.5,1,0,0,0,"[65,160,166,256,268,32,100,22,3,254,260,26,187,72,292,105,29,149,296,288]",-7.5,-0.5,1,0,0,1,52,213,34,1,,,
,,,,,,,,,,,,,FF,,,,,,,,0.51765,,,,,,,,,,,,,,,,,,,,,,,606248077eb733dc380dc27c,60a7d7fc055cfa8670dc50de,2021-05-21_10h57.00.740,Simcolourproject_2stim_asymm_v5,2020.2.10,Win32,60,60a5f9bf14d0aa2821c4bb84,,,,,1986,59.5,111.5,1,0,0,response1disk,,7,13.5,6.5,1,0,0,rectangle,13.5,6.5,1,0,0,6,"[65,160,166,256,268,32,100,22,3,254,260,26,187,72,292,105,29,149,296,288]",13.5,6.5,1,0,0,1,53,214,114,1,,,
,,,,,,,,,,,,,FF,,,,,,,,0.903585,,,,,,,,,,,,,,,,,,,,,,,606248077eb733dc380dc27c,60a7d7fc055cfa8670dc50de,2021-05-21_10h57.00.740,Simcolourproject_2stim_asymm_v5,2020.2.10,Win32,60,60a5f9bf14d0aa2821c4bb84,,,,,990,51.5,90.5,1,0,0,response1disk,,7,0.5,-2.5,1,0,0,rectangle,0.5,-2.5,1,0,0,1,"[65,160,166,256,268,32,100,22,3,254,260,26,187,72,292,105,29,149,296,288]",0.5,-2.5,1,0,0,1,54,215,20,1,,,
,,,,,,,,,,,,,FF,,,,,,,,0.55177,,,,,,,,,,,,,,,,,,,,,,,606248077eb733dc380dc27c,60a7d7fc055cfa8670dc50de,2021-05-21_10h57.00.740,Simcolourproject_2stim_asymm_v5,2020.2.10,Win32,60,60a5f9bf14d0aa2821c4bb84,,,,,800,54.5,106.5,1,0,0,response1disk,,7,16.5,-10.5,1,0,0,rectangle,16.5,-10.5,1,0,0,4,"[65,160,166,256,268,32,100,22,3,254,260,26,187,72,292,105,29,149,296,288]",16.5,-10.5,1,0,0,1,55,216,125,1,,,
,,,,,,,,,,,,,FF,,,,,,,,0.484355,,,,,,,,,,,,,,,,,,,,,,,606248077eb733dc380dc27c,60a7d7fc055cfa8670dc50de,2021-05-21_10h57.00.740,Simcolourproject_2stim_asymm_v5,2020.2.10,Win32,60,60a5f9bf14d0aa2821c4bb84,,,,,340,56.5,101.5,1,0,0,response1disk,,7,6.5,5.5,1,0,0,rectangle,6.5,5.5,1,0,0,5,"[65,160,166,256,268,32,100,22,3,254,260,26,187,72,292,105,29,149,296,288]",6.5,5.5,1,0,0,1,56,217,154,1,,,
,,,,,,,,,,,,,FF,,,,,,,,0.818635,,,,,,,,,,,,,,,,,,,,,,,606248077eb733dc380dc27c,60a7d7fc055cfa8670dc50de,2021-05-21_10h57.00.740,Simcolourproject_2stim_asymm_v5,2020.2.10,Win32,60,60a5f9bf14d0aa2821c4bb84,,,,,73,-61.5,-125.5,1,0,0,response5disk,,3,-6.5,-1.5,1,0,0,rectangle,-6.5,-1.5,1,0,0,5,"[65,160,166,256,268,32,100,22,3,254,260,26,187,72,292,105,29,149,296,288]",-6.5,-1.5,1,0,0,1,57,218,132,1,,,
,,,,,,,,,,,,,FF,,,,,,,,1.169365,,,,,,,,,,,,,,,,,,,,,,,606248077eb733dc380dc27c,60a7d7fc055cfa8670dc50de,2021-05-21_10h57.00.740,Simcolourproject_2stim_asymm_v5,2020.2.10,Win32,60,60a5f9bf14d0aa2821c4bb84,,,,,1045,61.5,136.5,1,0,0,response1disk,,7,2.5,-6.5,1,0,0,rectangle,2.5,-6.5,1,0,0,1,"[65,160,166,256,268,32,100,22,3,254,260,26,187,72,292,105,29,149,296,288]",2.5,-6.5,1,0,0,1,58,219,7,1,,,
,,,,,,,,,,,,,FF,,,,,,,,1.268855,,,,,,,,,,,,,,,,,,,,,,,606248077eb733dc380dc27c,60a7d7fc055cfa8670dc50de,2021-05-21_10h57.00.740,Simcolourproject_2stim_asymm_v5,2020.2.10,Win32,60,60a5f9bf14d0aa2821c4bb84,,,,,4359,-96.5,-65.5,1,0,0,response5disk,,7,-12.5,-3.5,1,0,0,rectangle,-12.5,-3.5,1,0,0,0,"[65,160,166,256,268,32,100,22,3,254,260,26,187,72,292,105,29,149,296,288]",-12.5,-3.5,1,0,0,1,59,220,110,1,,,
,,,,,,,,,,,,,FF,,,,,,,,2.33756,,,,,,,,,,,,,,,,,,,,,,,606248077eb733dc380dc27c,60a7d7fc055cfa8670dc50de,2021-05-21_10h57.00.740,Simcolourproject_2stim_asymm_v5,2020.2.10,Win32,60,60a5f9bf14d0aa2821c4bb84,,,,,2679,56.5,-106.5,1,0,0,response3disk,,4,0.5,-0.5,1,0,0,rectangle,0.5,-0.5,1,0,0,4,"[65,160,166,256,268,32,100,22,3,254,260,26,187,72,292,105,29,149,296,288]",0.5,-0.5,1,0,0,1,60,221,101,1,,,
,,,,,,,,,,,,,FF,,,,,,,,0.81802,,,,,,,,,,,,,,,,,,,,,,,606248077eb733dc380dc27c,60a7d7fc055cfa8670dc50de,2021-05-21_10h57.00.740,Simcolourproject_2stim_asymm_v5,2020.2.10,Win32,60,60a5f9bf14d0aa2821c4bb84,,,,,1176,53.5,156.5,1,0,0,response1disk,,7,-13.5,-5.5,1,0,0,rectangle,-13.5,-5.5,1,0,0,3,"[65,160,166,256,268,32,100,22,3,254,260,26,187,72,292,105,29,149,296,288]",-13.5,-5.5,1,0,0,1,61,222,28,1,,,
,,,,,,,,,,,,,FF,,,,,,,,0.516845,,,,,,,,,,,,,,,,,,,,,,,606248077eb733dc380dc27c,60a7d7fc055cfa8670dc50de,2021-05-21_10h57.00.740,Simcolourproject_2stim_asymm_v5,2020.2.10,Win32,60,60a5f9bf14d0aa2821c4bb84,,,,,3370,36.5,95.5,1,0,0,response1disk,,7,-2.5,-7.5,1,0,0,rectangle,-2.5,-7.5,1,0,0,6,"[65,160,166,256,268,32,100,22,3,254,260,26,187,72,292,105,29,149,296,288]",-2.5,-7.5,1,0,0,1,62,223,63,1,,,
,,,,,,,,,,,,,FF,,,,,,,,0.73476,,,,,,,,,,,,,,,,,,,,,,,606248077eb733dc380dc27c,60a7d7fc055cfa8670dc50de,2021-05-21_10h57.00.740,Simcolourproject_2stim_asymm_v5,2020.2.10,Win32,60,60a5f9bf14d0aa2821c4bb84,,,,,3602,66.5,99.5,1,0,0,response1disk,,7,4.5,-8.5,1,0,0,rectangle,4.5,-8.5,1,0,0,5,"[65,160,166,256,268,32,100,22,3,254,260,26,187,72,292,105,29,149,296,288]",4.5,-8.5,1,0,0,1,63,224,31,1,,,
,,,,,,,,,,,,,FF,,,,,,,,1.069615,,,,,,,,,,,,,,,,,,,,,,,606248077eb733dc380dc27c,60a7d7fc055cfa8670dc50de,2021-05-21_10h57.00.740,Simcolourproject_2stim_asymm_v5,2020.2.10,Win32,60,60a5f9bf14d0aa2821c4bb84,,,,,2166,-104.5,-71.5,1,0,0,response5disk,,7,-3.5,-6.5,1,0,0,rectangle,-3.5,-6.5,1,0,0,4,"[65,160,166,256,268,32,100,22,3,254,260,26,187,72,292,105,29,149,296,288]",-3.5,-6.5,1,0,0,1,64,225,54,1,,,
,,,,,,,,,,,,,FF,,,,,,,,1.33592,,,,,,,,,,,,,,,,,,,,,,,606248077eb733dc380dc27c,60a7d7fc055cfa8670dc50de,2021-05-21_10h57.00.740,Simcolourproject_2stim_asymm_v5,2020.2.10,Win32,60,60a5f9bf14d0aa2821c4bb84,,,,,2048,96.5,-49.5,1,0,0,response3disk,,5,-7.5,-4.5,1,0,0,rectangle,-7.5,-4.5,1,0,0,6,"[65,160,166,256,268,32,100,22,3,254,260,26,187,72,292,105,29,149,296,288]",-7.5,-4.5,1,0,0,1,65,226,69,1,,,
,,,,,,,,,,,,,FF,,,,,,,,0.585,,,,,,,,,,,,,,,,,,,,,,,606248077eb733dc380dc27c,60a7d7fc055cfa8670dc50de,2021-05-21_10h57.00.740,Simcolourproject_2stim_asymm_v5,2020.2.10,Win32,60,60a5f9bf14d0aa2821c4bb84,,,,,2053,57.5,128.5,1,0,0,response1disk,,7,-14.5,-2.5,1,0,0,rectangle,-14.5,-2.5,1,0,0,3,"[65,160,166,256,268,32,100,22,3,254,260,26,187,72,292,105,29,149,296,288]",-14.5,-2.5,1,0,0,1,66,227,32,1,,,
,,,,,,,,,,,,,FF,,,,,,,,0.90173,,,,,,,,,,,,,,,,,,,,,,,606248077eb733dc380dc27c,60a7d7fc055cfa8670dc50de,2021-05-21_10h57.00.740,Simcolourproject_2stim_asymm_v5,2020.2.10,Win32,60,60a5f9bf14d0aa2821c4bb84,,,,,2779,-61.5,-106.5,1,0,0,response5disk,,3,-9.5,5.5,1,0,0,rectangle,-9.5,5.5,1,0,0,4,"[65,160,166,256,268,32,100,22,3,254,260,26,187,72,292,105,29,149,296,288]",-9.5,5.5,1,0,0,1,67,228,160,1,,,
,,,,,,,,,,,,,FF,,,,,,,,1.55266,,,,,,,,,,,,,,,,,,,,,,,606248077eb733dc380dc27c,60a7d7fc055cfa8670dc50de,2021-05-21_10h57.00.740,Simcolourproject_2stim_asymm_v5,2020.2.10,Win32,60,60a5f9bf14d0aa2821c4bb84,,,,,431,-72.5,-134.5,1,0,0,response5disk,,3,-9.5,0.5,1,0,0,rectangle,-9.5,0.5,1,0,0,3,"[65,160,166,256,268,32,100,22,3,254,260,26,187,72,292,105,29,149,296,288]",-9.5,0.5,1,0,0,1,68,229,155,1,,,
,,,,,,,,,,,,,FF,,,,,,,,1.001855,,,,,,,,,,,,,,,,,,,,,,,606248077eb733dc380dc27c,60a7d7fc055cfa8670dc50de,2021-05-21_10h57.00.740,Simcolourproject_2stim_asymm_v5,2020.2.10,Win32,60,60a5f9bf14d0aa2821c4bb84,,,,,1812,87.5,-41.5,1,0,0,response3disk,,5,-1.5,-4.5,1,0,0,rectangle,-1.5,-4.5,1,0,0,3,"[65,160,166,256,268,32,100,22,3,254,260,26,187,72,292,105,29,149,296,288]",-1.5,-4.5,1,0,0,1,69,230,74,1,,,
,,,,,,,,,,,,,FF,,,,,,,,1.38554,,,,,,,,,,,,,,,,,,,,,,,606248077eb733dc380dc27c,60a7d7fc055cfa8670dc50de,2021-05-21_10h57.00.740,Simcolourproject_2stim_asymm_v5,2020.2.10,Win32,60,60a5f9bf14d0aa2821c4bb84,,,,,1038,118.5,-64.5,1,0,0,response3disk,,5,-5.5,-10.5,1,0,0,rectangle,-5.5,-10.5,1,0,0,7,"[65,160,166,256,268,32,100,22,3,254,260,26,187,72,292,105,29,149,296,288]",-5.5,-10.5,1,0,0,1,70,231,14,1,,,
,,,,,,,,,,,,,FF,,,,,,,,0.685155,,,,,,,,,,,,,,,,,,,,,,,606248077eb733dc380dc27c,60a7d7fc055cfa8670dc50de,2021-05-21_10h57.00.740,Simcolourproject_2stim_asymm_v5,2020.2.10,Win32,60,60a5f9bf14d0aa2821c4bb84,,,,,574,74.5,112.5,1,0,0,response1disk,,7,8.5,-2.5,1,0,0,rectangle,8.5,-2.5,1,0,0,7,"[65,160,166,256,268,32,100,22,3,254,260,26,187,72,292,105,29,149,296,288]",8.5,-2.5,1,0,0,1,71,232,137,1,,,
,,,,,,,,,,,,,FF,,,,,,,,0.70163,,,,,,,,,,,,,,,,,,,,,,,606248077eb733dc380dc27c,60a7d7fc055cfa8670dc50de,2021-05-21_10h57.00.740,Simcolourproject_2stim_asymm_v5,2020.2.10,Win32,60,60a5f9bf14d0aa2821c4bb84,,,,,2100,-43.5,127.5,1,0,0,response7disk,,0,2.5,-7.5,1,0,0,rectangle,2.5,-7.5,1,0,0,3,"[65,160,166,256,268,32,100,22,3,254,260,26,187,72,292,105,29,149,296,288]",2.5,-7.5,1,0,0,1,72,233,77,1,,,
,,,,,,,,,,,,,FF,,,,,,,,0.551185,,,,,,,,,,,,,,,,,,,,,,,606248077eb733dc380dc27c,60a7d7fc055cfa8670dc50de,2021-05-21_10h57.00.740,Simcolourproject_2stim_asymm_v5,2020.2.10,Win32,60,60a5f9bf14d0aa2821c4bb84,,,,,4251,-50.5,106.5,1,0,0,response7disk,,0,-8.5,3.5,1,0,0,rectangle,-8.5,3.5,1,0,0,0,"[65,160,166,256,268,32,100,22,3,254,260,26,187,72,292,105,29,149,296,288]",-8.5,3.5,1,0,0,1,73,234,151,1,,,
,,,,,,,,,,,,,FF,,,,,,,,0.701405,,,,,,,,,,,,,,,,,,,,,,,606248077eb733dc380dc27c,60a7d7fc055cfa8670dc50de,2021-05-21_10h57.00.740,Simcolourproject_2stim_asymm_v5,2020.2.10,Win32,60,60a5f9bf14d0aa2821c4bb84,,,,,876,57.5,103.5,1,0,0,response1disk,,7,2.5,10.5,1,0,0,rectangle,2.5,10.5,1,0,0,2,"[65,160,166,256,268,32,100,22,3,254,260,26,187,72,292,105,29,149,296,288]",2.5,10.5,1,0,0,1,74,235,18,1,,,
,,,,,,,,,,,,,FF,,,,,,,,0.48519,,,,,,,,,,,,,,,,,,,,,,,606248077eb733dc380dc27c,60a7d7fc055cfa8670dc50de,2021-05-21_10h57.00.740,Simcolourproject_2stim_asymm_v5,2020.2.10,Win32,60,60a5f9bf14d0aa2821c4bb84,,,,,2065,34.5,92.5,1,0,0,response1disk,,7,-3.5,3.5,1,0,0,rectangle,-3.5,3.5,1,0,0,7,"[65,160,166,256,268,32,100,22,3,254,260,26,187,72,292,105,29,149,296,288]",-3.5,3.5,1,0,0,1,75,236,39,1,,,
,,,,,,,,,,,,,FF,,,,,,,,1.05244,,,,,,,,,,,,,,,,,,,,,,,606248077eb733dc380dc27c,60a7d7fc055cfa8670dc50de,2021-05-21_10h57.00.740,Simcolourproject_2stim_asymm_v5,2020.2.10,Win32,60,60a5f9bf14d0aa2821c4bb84,,,,,1744,-91.5,-78.5,1,0,0,response5disk,,7,-4.5,-8.5,1,0,0,rectangle,-4.5,-8.5,1,0,0,3,"[65,160,166,256,268,32,100,22,3,254,260,26,187,72,292,105,29,149,296,288]",-4.5,-8.5,1,0,0,1,76,237,27,1,,,
,,,,,,,,,,,,,FF,,,,,,,,0.58615,,,,,,,,,,,,,,,,,,,,,,,606248077eb733dc380dc27c,60a7d7fc055cfa8670dc50de,2021-05-21_10h57.00.740,Simcolourproject_2stim_asymm_v5,2020.2.10,Win32,60,60a5f9bf14d0aa2821c4bb84,,,,,1655,46.5,113.5,1,0,0,response1disk,,7,12.5,7.5,1,0,0,rectangle,12.5,7.5,1,0,0,7,"[65,160,166,256,268,32,100,22,3,254,260,26,187,72,292,105,29,149,296,288]",12.5,7.5,1,0,0,1,77,238,109,1,,,
,,,,,,,,,,,,,FF,,,,,,,,0.56782,,,,,,,,,,,,,,,,,,,,,,,606248077eb733dc380dc27c,60a7d7fc055cfa8670dc50de,2021-05-21_10h57.00.740,Simcolourproject_2stim_asymm_v5,2020.2.10,Win32,60,60a5f9bf14d0aa2821c4bb84,,,,,1542,63.5,123.5,1,0,0,response1disk,,7,-5.5,3.5,1,0,0,rectangle,-5.5,3.5,1,0,0,0,"[65,160,166,256,268,32,100,22,3,254,260,26,187,72,292,105,29,149,296,288]",-5.5,3.5,1,0,0,1,78,239,53,1,,,
