key_resp.keys,key_resp.rt,key_resp_14.keys,key_resp_14.rt,key_resp_15.keys,key_resp_15.rt,key_resp_17.keys,key_resp_17.rt,key_resp_9.keys,key_resp_9.rt,key_resp_10.keys,key_resp_10.rt,practice_comparison,Ecc,mouse_5.x,mouse_5.y,mouse_5.leftButton,mouse_5.midButton,mouse_5.rightButton,mouse_5.clicked_name,pracsimilarity,response_time,mouse_10.x,mouse_10.y,mouse_10.leftButton,mouse_10.midButton,mouse_10.rightButton,mouse_10.clicked_name,mouse_7.x,mouse_7.y,mouse_7.leftButton,mouse_7.midButton,mouse_7.rightButton,catchnumberprac,mouse_6.x,mouse_6.y,mouse_6.leftButton,mouse_6.midButton,mouse_6.rightButton,duringprac.thisRepN,duringprac.thisTrialN,duringprac.thisN,duringprac.thisIndex,duringprac.ran,participant,session,date,expName,psychopyVersion,OS,frameRate,study_id,mouse_7.clicked_name,mouse_6.clicked_name,key_resp_22.keys,key_resp_22.rt,realcomparison,mouse.x,mouse.y,mouse.leftButton,mouse.midButton,mouse.rightButton,mouse.clicked_name,Colour2,similarity,mouse_2.x,mouse_2.y,mouse_2.leftButton,mouse_2.midButton,mouse_2.rightButton,mouse_2.clicked_name,mouse_3.x,mouse_3.y,mouse_3.leftButton,mouse_3.midButton,mouse_3.rightButton,catchnumber,catchtrialorder,mouse_11.x,mouse_11.y,mouse_11.leftButton,mouse_11.midButton,mouse_11.rightButton,trials_2.thisRepN,trials_2.thisTrialN,trials_2.thisN,trials_2.thisIndex,trials_2.ran,Colour1,mouse_3.clicked_name,mouse_11.clicked_name
space,2.29736,space,35.887285,space,81.70043,space,128.33388,space,3.36909,space,19.40266,96,FF,89,-52,1,0,0,response3disk_5,5,8.05543,-8,-2,1,0,0,rectangle_8,-8,-2,1,0,0,2,-8,-2,1,0,0,0,0,0,3,1,607071077825ce1b96d83505,60a7d7fac73f242a1e511092,2021-05-21_17h58.52.417,Simcolourproject_2stim_asymm_v5,2020.2.10,Win32,60,60a5f9bf14d0aa2821c4bb84,,,,,,,,,,,,,,,,,,,,,,,,,,,,,,,,,,,,,,,
,,,,,,,,,,,,130,PF,-42,-78,1,0,0,response5disk_5,3,10.567765,-1,-5,1,0,0,rectangle_8,-1,-5,1,0,0,2,-1,-5,1,0,0,0,1,1,4,1,607071077825ce1b96d83505,60a7d7fac73f242a1e511092,2021-05-21_17h58.52.417,Simcolourproject_2stim_asymm_v5,2020.2.10,Win32,60,60a5f9bf14d0aa2821c4bb84,,,,,,,,,,,,,,,,,,,,,,,,,,,,,,,,,,,,,,,
,,,,,,,,,,,,54,PF,34,90,1,0,0,response1disk_5,7,3.167895,15,1,1,0,0,rectangle_8,15,1,1,0,0,2,15,1,1,0,0,0,2,2,2,1,607071077825ce1b96d83505,60a7d7fac73f242a1e511092,2021-05-21_17h58.52.417,Simcolourproject_2stim_asymm_v5,2020.2.10,Win32,60,60a5f9bf14d0aa2821c4bb84,,,,,,,,,,,,,,,,,,,,,,,,,,,,,,,,,,,,,,,
,,,,,,,,,,,,39,FF,37,-39,1,0,0,response3disk_5,4,5.482495,5,-1,1,0,0,rectangle_8,5,-1,1,0,0,2,5,-1,1,0,0,0,3,3,0,1,607071077825ce1b96d83505,60a7d7fac73f242a1e511092,2021-05-21_17h58.52.417,Simcolourproject_2stim_asymm_v5,2020.2.10,Win32,60,60a5f9bf14d0aa2821c4bb84,,,,,,,,,,,,,,,,,,,,,,,,,,,,,,,,,,,,,,,
,,,,,,,,,,,,15,PF,64,46,1,0,0,response1disk_5,6,4.39966,10,3,1,0,0,rectangle_8,-81,-33,1,0,0,2,4,7,1,0,0,0,4,4,1,1,607071077825ce1b96d83505,60a7d7fac73f242a1e511092,2021-05-21_17h58.52.417,Simcolourproject_2stim_asymm_v5,2020.2.10,Win32,60,60a5f9bf14d0aa2821c4bb84,response5disk_7,rectangle_4,,,,,,,,,,,,,,,,,,,,,,,,,,,,,,,,,,,,,
,,,,,,,,,,,,46,FF,38,-64,1,0,0,response3disk_5,4,3.79961,21,0,1,0,0,rectangle_8,-81,-50,1,0,0,2,-3,-4,1,0,0,0,5,5,5,1,607071077825ce1b96d83505,60a7d7fac73f242a1e511092,2021-05-21_17h58.52.417,Simcolourproject_2stim_asymm_v5,2020.2.10,Win32,60,60a5f9bf14d0aa2821c4bb84,response5disk_7,rectangle_4,,,,,,,,,,,,,,,,,,,,,,,,,,,,,,,,,,,,,
,,,,,,,,,,,,126,PF,42,-25,1,0,0,response3disk_5,5,2.16716,2,-7,1,0,0,rectangle_8,2,-7,1,0,0,2,2,-7,1,0,0,0,6,6,6,1,607071077825ce1b96d83505,60a7d7fac73f242a1e511092,2021-05-21_17h58.52.417,Simcolourproject_2stim_asymm_v5,2020.2.10,Win32,60,60a5f9bf14d0aa2821c4bb84,,,,,,,,,,,,,,,,,,,,,,,,,,,,,,,,,,,,,,,
,,,,,,,,,,,,,FF,,,,,,,,2.799525,,,,,,,,,,,,,,,,,,,,,,,607071077825ce1b96d83505,60a7d7fac73f242a1e511092,2021-05-21_17h58.52.417,Simcolourproject_2stim_asymm_v5,2020.2.10,Win32,60,60a5f9bf14d0aa2821c4bb84,,,space,15.05338,579,88,-68,1,0,0,response3disk,,5,0,3,1,0,0,rectangle,0,3,1,0,0,6,"[138,73,85,105,160,266,215,219,279,129,280,152,99,204,80,40,25,264,271,11]",0,3,1,0,0,0,0,0,92,1,,,
,,,,,,,,,,,,,FF,,,,,,,,2.53433,,,,,,,,,,,,,,,,,,,,,,,607071077825ce1b96d83505,60a7d7fac73f242a1e511092,2021-05-21_17h58.52.417,Simcolourproject_2stim_asymm_v5,2020.2.10,Win32,60,60a5f9bf14d0aa2821c4bb84,,,,,94,-60,-44,1,0,0,response5disk,,5,12,1,1,0,0,rectangle,12,1,1,0,0,4,"[138,73,85,105,160,266,215,219,279,129,280,152,99,204,80,40,25,264,271,11]",12,1,1,0,0,0,1,1,96,1,,,
,,,,,,,,,,,,,FF,,,,,,,,2.6507,,,,,,,,,,,,,,,,,,,,,,,607071077825ce1b96d83505,60a7d7fac73f242a1e511092,2021-05-21_17h58.52.417,Simcolourproject_2stim_asymm_v5,2020.2.10,Win32,60,60a5f9bf14d0aa2821c4bb84,,,,,1327,37,-63,1,0,0,response3disk,,4,7,1,1,0,0,rectangle,7,1,1,0,0,1,"[138,73,85,105,160,266,215,219,279,129,280,152,99,204,80,40,25,264,271,11]",7,1,1,0,0,0,2,2,114,1,,,
,,,,,,,,,,,,,FF,,,,,,,,1.78257,,,,,,,,,,,,,,,,,,,,,,,607071077825ce1b96d83505,60a7d7fac73f242a1e511092,2021-05-21_17h58.52.417,Simcolourproject_2stim_asymm_v5,2020.2.10,Win32,60,60a5f9bf14d0aa2821c4bb84,,,,,4160,-33,-68,1,0,0,response5disk,,3,-4,-3,1,0,0,rectangle,-4,-3,1,0,0,7,"[138,73,85,105,160,266,215,219,279,129,280,152,99,204,80,40,25,264,271,11]",-4,-3,1,0,0,0,3,3,39,1,,,
,,,,,,,,,,,,,FF,,,,,,,,1.66765,,,,,,,,,,,,,,,,,,,,,,,607071077825ce1b96d83505,60a7d7fac73f242a1e511092,2021-05-21_17h58.52.417,Simcolourproject_2stim_asymm_v5,2020.2.10,Win32,60,60a5f9bf14d0aa2821c4bb84,,,,,3582,40,55,1,0,0,response1disk,,7,0,0,1,0,0,rectangle,0,0,1,0,0,3,"[138,73,85,105,160,266,215,219,279,129,280,152,99,204,80,40,25,264,271,11]",0,0,1,0,0,0,4,4,69,1,,,
,,,,,,,,,,,,,FF,,,,,,,,1.566795,,,,,,,,,,,,,,,,,,,,,,,607071077825ce1b96d83505,60a7d7fac73f242a1e511092,2021-05-21_17h58.52.417,Simcolourproject_2stim_asymm_v5,2020.2.10,Win32,60,60a5f9bf14d0aa2821c4bb84,,,,,1162,58,-31,1,0,0,response3disk,,5,5,6,1,0,0,rectangle,5,6,1,0,0,5,"[138,73,85,105,160,266,215,219,279,129,280,152,99,204,80,40,25,264,271,11]",5,6,1,0,0,0,5,5,5,1,,,
,,,,,,,,,,,,,FF,,,,,,,,1.16856,,,,,,,,,,,,,,,,,,,,,,,607071077825ce1b96d83505,60a7d7fac73f242a1e511092,2021-05-21_17h58.52.417,Simcolourproject_2stim_asymm_v5,2020.2.10,Win32,60,60a5f9bf14d0aa2821c4bb84,,,,,3965,-71,34,1,0,0,response7disk,,1,-8,1,1,0,0,rectangle,-8,1,1,0,0,7,"[138,73,85,105,160,266,215,219,279,129,280,152,99,204,80,40,25,264,271,11]",-8,1,1,0,0,0,6,6,158,1,,,
,,,,,,,,,,,,,FF,,,,,,,,1.666215,,,,,,,,,,,,,,,,,,,,,,,607071077825ce1b96d83505,60a7d7fac73f242a1e511092,2021-05-21_17h58.52.417,Simcolourproject_2stim_asymm_v5,2020.2.10,Win32,60,60a5f9bf14d0aa2821c4bb84,,,,,1534,23,-48,1,0,0,response3disk,,4,-11,0,1,0,0,rectangle,-11,0,1,0,0,7,"[138,73,85,105,160,266,215,219,279,129,280,152,99,204,80,40,25,264,271,11]",-11,0,1,0,0,0,7,7,80,1,,,
,,,,,,,,,,,,,FF,,,,,,,,1.250955,,,,,,,,,,,,,,,,,,,,,,,607071077825ce1b96d83505,60a7d7fac73f242a1e511092,2021-05-21_17h58.52.417,Simcolourproject_2stim_asymm_v5,2020.2.10,Win32,60,60a5f9bf14d0aa2821c4bb84,,,,,3366,88,36,1,0,0,response1disk,,6,10,4,1,0,0,rectangle,10,4,1,0,0,5,"[138,73,85,105,160,266,215,219,279,129,280,152,99,204,80,40,25,264,271,11]",10,4,1,0,0,0,8,8,159,1,,,
,,,,,,,,,,,,,FF,,,,,,,,1.503755,,,,,,,,,,,,,,,,,,,,,,,607071077825ce1b96d83505,60a7d7fac73f242a1e511092,2021-05-21_17h58.52.417,Simcolourproject_2stim_asymm_v5,2020.2.10,Win32,60,60a5f9bf14d0aa2821c4bb84,,,,,4367,-65,-26,1,0,0,response5disk,,6,18,0,1,0,0,rectangle,18,0,1,0,0,4,"[138,73,85,105,160,266,215,219,279,129,280,152,99,204,80,40,25,264,271,11]",18,0,1,0,0,0,9,9,160,1,,,
,,,,,,,,,,,,,FF,,,,,,,,1.40479,,,,,,,,,,,,,,,,,,,,,,,607071077825ce1b96d83505,60a7d7fac73f242a1e511092,2021-05-21_17h58.52.417,Simcolourproject_2stim_asymm_v5,2020.2.10,Win32,60,60a5f9bf14d0aa2821c4bb84,,,,,670,43,-59,1,0,0,response3disk,,4,5,-6,1,0,0,rectangle,-47,86,1,0,0,0,"[138,73,85,105,160,266,215,219,279,129,280,152,99,204,80,40,25,264,271,11]",10,3,1,0,0,0,10,10,97,1,,response7disk_3,rectangle
,,,,,,,,,,,,,FF,,,,,,,,3.63399,,,,,,,,,,,,,,,,,,,,,,,607071077825ce1b96d83505,60a7d7fac73f242a1e511092,2021-05-21_17h58.52.417,Simcolourproject_2stim_asymm_v5,2020.2.10,Win32,60,60a5f9bf14d0aa2821c4bb84,,,,,642,55,-78,1,0,0,response3disk,,4,-13,10,1,0,0,rectangle,-13,10,1,0,0,2,"[138,73,85,105,160,266,215,219,279,129,280,152,99,204,80,40,25,264,271,11]",-13,10,1,0,0,0,11,11,81,1,,,
,,,,,,,,,,,,,FF,,,,,,,,1.69887,,,,,,,,,,,,,,,,,,,,,,,607071077825ce1b96d83505,60a7d7fac73f242a1e511092,2021-05-21_17h58.52.417,Simcolourproject_2stim_asymm_v5,2020.2.10,Win32,60,60a5f9bf14d0aa2821c4bb84,,,,,3683,-52,-86,1,0,0,response5disk,,3,-6,7,1,0,0,rectangle,-6,7,1,0,0,3,"[138,73,85,105,160,266,215,219,279,129,280,152,99,204,80,40,25,264,271,11]",-6,7,1,0,0,0,12,12,79,1,,,
,,,,,,,,,,,,,FF,,,,,,,,9.49727,,,,,,,,,,,,,,,,,,,,,,,607071077825ce1b96d83505,60a7d7fac73f242a1e511092,2021-05-21_17h58.52.417,Simcolourproject_2stim_asymm_v5,2020.2.10,Win32,60,60a5f9bf14d0aa2821c4bb84,,,,,1246,87,-52,1,0,0,response3disk,,5,5,5,1,0,0,rectangle,5,5,1,0,0,5,"[138,73,85,105,160,266,215,219,279,129,280,152,99,204,80,40,25,264,271,11]",5,5,1,0,0,0,13,13,99,1,,,
,,,,,,,,,,,,,FF,,,,,,,,1.117235,,,,,,,,,,,,,,,,,,,,,,,607071077825ce1b96d83505,60a7d7fac73f242a1e511092,2021-05-21_17h58.52.417,Simcolourproject_2stim_asymm_v5,2020.2.10,Win32,60,60a5f9bf14d0aa2821c4bb84,,,,,2579,99,36,1,0,0,response1disk,,6,-12,-1,1,0,0,rectangle,-12,-1,1,0,0,7,"[138,73,85,105,160,266,215,219,279,129,280,152,99,204,80,40,25,264,271,11]",-12,-1,1,0,0,0,14,14,24,1,,,
,,,,,,,,,,,,,FF,,,,,,,,1.1671,,,,,,,,,,,,,,,,,,,,,,,607071077825ce1b96d83505,60a7d7fac73f242a1e511092,2021-05-21_17h58.52.417,Simcolourproject_2stim_asymm_v5,2020.2.10,Win32,60,60a5f9bf14d0aa2821c4bb84,,,,,1046,83,35,1,0,0,response1disk,,6,1,4,1,0,0,rectangle,1,4,1,0,0,7,"[138,73,85,105,160,266,215,219,279,129,280,152,99,204,80,40,25,264,271,11]",1,4,1,0,0,0,15,15,62,1,,,
,,,,,,,,,,,,,FF,,,,,,,,1.16717,,,,,,,,,,,,,,,,,,,,,,,607071077825ce1b96d83505,60a7d7fac73f242a1e511092,2021-05-21_17h58.52.417,Simcolourproject_2stim_asymm_v5,2020.2.10,Win32,60,60a5f9bf14d0aa2821c4bb84,,,,,2361,-59,-33,1,0,0,response5disk,,6,22,5,1,0,0,rectangle,22,5,1,0,0,4,"[138,73,85,105,160,266,215,219,279,129,280,152,99,204,80,40,25,264,271,11]",22,5,1,0,0,0,16,16,150,1,,,
,,,,,,,,,,,,,FF,,,,,,,,2.049045,,,,,,,,,,,,,,,,,,,,,,,607071077825ce1b96d83505,60a7d7fac73f242a1e511092,2021-05-21_17h58.52.417,Simcolourproject_2stim_asymm_v5,2020.2.10,Win32,60,60a5f9bf14d0aa2821c4bb84,,,,,244,96,-44,1,0,0,response3disk,,5,-5,3,1,0,0,rectangle,-5,3,1,0,0,5,"[138,73,85,105,160,266,215,219,279,129,280,152,99,204,80,40,25,264,271,11]",-5,3,1,0,0,0,17,17,129,1,,,
,,,,,,,,,,,,,FF,,,,,,,,0.968775,,,,,,,,,,,,,,,,,,,,,,,607071077825ce1b96d83505,60a7d7fac73f242a1e511092,2021-05-21_17h58.52.417,Simcolourproject_2stim_asymm_v5,2020.2.10,Win32,60,60a5f9bf14d0aa2821c4bb84,,,,,1875,84,31,1,0,0,response1disk,,6,6,3,1,0,0,rectangle,6,3,1,0,0,5,"[138,73,85,105,160,266,215,219,279,129,280,152,99,204,80,40,25,264,271,11]",6,3,1,0,0,0,18,18,29,1,,,
,,,,,,,,,,,,,FF,,,,,,,,1.483165,,,,,,,,,,,,,,,,,,,,,,,607071077825ce1b96d83505,60a7d7fac73f242a1e511092,2021-05-21_17h58.52.417,Simcolourproject_2stim_asymm_v5,2020.2.10,Win32,60,60a5f9bf14d0aa2821c4bb84,,,,,2891,-40,-80,1,0,0,response5disk,,3,-8,3,1,0,0,rectangle,-8,3,1,0,0,0,"[138,73,85,105,160,266,215,219,279,129,280,152,99,204,80,40,25,264,271,11]",-8,3,1,0,0,0,19,19,57,1,,,
,,,,,,,,,,,,,FF,,,,,,,,8.850395,,,,,,,,,,,,,,,,,,,,,,,607071077825ce1b96d83505,60a7d7fac73f242a1e511092,2021-05-21_17h58.52.417,Simcolourproject_2stim_asymm_v5,2020.2.10,Win32,60,60a5f9bf14d0aa2821c4bb84,,,,,482,73,32,1,0,0,response1disk,,6,-6,-1,1,0,0,rectangle,-6,-1,1,0,0,2,"[138,73,85,105,160,266,215,219,279,129,280,152,99,204,80,40,25,264,271,11]",-6,-1,1,0,0,0,20,20,77,1,,,
,,,,,,,,,,,,,FF,,,,,,,,2.05066,,,,,,,,,,,,,,,,,,,,,,,607071077825ce1b96d83505,60a7d7fac73f242a1e511092,2021-05-21_17h58.52.417,Simcolourproject_2stim_asymm_v5,2020.2.10,Win32,60,60a5f9bf14d0aa2821c4bb84,,,,,883,88,-46,1,0,0,response3disk,,5,2,-9,1,0,0,rectangle,2,-9,1,0,0,0,"[138,73,85,105,160,266,215,219,279,129,280,152,99,204,80,40,25,264,271,11]",2,-9,1,0,0,0,21,21,134,1,,,
,,,,,,,,,,,,,FF,,,,,,,,1.917275,,,,,,,,,,,,,,,,,,,,,,,607071077825ce1b96d83505,60a7d7fac73f242a1e511092,2021-05-21_17h58.52.417,Simcolourproject_2stim_asymm_v5,2020.2.10,Win32,60,60a5f9bf14d0aa2821c4bb84,,,,,2058,84,31,1,0,0,response1disk,,6,5,-4,1,0,0,rectangle,5,-4,1,0,0,6,"[138,73,85,105,160,266,215,219,279,129,280,152,99,204,80,40,25,264,271,11]",5,-4,1,0,0,0,22,22,106,1,,,
,,,,,,,,,,,,,FF,,,,,,,,0.634035,,,,,,,,,,,,,,,,,,,,,,,607071077825ce1b96d83505,60a7d7fac73f242a1e511092,2021-05-21_17h58.52.417,Simcolourproject_2stim_asymm_v5,2020.2.10,Win32,60,60a5f9bf14d0aa2821c4bb84,,,,,623,76,33,1,0,0,response1disk,,6,17,4,1,0,0,rectangle,17,4,1,0,0,1,"[138,73,85,105,160,266,215,219,279,129,280,152,99,204,80,40,25,264,271,11]",17,4,1,0,0,0,23,23,50,1,,,
,,,,,,,,,,,,,FF,,,,,,,,1.701425,,,,,,,,,,,,,,,,,,,,,,,607071077825ce1b96d83505,60a7d7fac73f242a1e511092,2021-05-21_17h58.52.417,Simcolourproject_2stim_asymm_v5,2020.2.10,Win32,60,60a5f9bf14d0aa2821c4bb84,,,,,2925,52,70,1,0,0,response1disk,,7,9,-4,1,0,0,rectangle,36,76,1,0,0,7,"[138,73,85,105,160,266,215,219,279,129,280,152,99,204,80,40,25,264,271,11]",7,-4,1,0,0,0,24,24,37,1,,response1disk_3,rectangle
,,,,,,,,,,,,,FF,,,,,,,,1.46845,,,,,,,,,,,,,,,,,,,,,,,607071077825ce1b96d83505,60a7d7fac73f242a1e511092,2021-05-21_17h58.52.417,Simcolourproject_2stim_asymm_v5,2020.2.10,Win32,60,60a5f9bf14d0aa2821c4bb84,,,,,3725,58,-28,1,0,0,response3disk,,5,10,-1,1,0,0,rectangle,10,-1,1,0,0,5,"[138,73,85,105,160,266,215,219,279,129,280,152,99,204,80,40,25,264,271,11]",10,-1,1,0,0,0,25,25,118,1,,,
,,,,,,,,,,,,,FF,,,,,,,,0.93378,,,,,,,,,,,,,,,,,,,,,,,607071077825ce1b96d83505,60a7d7fac73f242a1e511092,2021-05-21_17h58.52.417,Simcolourproject_2stim_asymm_v5,2020.2.10,Win32,60,60a5f9bf14d0aa2821c4bb84,,,,,4317,58,30,1,0,0,response1disk,,6,9,-4,1,0,0,rectangle,9,-4,1,0,0,1,"[138,73,85,105,160,266,215,219,279,129,280,152,99,204,80,40,25,264,271,11]",9,-4,1,0,0,0,26,26,83,1,,,
,,,,,,,,,,,,,FF,,,,,,,,1.36793,,,,,,,,,,,,,,,,,,,,,,,607071077825ce1b96d83505,60a7d7fac73f242a1e511092,2021-05-21_17h58.52.417,Simcolourproject_2stim_asymm_v5,2020.2.10,Win32,60,60a5f9bf14d0aa2821c4bb84,,,,,1214,31,-68,1,0,0,response3disk,,4,6,3,1,0,0,rectangle,6,3,1,0,0,6,"[138,73,85,105,160,266,215,219,279,129,280,152,99,204,80,40,25,264,271,11]",6,3,1,0,0,0,27,27,8,1,,,
,,,,,,,,,,,,,FF,,,,,,,,1.250185,,,,,,,,,,,,,,,,,,,,,,,607071077825ce1b96d83505,60a7d7fac73f242a1e511092,2021-05-21_17h58.52.417,Simcolourproject_2stim_asymm_v5,2020.2.10,Win32,60,60a5f9bf14d0aa2821c4bb84,,,,,1516,51,-33,1,0,0,response3disk,,5,10,-7,1,0,0,rectangle,10,-7,1,0,0,3,"[138,73,85,105,160,266,215,219,279,129,280,152,99,204,80,40,25,264,271,11]",10,-7,1,0,0,0,28,28,48,1,,,
,,,,,,,,,,,,,FF,,,,,,,,1.06846,,,,,,,,,,,,,,,,,,,,,,,607071077825ce1b96d83505,60a7d7fac73f242a1e511092,2021-05-21_17h58.52.417,Simcolourproject_2stim_asymm_v5,2020.2.10,Win32,60,60a5f9bf14d0aa2821c4bb84,,,,,1924,82,28,1,0,0,response1disk,,6,-7,-7,1,0,0,rectangle,-7,-7,1,0,0,7,"[138,73,85,105,160,266,215,219,279,129,280,152,99,204,80,40,25,264,271,11]",-7,-7,1,0,0,0,29,29,124,1,,,
,,,,,,,,,,,,,FF,,,,,,,,1.183445,,,,,,,,,,,,,,,,,,,,,,,607071077825ce1b96d83505,60a7d7fac73f242a1e511092,2021-05-21_17h58.52.417,Simcolourproject_2stim_asymm_v5,2020.2.10,Win32,60,60a5f9bf14d0aa2821c4bb84,,,,,3940,-25,-62,1,0,0,response5disk,,3,12,6,1,0,0,rectangle,12,6,1,0,0,3,"[138,73,85,105,160,266,215,219,279,129,280,152,99,204,80,40,25,264,271,11]",12,6,1,0,0,0,30,30,11,1,,,
,,,,,,,,,,,,,FF,,,,,,,,1.316635,,,,,,,,,,,,,,,,,,,,,,,607071077825ce1b96d83505,60a7d7fac73f242a1e511092,2021-05-21_17h58.52.417,Simcolourproject_2stim_asymm_v5,2020.2.10,Win32,60,60a5f9bf14d0aa2821c4bb84,,,,,1195,57,29,1,0,0,response1disk,,6,-4,-5,1,0,0,rectangle,-4,-5,1,0,0,1,"[138,73,85,105,160,266,215,219,279,129,280,152,99,204,80,40,25,264,271,11]",-4,-5,1,0,0,0,31,31,86,1,,,
,,,,,,,,,,,,,FF,,,,,,,,1.050425,,,,,,,,,,,,,,,,,,,,,,,607071077825ce1b96d83505,60a7d7fac73f242a1e511092,2021-05-21_17h58.52.417,Simcolourproject_2stim_asymm_v5,2020.2.10,Win32,60,60a5f9bf14d0aa2821c4bb84,,,,,588,44,67,1,0,0,response1disk,,7,4,14,1,0,0,rectangle,4,14,1,0,0,5,"[138,73,85,105,160,266,215,219,279,129,280,152,99,204,80,40,25,264,271,11]",4,14,1,0,0,0,32,32,66,1,,,
,,,,,,,,,,,,,FF,,,,,,,,1.05122,,,,,,,,,,,,,,,,,,,,,,,607071077825ce1b96d83505,60a7d7fac73f242a1e511092,2021-05-21_17h58.52.417,Simcolourproject_2stim_asymm_v5,2020.2.10,Win32,60,60a5f9bf14d0aa2821c4bb84,,,,,4291,39,71,1,0,0,response1disk,,7,7,-9,1,0,0,rectangle,7,-9,1,0,0,6,"[138,73,85,105,160,266,215,219,279,129,280,152,99,204,80,40,25,264,271,11]",7,-9,1,0,0,0,33,33,90,1,,,
,,,,,,,,,,,,,FF,,,,,,,,0.8164,,,,,,,,,,,,,,,,,,,,,,,607071077825ce1b96d83505,60a7d7fac73f242a1e511092,2021-05-21_17h58.52.417,Simcolourproject_2stim_asymm_v5,2020.2.10,Win32,60,60a5f9bf14d0aa2821c4bb84,,,,,1094,39,66,1,0,0,response1disk,,7,15,3,1,0,0,rectangle,15,3,1,0,0,3,"[138,73,85,105,160,266,215,219,279,129,280,152,99,204,80,40,25,264,271,11]",15,3,1,0,0,0,34,34,117,1,,,
,,,,,,,,,,,,,FF,,,,,,,,0.98347,,,,,,,,,,,,,,,,,,,,,,,607071077825ce1b96d83505,60a7d7fac73f242a1e511092,2021-05-21_17h58.52.417,Simcolourproject_2stim_asymm_v5,2020.2.10,Win32,60,60a5f9bf14d0aa2821c4bb84,,,,,3702,55,32,1,0,0,response1disk,,6,7,1,1,0,0,rectangle,7,1,1,0,0,5,"[138,73,85,105,160,266,215,219,279,129,280,152,99,204,80,40,25,264,271,11]",7,1,1,0,0,0,35,35,71,1,,,
,,,,,,,,,,,,,FF,,,,,,,,1.183415,,,,,,,,,,,,,,,,,,,,,,,607071077825ce1b96d83505,60a7d7fac73f242a1e511092,2021-05-21_17h58.52.417,Simcolourproject_2stim_asymm_v5,2020.2.10,Win32,60,60a5f9bf14d0aa2821c4bb84,,,,,130,73,30,1,0,0,response1disk,,6,-2,-6,1,0,0,rectangle,-2,-6,1,0,0,1,"[138,73,85,105,160,266,215,219,279,129,280,152,99,204,80,40,25,264,271,11]",-2,-6,1,0,0,0,36,36,149,1,,,
,,,,,,,,,,,,,FF,,,,,,,,0.649205,,,,,,,,,,,,,,,,,,,,,,,607071077825ce1b96d83505,60a7d7fac73f242a1e511092,2021-05-21_17h58.52.417,Simcolourproject_2stim_asymm_v5,2020.2.10,Win32,60,60a5f9bf14d0aa2821c4bb84,,,,,2968,63,38,1,0,0,response1disk,,6,2,-9,1,0,0,rectangle,2,-9,1,0,0,1,"[138,73,85,105,160,266,215,219,279,129,280,152,99,204,80,40,25,264,271,11]",2,-9,1,0,0,0,37,37,110,1,,,
,,,,,,,,,,,,,FF,,,,,,,,0.950785,,,,,,,,,,,,,,,,,,,,,,,607071077825ce1b96d83505,60a7d7fac73f242a1e511092,2021-05-21_17h58.52.417,Simcolourproject_2stim_asymm_v5,2020.2.10,Win32,60,60a5f9bf14d0aa2821c4bb84,,,,,2235,-57,-35,1,0,0,response5disk,,6,7,4,1,0,0,rectangle,7,4,1,0,0,3,"[138,73,85,105,160,266,215,219,279,129,280,152,99,204,80,40,25,264,271,11]",7,4,1,0,0,0,38,38,55,1,,,
,,,,,,,,,,,,,FF,,,,,,,,0.750515,,,,,,,,,,,,,,,,,,,,,,,607071077825ce1b96d83505,60a7d7fac73f242a1e511092,2021-05-21_17h58.52.417,Simcolourproject_2stim_asymm_v5,2020.2.10,Win32,60,60a5f9bf14d0aa2821c4bb84,,,,,403,65,-26,1,0,0,response3disk,,5,17,2,1,0,0,rectangle,22,-78,1,0,0,4,"[138,73,85,105,160,266,215,219,279,129,280,152,99,204,80,40,25,264,271,11]",7,1,1,0,0,0,39,39,52,1,,response3disk_3,rectangle
,,,,,,,,,,,,,FF,,,,,,,,7.6994,,,,,,,,,,,,,,,,,,,,,,,607071077825ce1b96d83505,60a7d7fac73f242a1e511092,2021-05-21_17h58.52.417,Simcolourproject_2stim_asymm_v5,2020.2.10,Win32,60,60a5f9bf14d0aa2821c4bb84,,,,,314,107,-44,1,0,0,response3disk,,5,3,5,1,0,0,rectangle,3,5,1,0,0,2,"[138,73,85,105,160,266,215,219,279,129,280,152,99,204,80,40,25,264,271,11]",3,5,1,0,0,0,40,40,74,1,,,
,,,,,,,,,,,,,FF,,,,,,,,1.350645,,,,,,,,,,,,,,,,,,,,,,,607071077825ce1b96d83505,60a7d7fac73f242a1e511092,2021-05-21_17h58.52.417,Simcolourproject_2stim_asymm_v5,2020.2.10,Win32,60,60a5f9bf14d0aa2821c4bb84,,,,,791,45,-65,1,0,0,response3disk,,4,15,-3,1,0,0,rectangle,15,-3,1,0,0,3,"[138,73,85,105,160,266,215,219,279,129,280,152,99,204,80,40,25,264,271,11]",15,-3,1,0,0,0,41,41,4,1,,,
,,,,,,,,,,,,,FF,,,,,,,,0.999945,,,,,,,,,,,,,,,,,,,,,,,607071077825ce1b96d83505,60a7d7fac73f242a1e511092,2021-05-21_17h58.52.417,Simcolourproject_2stim_asymm_v5,2020.2.10,Win32,60,60a5f9bf14d0aa2821c4bb84,,,,,3041,87,-36,1,0,0,response3disk,,5,-25,3,1,0,0,rectangle,-25,3,1,0,0,1,"[138,73,85,105,160,266,215,219,279,129,280,152,99,204,80,40,25,264,271,11]",-25,3,1,0,0,0,42,42,119,1,,,
,,,,,,,,,,,,,FF,,,,,,,,1.165955,,,,,,,,,,,,,,,,,,,,,,,607071077825ce1b96d83505,60a7d7fac73f242a1e511092,2021-05-21_17h58.52.417,Simcolourproject_2stim_asymm_v5,2020.2.10,Win32,60,60a5f9bf14d0aa2821c4bb84,,,,,3202,39,-59,1,0,0,response3disk,,4,2,0,1,0,0,rectangle,2,0,1,0,0,5,"[138,73,85,105,160,266,215,219,279,129,280,152,99,204,80,40,25,264,271,11]",2,0,1,0,0,0,43,43,30,1,,,
,,,,,,,,,,,,,FF,,,,,,,,1.085085,,,,,,,,,,,,,,,,,,,,,,,607071077825ce1b96d83505,60a7d7fac73f242a1e511092,2021-05-21_17h58.52.417,Simcolourproject_2stim_asymm_v5,2020.2.10,Win32,60,60a5f9bf14d0aa2821c4bb84,,,,,444,-29,-62,1,0,0,response5disk,,3,-12,-11,1,0,0,rectangle,-12,-11,1,0,0,3,"[138,73,85,105,160,266,215,219,279,129,280,152,99,204,80,40,25,264,271,11]",-12,-11,1,0,0,0,44,44,153,1,,,
,,,,,,,,,,,,,FF,,,,,,,,0.616655,,,,,,,,,,,,,,,,,,,,,,,607071077825ce1b96d83505,60a7d7fac73f242a1e511092,2021-05-21_17h58.52.417,Simcolourproject_2stim_asymm_v5,2020.2.10,Win32,60,60a5f9bf14d0aa2821c4bb84,,,,,2110,72,31,1,0,0,response1disk,,6,-7,1,1,0,0,rectangle,-7,1,1,0,0,0,"[138,73,85,105,160,266,215,219,279,129,280,152,99,204,80,40,25,264,271,11]",-7,1,1,0,0,0,45,45,32,1,,,
,,,,,,,,,,,,,FF,,,,,,,,0.616125,,,,,,,,,,,,,,,,,,,,,,,607071077825ce1b96d83505,60a7d7fac73f242a1e511092,2021-05-21_17h58.52.417,Simcolourproject_2stim_asymm_v5,2020.2.10,Win32,60,60a5f9bf14d0aa2821c4bb84,,,,,3587,58,31,1,0,0,response1disk,,6,9,-7,1,0,0,rectangle,9,-7,1,0,0,1,"[138,73,85,105,160,266,215,219,279,129,280,152,99,204,80,40,25,264,271,11]",9,-7,1,0,0,0,46,46,12,1,,,
,,,,,,,,,,,,,FF,,,,,,,,0.966815,,,,,,,,,,,,,,,,,,,,,,,607071077825ce1b96d83505,60a7d7fac73f242a1e511092,2021-05-21_17h58.52.417,Simcolourproject_2stim_asymm_v5,2020.2.10,Win32,60,60a5f9bf14d0aa2821c4bb84,,,,,2369,60,-35,1,0,0,response3disk,,5,5,-1,1,0,0,rectangle,5,-1,1,0,0,1,"[138,73,85,105,160,266,215,219,279,129,280,152,99,204,80,40,25,264,271,11]",5,-1,1,0,0,0,47,47,53,1,,,
,,,,,,,,,,,,,FF,,,,,,,,0.59999,,,,,,,,,,,,,,,,,,,,,,,607071077825ce1b96d83505,60a7d7fac73f242a1e511092,2021-05-21_17h58.52.417,Simcolourproject_2stim_asymm_v5,2020.2.10,Win32,60,60a5f9bf14d0aa2821c4bb84,,,,,4069,49,85,1,0,0,response1disk,,7,14,-2,1,0,0,rectangle,14,-2,1,0,0,2,"[138,73,85,105,160,266,215,219,279,129,280,152,99,204,80,40,25,264,271,11]",14,-2,1,0,0,0,48,48,64,1,,,
,,,,,,,,,,,,,FF,,,,,,,,0.599915,,,,,,,,,,,,,,,,,,,,,,,607071077825ce1b96d83505,60a7d7fac73f242a1e511092,2021-05-21_17h58.52.417,Simcolourproject_2stim_asymm_v5,2020.2.10,Win32,60,60a5f9bf14d0aa2821c4bb84,,,,,768,71,26,1,0,0,response1disk,,6,14,-1,1,0,0,rectangle,14,-1,1,0,0,0,"[138,73,85,105,160,266,215,219,279,129,280,152,99,204,80,40,25,264,271,11]",14,-1,1,0,0,0,49,49,108,1,,,
,,,,,,,,,,,,,FF,,,,,,,,1.550345,,,,,,,,,,,,,,,,,,,,,,,607071077825ce1b96d83505,60a7d7fac73f242a1e511092,2021-05-21_17h58.52.417,Simcolourproject_2stim_asymm_v5,2020.2.10,Win32,60,60a5f9bf14d0aa2821c4bb84,,,,,387,75,41,1,0,0,response1disk,,6,0,4,1,0,0,rectangle,0,4,1,0,0,0,"[138,73,85,105,160,266,215,219,279,129,280,152,99,204,80,40,25,264,271,11]",0,4,1,0,0,0,50,50,130,1,,,
,,,,,,,,,,,,,FF,,,,,,,,1.41656,,,,,,,,,,,,,,,,,,,,,,,607071077825ce1b96d83505,60a7d7fac73f242a1e511092,2021-05-21_17h58.52.417,Simcolourproject_2stim_asymm_v5,2020.2.10,Win32,60,60a5f9bf14d0aa2821c4bb84,,,,,1885,50,98,1,0,0,response1disk,,7,3,-11,1,0,0,rectangle,3,-11,1,0,0,5,"[138,73,85,105,160,266,215,219,279,129,280,152,99,204,80,40,25,264,271,11]",3,-11,1,0,0,0,51,51,139,1,,,
,,,,,,,,,,,,,FF,,,,,,,,1.1671,,,,,,,,,,,,,,,,,,,,,,,607071077825ce1b96d83505,60a7d7fac73f242a1e511092,2021-05-21_17h58.52.417,Simcolourproject_2stim_asymm_v5,2020.2.10,Win32,60,60a5f9bf14d0aa2821c4bb84,,,,,2715,73,-35,1,0,0,response3disk,,5,8,-14,1,0,0,rectangle,8,-14,1,0,0,3,"[138,73,85,105,160,266,215,219,279,129,280,152,99,204,80,40,25,264,271,11]",8,-14,1,0,0,0,52,52,123,1,,,
,,,,,,,,,,,,,FF,,,,,,,,0.58414,,,,,,,,,,,,,,,,,,,,,,,607071077825ce1b96d83505,60a7d7fac73f242a1e511092,2021-05-21_17h58.52.417,Simcolourproject_2stim_asymm_v5,2020.2.10,Win32,60,60a5f9bf14d0aa2821c4bb84,,,,,495,63,-34,1,0,0,response3disk,,5,4,4,1,0,0,rectangle,4,4,1,0,0,1,"[138,73,85,105,160,266,215,219,279,129,280,152,99,204,80,40,25,264,271,11]",4,4,1,0,0,0,53,53,7,1,,,
,,,,,,,,,,,,,FF,,,,,,,,0.565275,,,,,,,,,,,,,,,,,,,,,,,607071077825ce1b96d83505,60a7d7fac73f242a1e511092,2021-05-21_17h58.52.417,Simcolourproject_2stim_asymm_v5,2020.2.10,Win32,60,60a5f9bf14d0aa2821c4bb84,,,,,2129,59,25,1,0,0,response1disk,,6,2,-2,1,0,0,rectangle,2,-2,1,0,0,3,"[138,73,85,105,160,266,215,219,279,129,280,152,99,204,80,40,25,264,271,11]",2,-2,1,0,0,0,54,54,41,1,,,
,,,,,,,,,,,,,FF,,,,,,,,1.749865,,,,,,,,,,,,,,,,,,,,,,,607071077825ce1b96d83505,60a7d7fac73f242a1e511092,2021-05-21_17h58.52.417,Simcolourproject_2stim_asymm_v5,2020.2.10,Win32,60,60a5f9bf14d0aa2821c4bb84,,,,,892,64,-30,1,0,0,response3disk,,5,0,-8,1,0,0,rectangle,0,-8,1,0,0,0,"[138,73,85,105,160,266,215,219,279,129,280,152,99,204,80,40,25,264,271,11]",0,-8,1,0,0,0,55,55,51,1,,,
,,,,,,,,,,,,,FF,,,,,,,,0.733085,,,,,,,,,,,,,,,,,,,,,,,607071077825ce1b96d83505,60a7d7fac73f242a1e511092,2021-05-21_17h58.52.417,Simcolourproject_2stim_asymm_v5,2020.2.10,Win32,60,60a5f9bf14d0aa2821c4bb84,,,,,57,46,31,1,0,0,response1disk,,6,-1,9,1,0,0,rectangle,-1,9,1,0,0,7,"[138,73,85,105,160,266,215,219,279,129,280,152,99,204,80,40,25,264,271,11]",-1,9,1,0,0,0,56,56,40,1,,,
,,,,,,,,,,,,,FF,,,,,,,,0.616325,,,,,,,,,,,,,,,,,,,,,,,607071077825ce1b96d83505,60a7d7fac73f242a1e511092,2021-05-21_17h58.52.417,Simcolourproject_2stim_asymm_v5,2020.2.10,Win32,60,60a5f9bf14d0aa2821c4bb84,,,,,506,52,28,1,0,0,response1disk,,6,2,2,1,0,0,rectangle,2,2,1,0,0,5,"[138,73,85,105,160,266,215,219,279,129,280,152,99,204,80,40,25,264,271,11]",2,2,1,0,0,0,57,57,109,1,,,
,,,,,,,,,,,,,FF,,,,,,,,0.802165,,,,,,,,,,,,,,,,,,,,,,,607071077825ce1b96d83505,60a7d7fac73f242a1e511092,2021-05-21_17h58.52.417,Simcolourproject_2stim_asymm_v5,2020.2.10,Win32,60,60a5f9bf14d0aa2821c4bb84,,,,,1210,58,-39,1,0,0,response3disk,,5,-4,-9,1,0,0,rectangle,-4,-9,1,0,0,3,"[138,73,85,105,160,266,215,219,279,129,280,152,99,204,80,40,25,264,271,11]",-4,-9,1,0,0,0,58,58,14,1,,,
,,,,,,,,,,,,,FF,,,,,,,,0.63305,,,,,,,,,,,,,,,,,,,,,,,607071077825ce1b96d83505,60a7d7fac73f242a1e511092,2021-05-21_17h58.52.417,Simcolourproject_2stim_asymm_v5,2020.2.10,Win32,60,60a5f9bf14d0aa2821c4bb84,,,,,835,68,-31,1,0,0,response3disk,,5,5,2,1,0,0,rectangle,5,2,1,0,0,2,"[138,73,85,105,160,266,215,219,279,129,280,152,99,204,80,40,25,264,271,11]",5,2,1,0,0,0,59,59,26,1,,,
,,,,,,,,,,,,,FF,,,,,,,,0.50038,,,,,,,,,,,,,,,,,,,,,,,607071077825ce1b96d83505,60a7d7fac73f242a1e511092,2021-05-21_17h58.52.417,Simcolourproject_2stim_asymm_v5,2020.2.10,Win32,60,60a5f9bf14d0aa2821c4bb84,,,,,3896,71,27,1,0,0,response1disk,,6,-2,-4,1,0,0,rectangle,-2,-4,1,0,0,4,"[138,73,85,105,160,266,215,219,279,129,280,152,99,204,80,40,25,264,271,11]",-2,-4,1,0,0,0,60,60,19,1,,,
,,,,,,,,,,,,,FF,,,,,,,,0.884535,,,,,,,,,,,,,,,,,,,,,,,607071077825ce1b96d83505,60a7d7fac73f242a1e511092,2021-05-21_17h58.52.417,Simcolourproject_2stim_asymm_v5,2020.2.10,Win32,60,60a5f9bf14d0aa2821c4bb84,,,,,1123,62,26,1,0,0,response1disk,,6,2,3,1,0,0,rectangle,2,3,1,0,0,4,"[138,73,85,105,160,266,215,219,279,129,280,152,99,204,80,40,25,264,271,11]",2,3,1,0,0,0,61,61,28,1,,,
,,,,,,,,,,,,,FF,,,,,,,,0.70024,,,,,,,,,,,,,,,,,,,,,,,607071077825ce1b96d83505,60a7d7fac73f242a1e511092,2021-05-21_17h58.52.417,Simcolourproject_2stim_asymm_v5,2020.2.10,Win32,60,60a5f9bf14d0aa2821c4bb84,,,,,2233,-32,-61,1,0,0,response5disk,,3,-16,-7,1,0,0,rectangle,-16,-7,1,0,0,6,"[138,73,85,105,160,266,215,219,279,129,280,152,99,204,80,40,25,264,271,11]",-16,-7,1,0,0,0,62,62,107,1,,,
,,,,,,,,,,,,,FF,,,,,,,,1.26817,,,,,,,,,,,,,,,,,,,,,,,607071077825ce1b96d83505,60a7d7fac73f242a1e511092,2021-05-21_17h58.52.417,Simcolourproject_2stim_asymm_v5,2020.2.10,Win32,60,60a5f9bf14d0aa2821c4bb84,,,,,3144,60,-28,1,0,0,response3disk,,5,14,6,1,0,0,rectangle,14,6,1,0,0,2,"[138,73,85,105,160,266,215,219,279,129,280,152,99,204,80,40,25,264,271,11]",14,6,1,0,0,0,63,63,0,1,,,
,,,,,,,,,,,,,FF,,,,,,,,1.2019,,,,,,,,,,,,,,,,,,,,,,,607071077825ce1b96d83505,60a7d7fac73f242a1e511092,2021-05-21_17h58.52.417,Simcolourproject_2stim_asymm_v5,2020.2.10,Win32,60,60a5f9bf14d0aa2821c4bb84,,,,,3472,33,-73,1,0,0,response3disk,,4,-2,2,1,0,0,rectangle,-2,2,1,0,0,1,"[138,73,85,105,160,266,215,219,279,129,280,152,99,204,80,40,25,264,271,11]",-2,2,1,0,0,0,64,64,95,1,,,
,,,,,,,,,,,,,FF,,,,,,,,0.967495,,,,,,,,,,,,,,,,,,,,,,,607071077825ce1b96d83505,60a7d7fac73f242a1e511092,2021-05-21_17h58.52.417,Simcolourproject_2stim_asymm_v5,2020.2.10,Win32,60,60a5f9bf14d0aa2821c4bb84,,,,,1029,79,-34,1,0,0,response3disk,,5,-13,4,1,0,0,rectangle,-13,4,1,0,0,7,"[138,73,85,105,160,266,215,219,279,129,280,152,99,204,80,40,25,264,271,11]",-13,4,1,0,0,0,65,65,145,1,,,
,,,,,,,,,,,,,FF,,,,,,,,0.56667,,,,,,,,,,,,,,,,,,,,,,,607071077825ce1b96d83505,60a7d7fac73f242a1e511092,2021-05-21_17h58.52.417,Simcolourproject_2stim_asymm_v5,2020.2.10,Win32,60,60a5f9bf14d0aa2821c4bb84,,,,,3866,79,37,1,0,0,response1disk,,6,15,3,1,0,0,rectangle,15,3,1,0,0,7,"[138,73,85,105,160,266,215,219,279,129,280,152,99,204,80,40,25,264,271,11]",15,3,1,0,0,0,66,66,42,1,,,
,,,,,,,,,,,,,FF,,,,,,,,0.663325,,,,,,,,,,,,,,,,,,,,,,,607071077825ce1b96d83505,60a7d7fac73f242a1e511092,2021-05-21_17h58.52.417,Simcolourproject_2stim_asymm_v5,2020.2.10,Win32,60,60a5f9bf14d0aa2821c4bb84,,,,,475,74,31,1,0,0,response1disk,,6,6,-5,1,0,0,rectangle,6,-5,1,0,0,3,"[138,73,85,105,160,266,215,219,279,129,280,152,99,204,80,40,25,264,271,11]",6,-5,1,0,0,0,67,67,46,1,,,
,,,,,,,,,,,,,FF,,,,,,,,0.700225,,,,,,,,,,,,,,,,,,,,,,,607071077825ce1b96d83505,60a7d7fac73f242a1e511092,2021-05-21_17h58.52.417,Simcolourproject_2stim_asymm_v5,2020.2.10,Win32,60,60a5f9bf14d0aa2821c4bb84,,,,,146,69,30,1,0,0,response1disk,,6,11,-5,1,0,0,rectangle,11,-5,1,0,0,1,"[138,73,85,105,160,266,215,219,279,129,280,152,99,204,80,40,25,264,271,11]",11,-5,1,0,0,0,68,68,115,1,,,
,,,,,,,,,,,,,FF,,,,,,,,1.016915,,,,,,,,,,,,,,,,,,,,,,,607071077825ce1b96d83505,60a7d7fac73f242a1e511092,2021-05-21_17h58.52.417,Simcolourproject_2stim_asymm_v5,2020.2.10,Win32,60,60a5f9bf14d0aa2821c4bb84,,,,,2221,48,84,1,0,0,response1disk,,7,5,-10,1,0,0,rectangle,5,-10,1,0,0,6,"[138,73,85,105,160,266,215,219,279,129,280,152,99,204,80,40,25,264,271,11]",5,-10,1,0,0,0,69,69,127,1,,,
,,,,,,,,,,,,,FF,,,,,,,,0.69974,,,,,,,,,,,,,,,,,,,,,,,607071077825ce1b96d83505,60a7d7fac73f242a1e511092,2021-05-21_17h58.52.417,Simcolourproject_2stim_asymm_v5,2020.2.10,Win32,60,60a5f9bf14d0aa2821c4bb84,,,,,1202,44,68,1,0,0,response1disk,,7,13,4,1,0,0,rectangle,13,4,1,0,0,3,"[138,73,85,105,160,266,215,219,279,129,280,152,99,204,80,40,25,264,271,11]",13,4,1,0,0,0,70,70,101,1,,,
,,,,,,,,,,,,,FF,,,,,,,,0.850795,,,,,,,,,,,,,,,,,,,,,,,607071077825ce1b96d83505,60a7d7fac73f242a1e511092,2021-05-21_17h58.52.417,Simcolourproject_2stim_asymm_v5,2020.2.10,Win32,60,60a5f9bf14d0aa2821c4bb84,,,,,3052,71,-38,1,0,0,response3disk,,5,-14,-4,1,0,0,rectangle,-14,-4,1,0,0,2,"[138,73,85,105,160,266,215,219,279,129,280,152,99,204,80,40,25,264,271,11]",-14,-4,1,0,0,0,71,71,9,1,,,
,,,,,,,,,,,,,FF,,,,,,,,0.68338,,,,,,,,,,,,,,,,,,,,,,,607071077825ce1b96d83505,60a7d7fac73f242a1e511092,2021-05-21_17h58.52.417,Simcolourproject_2stim_asymm_v5,2020.2.10,Win32,60,60a5f9bf14d0aa2821c4bb84,,,,,743,93,-37,1,0,0,response3disk,,5,12,-10,1,0,0,rectangle,-40,-74,1,0,0,3,"[138,73,85,105,160,266,215,219,279,129,280,152,99,204,80,40,25,264,271,11]",-6,7,1,0,0,0,72,72,138,1,,response5disk_3,rectangle
,,,,,,,,,,,,,FF,,,,,,,,1.350935,,,,,,,,,,,,,,,,,,,,,,,607071077825ce1b96d83505,60a7d7fac73f242a1e511092,2021-05-21_17h58.52.417,Simcolourproject_2stim_asymm_v5,2020.2.10,Win32,60,60a5f9bf14d0aa2821c4bb84,,,,,2275,74,-43,1,0,0,response3disk,,5,19,6,1,0,0,rectangle,19,6,1,0,0,1,"[138,73,85,105,160,266,215,219,279,129,280,152,99,204,80,40,25,264,271,11]",19,6,1,0,0,0,73,73,88,1,,,
,,,,,,,,,,,,,FF,,,,,,,,1.184325,,,,,,,,,,,,,,,,,,,,,,,607071077825ce1b96d83505,60a7d7fac73f242a1e511092,2021-05-21_17h58.52.417,Simcolourproject_2stim_asymm_v5,2020.2.10,Win32,60,60a5f9bf14d0aa2821c4bb84,,,,,3387,45,-67,1,0,0,response3disk,,4,10,-11,1,0,0,rectangle,10,-11,1,0,0,2,"[138,73,85,105,160,266,215,219,279,129,280,152,99,204,80,40,25,264,271,11]",10,-11,1,0,0,0,74,74,54,1,,,
,,,,,,,,,,,,,FF,,,,,,,,0.818175,,,,,,,,,,,,,,,,,,,,,,,607071077825ce1b96d83505,60a7d7fac73f242a1e511092,2021-05-21_17h58.52.417,Simcolourproject_2stim_asymm_v5,2020.2.10,Win32,60,60a5f9bf14d0aa2821c4bb84,,,,,3509,66,-31,1,0,0,response3disk,,5,3,2,1,0,0,rectangle,3,2,1,0,0,0,"[138,73,85,105,160,266,215,219,279,129,280,152,99,204,80,40,25,264,271,11]",3,2,1,0,0,0,75,75,75,1,,,
,,,,,,,,,,,,,FF,,,,,,,,0.88405,,,,,,,,,,,,,,,,,,,,,,,607071077825ce1b96d83505,60a7d7fac73f242a1e511092,2021-05-21_17h58.52.417,Simcolourproject_2stim_asymm_v5,2020.2.10,Win32,60,60a5f9bf14d0aa2821c4bb84,,,,,864,29,-99,1,0,0,response3disk,,4,1,-15,1,0,0,rectangle,1,-15,1,0,0,2,"[138,73,85,105,160,266,215,219,279,129,280,152,99,204,80,40,25,264,271,11]",1,-15,1,0,0,0,76,76,100,1,,,
,,,,,,,,,,,,,FF,,,,,,,,0.68333,,,,,,,,,,,,,,,,,,,,,,,607071077825ce1b96d83505,60a7d7fac73f242a1e511092,2021-05-21_17h58.52.417,Simcolourproject_2stim_asymm_v5,2020.2.10,Win32,60,60a5f9bf14d0aa2821c4bb84,,,,,1109,88,30,1,0,0,response1disk,,6,-2,2,1,0,0,rectangle,-2,2,1,0,0,0,"[138,73,85,105,160,266,215,219,279,129,280,152,99,204,80,40,25,264,271,11]",-2,2,1,0,0,0,77,77,56,1,,,
,,,,,,,,,,,,,FF,,,,,,,,2.53566,,,,,,,,,,,,,,,,,,,,,,,607071077825ce1b96d83505,60a7d7fac73f242a1e511092,2021-05-21_17h58.52.417,Simcolourproject_2stim_asymm_v5,2020.2.10,Win32,60,60a5f9bf14d0aa2821c4bb84,,,,,2517,66,34,1,0,0,response1disk,,6,26,2,1,0,0,rectangle,26,2,1,0,0,3,"[138,73,85,105,160,266,215,219,279,129,280,152,99,204,80,40,25,264,271,11]",26,2,1,0,0,0,78,78,78,1,,,
,,,,,,,,,,,,,FF,,,,,,,,1.48452,,,,,,,,,,,,,,,,,,,,,,,607071077825ce1b96d83505,60a7d7fac73f242a1e511092,2021-05-21_17h58.52.417,Simcolourproject_2stim_asymm_v5,2020.2.10,Win32,60,60a5f9bf14d0aa2821c4bb84,,,,,223,87,39,1,0,0,response1disk,,6,3,0,1,0,0,rectangle,96,-43,1,0,0,5,"[138,73,85,105,160,266,215,219,279,129,280,152,99,204,80,40,25,264,271,11]",17,-2,1,0,0,0,79,79,102,1,,response3disk_3,rectangle
,,,,,,,,,,,,,FF,,,,,,,,0.974035,,,,,,,,,,,,,,,,,,,,,,,607071077825ce1b96d83505,60a7d7fac73f242a1e511092,2021-05-21_17h58.52.417,Simcolourproject_2stim_asymm_v5,2020.2.10,Win32,60,60a5f9bf14d0aa2821c4bb84,,,,,4260,69,41,1,0,0,response1disk,,6,10,6,1,0,0,rectangle,10,6,1,0,0,2,"[138,73,85,105,160,266,215,219,279,129,280,152,99,204,80,40,25,264,271,11]",10,6,1,0,0,0,80,80,125,1,,,
,,,,,,,,,,,,,FF,,,,,,,,0.55024,,,,,,,,,,,,,,,,,,,,,,,607071077825ce1b96d83505,60a7d7fac73f242a1e511092,2021-05-21_17h58.52.417,Simcolourproject_2stim_asymm_v5,2020.2.10,Win32,60,60a5f9bf14d0aa2821c4bb84,,,,,450,71,35,1,0,0,response1disk,,6,-1,-3,1,0,0,rectangle,-1,-3,1,0,0,5,"[138,73,85,105,160,266,215,219,279,129,280,152,99,204,80,40,25,264,271,11]",-1,-3,1,0,0,0,81,81,25,1,,,
,,,,,,,,,,,,,FF,,,,,,,,1.06552,,,,,,,,,,,,,,,,,,,,,,,607071077825ce1b96d83505,60a7d7fac73f242a1e511092,2021-05-21_17h58.52.417,Simcolourproject_2stim_asymm_v5,2020.2.10,Win32,60,60a5f9bf14d0aa2821c4bb84,,,,,3886,54,67,1,0,0,response1disk,,7,17,7,1,0,0,rectangle,17,7,1,0,0,7,"[138,73,85,105,160,266,215,219,279,129,280,152,99,204,80,40,25,264,271,11]",17,7,1,0,0,0,82,82,144,1,,,
,,,,,,,,,,,,,FF,,,,,,,,0.550105,,,,,,,,,,,,,,,,,,,,,,,607071077825ce1b96d83505,60a7d7fac73f242a1e511092,2021-05-21_17h58.52.417,Simcolourproject_2stim_asymm_v5,2020.2.10,Win32,60,60a5f9bf14d0aa2821c4bb84,,,,,1643,69,-30,1,0,0,response3disk,,5,9,-3,1,0,0,rectangle,9,-3,1,0,0,5,"[138,73,85,105,160,266,215,219,279,129,280,152,99,204,80,40,25,264,271,11]",9,-3,1,0,0,0,83,83,68,1,,,
,,,,,,,,,,,,,FF,,,,,,,,0.733905,,,,,,,,,,,,,,,,,,,,,,,607071077825ce1b96d83505,60a7d7fac73f242a1e511092,2021-05-21_17h58.52.417,Simcolourproject_2stim_asymm_v5,2020.2.10,Win32,60,60a5f9bf14d0aa2821c4bb84,,,,,2969,45,65,1,0,0,response1disk,,7,23,2,1,0,0,rectangle,90,45,1,0,0,6,"[138,73,85,105,160,266,215,219,279,129,280,152,99,204,80,40,25,264,271,11]",30,4,1,0,0,0,84,84,147,1,,response1disk_3,rectangle
,,,,,,,,,,,,,FF,,,,,,,,0.88349,,,,,,,,,,,,,,,,,,,,,,,607071077825ce1b96d83505,60a7d7fac73f242a1e511092,2021-05-21_17h58.52.417,Simcolourproject_2stim_asymm_v5,2020.2.10,Win32,60,60a5f9bf14d0aa2821c4bb84,,,,,4236,-33,-72,1,0,0,response5disk,,3,-10,11,1,0,0,rectangle,-10,11,1,0,0,6,"[138,73,85,105,160,266,215,219,279,129,280,152,99,204,80,40,25,264,271,11]",-10,11,1,0,0,0,85,85,135,1,,,
,,,,,,,,,,,,,FF,,,,,,,,0.849355,,,,,,,,,,,,,,,,,,,,,,,607071077825ce1b96d83505,60a7d7fac73f242a1e511092,2021-05-21_17h58.52.417,Simcolourproject_2stim_asymm_v5,2020.2.10,Win32,60,60a5f9bf14d0aa2821c4bb84,,,,,97,31,-61,1,0,0,response3disk,,4,13,8,1,0,0,rectangle,13,8,1,0,0,6,"[138,73,85,105,160,266,215,219,279,129,280,152,99,204,80,40,25,264,271,11]",13,8,1,0,0,0,86,86,156,1,,,
,,,,,,,,,,,,,FF,,,,,,,,0.899665,,,,,,,,,,,,,,,,,,,,,,,607071077825ce1b96d83505,60a7d7fac73f242a1e511092,2021-05-21_17h58.52.417,Simcolourproject_2stim_asymm_v5,2020.2.10,Win32,60,60a5f9bf14d0aa2821c4bb84,,,,,162,-32,-69,1,0,0,response5disk,,3,-7,-3,1,0,0,rectangle,-7,-3,1,0,0,6,"[138,73,85,105,160,266,215,219,279,129,280,152,99,204,80,40,25,264,271,11]",-7,-3,1,0,0,0,87,87,18,1,,,
,,,,,,,,,,,,,FF,,,,,,,,0.983085,,,,,,,,,,,,,,,,,,,,,,,607071077825ce1b96d83505,60a7d7fac73f242a1e511092,2021-05-21_17h58.52.417,Simcolourproject_2stim_asymm_v5,2020.2.10,Win32,60,60a5f9bf14d0aa2821c4bb84,,,,,2997,-22,-68,1,0,0,response5disk,,3,8,8,1,0,0,rectangle,8,8,1,0,0,3,"[138,73,85,105,160,266,215,219,279,129,280,152,99,204,80,40,25,264,271,11]",8,8,1,0,0,0,88,88,61,1,,,
,,,,,,,,,,,,,FF,,,,,,,,1.04982,,,,,,,,,,,,,,,,,,,,,,,607071077825ce1b96d83505,60a7d7fac73f242a1e511092,2021-05-21_17h58.52.417,Simcolourproject_2stim_asymm_v5,2020.2.10,Win32,60,60a5f9bf14d0aa2821c4bb84,,,,,2365,29,-66,1,0,0,response3disk,,4,8,-14,1,0,0,rectangle,8,-14,1,0,0,5,"[138,73,85,105,160,266,215,219,279,129,280,152,99,204,80,40,25,264,271,11]",8,-14,1,0,0,0,89,89,155,1,,,
,,,,,,,,,,,,,FF,,,,,,,,0.68333,,,,,,,,,,,,,,,,,,,,,,,607071077825ce1b96d83505,60a7d7fac73f242a1e511092,2021-05-21_17h58.52.417,Simcolourproject_2stim_asymm_v5,2020.2.10,Win32,60,60a5f9bf14d0aa2821c4bb84,,,,,683,70,42,1,0,0,response1disk,,6,4,2,1,0,0,rectangle,4,2,1,0,0,5,"[138,73,85,105,160,266,215,219,279,129,280,152,99,204,80,40,25,264,271,11]",4,2,1,0,0,0,90,90,36,1,,,
,,,,,,,,,,,,,FF,,,,,,,,1.05104,,,,,,,,,,,,,,,,,,,,,,,607071077825ce1b96d83505,60a7d7fac73f242a1e511092,2021-05-21_17h58.52.417,Simcolourproject_2stim_asymm_v5,2020.2.10,Win32,60,60a5f9bf14d0aa2821c4bb84,,,,,3594,18,-72,1,0,0,response3disk,,4,-5,4,1,0,0,rectangle,-5,4,1,0,0,4,"[138,73,85,105,160,266,215,219,279,129,280,152,99,204,80,40,25,264,271,11]",-5,4,1,0,0,0,91,91,143,1,,,
,,,,,,,,,,,,,FF,,,,,,,,0.850465,,,,,,,,,,,,,,,,,,,,,,,607071077825ce1b96d83505,60a7d7fac73f242a1e511092,2021-05-21_17h58.52.417,Simcolourproject_2stim_asymm_v5,2020.2.10,Win32,60,60a5f9bf14d0aa2821c4bb84,,,,,2015,71,-31,1,0,0,response3disk,,5,18,6,1,0,0,rectangle,18,6,1,0,0,0,"[138,73,85,105,160,266,215,219,279,129,280,152,99,204,80,40,25,264,271,11]",18,6,1,0,0,0,92,92,136,1,,,
,,,,,,,,,,,,,FF,,,,,,,,0.867375,,,,,,,,,,,,,,,,,,,,,,,607071077825ce1b96d83505,60a7d7fac73f242a1e511092,2021-05-21_17h58.52.417,Simcolourproject_2stim_asymm_v5,2020.2.10,Win32,60,60a5f9bf14d0aa2821c4bb84,,,,,2839,41,-97,1,0,0,response3disk,,4,9,-2,1,0,0,rectangle,9,-2,1,0,0,0,"[138,73,85,105,160,266,215,219,279,129,280,152,99,204,80,40,25,264,271,11]",9,-2,1,0,0,0,93,93,151,1,,,
,,,,,,,,,,,,,FF,,,,,,,,0.63497,,,,,,,,,,,,,,,,,,,,,,,607071077825ce1b96d83505,60a7d7fac73f242a1e511092,2021-05-21_17h58.52.417,Simcolourproject_2stim_asymm_v5,2020.2.10,Win32,60,60a5f9bf14d0aa2821c4bb84,,,,,412,69,36,1,0,0,response1disk,,6,3,12,1,0,0,rectangle,3,12,1,0,0,6,"[138,73,85,105,160,266,215,219,279,129,280,152,99,204,80,40,25,264,271,11]",3,12,1,0,0,0,94,94,44,1,,,
,,,,,,,,,,,,,FF,,,,,,,,0.79988,,,,,,,,,,,,,,,,,,,,,,,607071077825ce1b96d83505,60a7d7fac73f242a1e511092,2021-05-21_17h58.52.417,Simcolourproject_2stim_asymm_v5,2020.2.10,Win32,60,60a5f9bf14d0aa2821c4bb84,,,,,1251,76,31,1,0,0,response1disk,,6,-4,1,1,0,0,rectangle,-4,1,1,0,0,5,"[138,73,85,105,160,266,215,219,279,129,280,152,99,204,80,40,25,264,271,11]",-4,1,1,0,0,0,95,95,3,1,,,
,,,,,,,,,,,,,FF,,,,,,,,1.63298,,,,,,,,,,,,,,,,,,,,,,,607071077825ce1b96d83505,60a7d7fac73f242a1e511092,2021-05-21_17h58.52.417,Simcolourproject_2stim_asymm_v5,2020.2.10,Win32,60,60a5f9bf14d0aa2821c4bb84,,,,,912,82,-31,1,0,0,response3disk,,5,13,1,1,0,0,rectangle,13,1,1,0,0,6,"[138,73,85,105,160,266,215,219,279,129,280,152,99,204,80,40,25,264,271,11]",13,1,1,0,0,0,96,96,59,1,,,
,,,,,,,,,,,,,FF,,,,,,,,1.000295,,,,,,,,,,,,,,,,,,,,,,,607071077825ce1b96d83505,60a7d7fac73f242a1e511092,2021-05-21_17h58.52.417,Simcolourproject_2stim_asymm_v5,2020.2.10,Win32,60,60a5f9bf14d0aa2821c4bb84,,,,,633,45,-63,1,0,0,response3disk,,4,-1,4,1,0,0,rectangle,-1,4,1,0,0,7,"[138,73,85,105,160,266,215,219,279,129,280,152,99,204,80,40,25,264,271,11]",-1,4,1,0,0,0,97,97,91,1,,,
,,,,,,,,,,,,,FF,,,,,,,,0.633485,,,,,,,,,,,,,,,,,,,,,,,607071077825ce1b96d83505,60a7d7fac73f242a1e511092,2021-05-21_17h58.52.417,Simcolourproject_2stim_asymm_v5,2020.2.10,Win32,60,60a5f9bf14d0aa2821c4bb84,,,,,635,49,-76,1,0,0,response3disk,,4,10,-12,1,0,0,rectangle,86,30,1,0,0,6,"[138,73,85,105,160,266,215,219,279,129,280,152,99,204,80,40,25,264,271,11]",13,3,1,0,0,0,98,98,13,1,,response1disk_3,rectangle
,,,,,,,,,,,,,FF,,,,,,,,5.46628,,,,,,,,,,,,,,,,,,,,,,,607071077825ce1b96d83505,60a7d7fac73f242a1e511092,2021-05-21_17h58.52.417,Simcolourproject_2stim_asymm_v5,2020.2.10,Win32,60,60a5f9bf14d0aa2821c4bb84,,,,,2944,104,-29,1,0,0,response3disk,,5,13,4,1,0,0,rectangle,13,4,1,0,0,6,"[138,73,85,105,160,266,215,219,279,129,280,152,99,204,80,40,25,264,271,11]",13,4,1,0,0,0,99,99,22,1,,,
,,,,,,,,,,,,,FF,,,,,,,,0.866875,,,,,,,,,,,,,,,,,,,,,,,607071077825ce1b96d83505,60a7d7fac73f242a1e511092,2021-05-21_17h58.52.417,Simcolourproject_2stim_asymm_v5,2020.2.10,Win32,60,60a5f9bf14d0aa2821c4bb84,,,,,834,97,32,1,0,0,response1disk,,6,-25,1,1,0,0,rectangle,-25,1,1,0,0,7,"[138,73,85,105,160,266,215,219,279,129,280,152,99,204,80,40,25,264,271,11]",-25,1,1,0,0,0,100,100,128,1,,,
,,,,,,,,,,,,,FF,,,,,,,,0.75074,,,,,,,,,,,,,,,,,,,,,,,607071077825ce1b96d83505,60a7d7fac73f242a1e511092,2021-05-21_17h58.52.417,Simcolourproject_2stim_asymm_v5,2020.2.10,Win32,60,60a5f9bf14d0aa2821c4bb84,,,,,941,74,36,1,0,0,response1disk,,6,5,-9,1,0,0,rectangle,5,-9,1,0,0,4,"[138,73,85,105,160,266,215,219,279,129,280,152,99,204,80,40,25,264,271,11]",5,-9,1,0,0,0,101,101,103,1,,,
,,,,,,,,,,,,,FF,,,,,,,,0.683185,,,,,,,,,,,,,,,,,,,,,,,607071077825ce1b96d83505,60a7d7fac73f242a1e511092,2021-05-21_17h58.52.417,Simcolourproject_2stim_asymm_v5,2020.2.10,Win32,60,60a5f9bf14d0aa2821c4bb84,,,,,354,43,-73,1,0,0,response3disk,,4,-1,-4,1,0,0,rectangle,-1,-4,1,0,0,0,"[138,73,85,105,160,266,215,219,279,129,280,152,99,204,80,40,25,264,271,11]",-1,-4,1,0,0,0,102,102,93,1,,,
,,,,,,,,,,,,,FF,,,,,,,,1.36754,,,,,,,,,,,,,,,,,,,,,,,607071077825ce1b96d83505,60a7d7fac73f242a1e511092,2021-05-21_17h58.52.417,Simcolourproject_2stim_asymm_v5,2020.2.10,Win32,60,60a5f9bf14d0aa2821c4bb84,,,,,1152,35,-69,1,0,0,response3disk,,4,-4,-9,1,0,0,rectangle,-4,-9,1,0,0,1,"[138,73,85,105,160,266,215,219,279,129,280,152,99,204,80,40,25,264,271,11]",-4,-9,1,0,0,0,103,103,111,1,,,
,,,,,,,,,,,,,FF,,,,,,,,0.61623,,,,,,,,,,,,,,,,,,,,,,,607071077825ce1b96d83505,60a7d7fac73f242a1e511092,2021-05-21_17h58.52.417,Simcolourproject_2stim_asymm_v5,2020.2.10,Win32,60,60a5f9bf14d0aa2821c4bb84,,,,,3943,40,-64,1,0,0,response3disk,,4,2,-3,1,0,0,rectangle,-43,-40,1,0,0,2,"[138,73,85,105,160,266,215,219,279,129,280,152,99,204,80,40,25,264,271,11]",-19,-3,1,0,0,0,104,104,72,1,,response5disk_3,rectangle
,,,,,,,,,,,,,FF,,,,,,,,13.50009,,,,,,,,,,,,,,,,,,,,,,,607071077825ce1b96d83505,60a7d7fac73f242a1e511092,2021-05-21_17h58.52.417,Simcolourproject_2stim_asymm_v5,2020.2.10,Win32,60,60a5f9bf14d0aa2821c4bb84,,,,,4034,74,-27,1,0,0,response3disk,,5,17,2,1,0,0,rectangle,17,2,1,0,0,6,"[138,73,85,105,160,266,215,219,279,129,280,152,99,204,80,40,25,264,271,11]",17,2,1,0,0,0,105,105,148,1,,,
,,,,,,,,,,,,,FF,,,,,,,,2.583445,,,,,,,,,,,,,,,,,,,,,,,607071077825ce1b96d83505,60a7d7fac73f242a1e511092,2021-05-21_17h58.52.417,Simcolourproject_2stim_asymm_v5,2020.2.10,Win32,60,60a5f9bf14d0aa2821c4bb84,,,,,3755,37,-54,1,0,0,response3disk,,4,5,-6,1,0,0,rectangle,5,-6,1,0,0,0,"[138,73,85,105,160,266,215,219,279,129,280,152,99,204,80,40,25,264,271,11]",5,-6,1,0,0,0,106,106,15,1,,,
,,,,,,,,,,,,,FF,,,,,,,,1.06982,,,,,,,,,,,,,,,,,,,,,,,607071077825ce1b96d83505,60a7d7fac73f242a1e511092,2021-05-21_17h58.52.417,Simcolourproject_2stim_asymm_v5,2020.2.10,Win32,60,60a5f9bf14d0aa2821c4bb84,,,,,2965,75,32,1,0,0,response1disk,,6,-12,-2,1,0,0,rectangle,-12,-2,1,0,0,0,"[138,73,85,105,160,266,215,219,279,129,280,152,99,204,80,40,25,264,271,11]",-12,-2,1,0,0,0,107,107,137,1,,,
,,,,,,,,,,,,,FF,,,,,,,,0.66716,,,,,,,,,,,,,,,,,,,,,,,607071077825ce1b96d83505,60a7d7fac73f242a1e511092,2021-05-21_17h58.52.417,Simcolourproject_2stim_asymm_v5,2020.2.10,Win32,60,60a5f9bf14d0aa2821c4bb84,,,,,476,66,30,1,0,0,response1disk,,6,-22,1,1,0,0,rectangle,-22,1,1,0,0,5,"[138,73,85,105,160,266,215,219,279,129,280,152,99,204,80,40,25,264,271,11]",-22,1,1,0,0,0,108,108,10,1,,,
,,,,,,,,,,,,,FF,,,,,,,,0.500015,,,,,,,,,,,,,,,,,,,,,,,607071077825ce1b96d83505,60a7d7fac73f242a1e511092,2021-05-21_17h58.52.417,Simcolourproject_2stim_asymm_v5,2020.2.10,Win32,60,60a5f9bf14d0aa2821c4bb84,,,,,2246,71,32,1,0,0,response1disk,,6,-5,-1,1,0,0,rectangle,-5,-1,1,0,0,5,"[138,73,85,105,160,266,215,219,279,129,280,152,99,204,80,40,25,264,271,11]",-5,-1,1,0,0,0,109,109,33,1,,,
,,,,,,,,,,,,,FF,,,,,,,,0.60138,,,,,,,,,,,,,,,,,,,,,,,607071077825ce1b96d83505,60a7d7fac73f242a1e511092,2021-05-21_17h58.52.417,Simcolourproject_2stim_asymm_v5,2020.2.10,Win32,60,60a5f9bf14d0aa2821c4bb84,,,,,2986,61,26,1,0,0,response1disk,,6,8,-4,1,0,0,rectangle,8,-4,1,0,0,1,"[138,73,85,105,160,266,215,219,279,129,280,152,99,204,80,40,25,264,271,11]",8,-4,1,0,0,0,110,110,105,1,,,
,,,,,,,,,,,,,FF,,,,,,,,1.10055,,,,,,,,,,,,,,,,,,,,,,,607071077825ce1b96d83505,60a7d7fac73f242a1e511092,2021-05-21_17h58.52.417,Simcolourproject_2stim_asymm_v5,2020.2.10,Win32,60,60a5f9bf14d0aa2821c4bb84,,,,,3919,61,-32,1,0,0,response3disk,,5,-14,7,1,0,0,rectangle,-14,7,1,0,0,6,"[138,73,85,105,160,266,215,219,279,129,280,152,99,204,80,40,25,264,271,11]",-14,7,1,0,0,0,111,111,133,1,,,
,,,,,,,,,,,,,FF,,,,,,,,0.80073,,,,,,,,,,,,,,,,,,,,,,,607071077825ce1b96d83505,60a7d7fac73f242a1e511092,2021-05-21_17h58.52.417,Simcolourproject_2stim_asymm_v5,2020.2.10,Win32,60,60a5f9bf14d0aa2821c4bb84,,,,,480,72,33,1,0,0,response1disk,,6,24,4,1,0,0,rectangle,24,4,1,0,0,5,"[138,73,85,105,160,266,215,219,279,129,280,152,99,204,80,40,25,264,271,11]",24,4,1,0,0,0,112,112,45,1,,,
,,,,,,,,,,,,,FF,,,,,,,,0.799605,,,,,,,,,,,,,,,,,,,,,,,607071077825ce1b96d83505,60a7d7fac73f242a1e511092,2021-05-21_17h58.52.417,Simcolourproject_2stim_asymm_v5,2020.2.10,Win32,60,60a5f9bf14d0aa2821c4bb84,,,,,4246,67,35,1,0,0,response1disk,,6,8,5,1,0,0,rectangle,8,5,1,0,0,3,"[138,73,85,105,160,266,215,219,279,129,280,152,99,204,80,40,25,264,271,11]",8,5,1,0,0,0,113,113,152,1,,,
,,,,,,,,,,,,,FF,,,,,,,,0.48372,,,,,,,,,,,,,,,,,,,,,,,607071077825ce1b96d83505,60a7d7fac73f242a1e511092,2021-05-21_17h58.52.417,Simcolourproject_2stim_asymm_v5,2020.2.10,Win32,60,60a5f9bf14d0aa2821c4bb84,,,,,3804,72,34,1,0,0,response1disk,,6,5,-9,1,0,0,rectangle,5,-9,1,0,0,3,"[138,73,85,105,160,266,215,219,279,129,280,152,99,204,80,40,25,264,271,11]",5,-9,1,0,0,0,114,114,87,1,,,
,,,,,,,,,,,,,FF,,,,,,,,0.64929,,,,,,,,,,,,,,,,,,,,,,,607071077825ce1b96d83505,60a7d7fac73f242a1e511092,2021-05-21_17h58.52.417,Simcolourproject_2stim_asymm_v5,2020.2.10,Win32,60,60a5f9bf14d0aa2821c4bb84,,,,,3295,38,55,1,0,0,response1disk,,7,5,-9,1,0,0,rectangle,5,-9,1,0,0,1,"[138,73,85,105,160,266,215,219,279,129,280,152,99,204,80,40,25,264,271,11]",5,-9,1,0,0,0,115,115,35,1,,,
,,,,,,,,,,,,,FF,,,,,,,,0.68243,,,,,,,,,,,,,,,,,,,,,,,607071077825ce1b96d83505,60a7d7fac73f242a1e511092,2021-05-21_17h58.52.417,Simcolourproject_2stim_asymm_v5,2020.2.10,Win32,60,60a5f9bf14d0aa2821c4bb84,,,,,613,75,28,1,0,0,response1disk,,6,-2,-2,1,0,0,rectangle,-2,-2,1,0,0,2,"[138,73,85,105,160,266,215,219,279,129,280,152,99,204,80,40,25,264,271,11]",-2,-2,1,0,0,0,116,116,1,1,,,
,,,,,,,,,,,,,FF,,,,,,,,0.533655,,,,,,,,,,,,,,,,,,,,,,,607071077825ce1b96d83505,60a7d7fac73f242a1e511092,2021-05-21_17h58.52.417,Simcolourproject_2stim_asymm_v5,2020.2.10,Win32,60,60a5f9bf14d0aa2821c4bb84,,,,,4086,40,65,1,0,0,response1disk,,7,11,-8,1,0,0,rectangle,11,-8,1,0,0,7,"[138,73,85,105,160,266,215,219,279,129,280,152,99,204,80,40,25,264,271,11]",11,-8,1,0,0,0,117,117,104,1,,,
,,,,,,,,,,,,,FF,,,,,,,,0.91738,,,,,,,,,,,,,,,,,,,,,,,607071077825ce1b96d83505,60a7d7fac73f242a1e511092,2021-05-21_17h58.52.417,Simcolourproject_2stim_asymm_v5,2020.2.10,Win32,60,60a5f9bf14d0aa2821c4bb84,,,,,3602,76,32,1,0,0,response1disk,,6,2,1,1,0,0,rectangle,2,1,1,0,0,1,"[138,73,85,105,160,266,215,219,279,129,280,152,99,204,80,40,25,264,271,11]",2,1,1,0,0,0,118,118,82,1,,,
,,,,,,,,,,,,,FF,,,,,,,,0.48339,,,,,,,,,,,,,,,,,,,,,,,607071077825ce1b96d83505,60a7d7fac73f242a1e511092,2021-05-21_17h58.52.417,Simcolourproject_2stim_asymm_v5,2020.2.10,Win32,60,60a5f9bf14d0aa2821c4bb84,,,,,741,66,33,1,0,0,response1disk,,6,5,-3,1,0,0,rectangle,5,-3,1,0,0,2,"[138,73,85,105,160,266,215,219,279,129,280,152,99,204,80,40,25,264,271,11]",5,-3,1,0,0,0,119,119,16,1,,,
,,,,,,,,,,,,,FF,,,,,,,,0.4665,,,,,,,,,,,,,,,,,,,,,,,607071077825ce1b96d83505,60a7d7fac73f242a1e511092,2021-05-21_17h58.52.417,Simcolourproject_2stim_asymm_v5,2020.2.10,Win32,60,60a5f9bf14d0aa2821c4bb84,,,,,1914,71,38,1,0,0,response1disk,,6,10,-3,1,0,0,rectangle,10,-3,1,0,0,1,"[138,73,85,105,160,266,215,219,279,129,280,152,99,204,80,40,25,264,271,11]",10,-3,1,0,0,0,120,120,23,1,,,
,,,,,,,,,,,,,FF,,,,,,,,0.70027,,,,,,,,,,,,,,,,,,,,,,,607071077825ce1b96d83505,60a7d7fac73f242a1e511092,2021-05-21_17h58.52.417,Simcolourproject_2stim_asymm_v5,2020.2.10,Win32,60,60a5f9bf14d0aa2821c4bb84,,,,,296,72,35,1,0,0,response1disk,,6,-1,-6,1,0,0,rectangle,-1,-6,1,0,0,5,"[138,73,85,105,160,266,215,219,279,129,280,152,99,204,80,40,25,264,271,11]",-1,-6,1,0,0,0,121,121,120,1,,,
,,,,,,,,,,,,,FF,,,,,,,,0.51614,,,,,,,,,,,,,,,,,,,,,,,607071077825ce1b96d83505,60a7d7fac73f242a1e511092,2021-05-21_17h58.52.417,Simcolourproject_2stim_asymm_v5,2020.2.10,Win32,60,60a5f9bf14d0aa2821c4bb84,,,,,1014,80,33,1,0,0,response1disk,,6,10,-1,1,0,0,rectangle,10,-1,1,0,0,2,"[138,73,85,105,160,266,215,219,279,129,280,152,99,204,80,40,25,264,271,11]",10,-1,1,0,0,0,122,122,113,1,,,
,,,,,,,,,,,,,FF,,,,,,,,1.36758,,,,,,,,,,,,,,,,,,,,,,,607071077825ce1b96d83505,60a7d7fac73f242a1e511092,2021-05-21_17h58.52.417,Simcolourproject_2stim_asymm_v5,2020.2.10,Win32,60,60a5f9bf14d0aa2821c4bb84,,,,,2293,35,-71,1,0,0,response3disk,,4,-7,-8,1,0,0,rectangle,-7,-8,1,0,0,2,"[138,73,85,105,160,266,215,219,279,129,280,152,99,204,80,40,25,264,271,11]",-7,-8,1,0,0,0,123,123,6,1,,,
,,,,,,,,,,,,,FF,,,,,,,,0.900835,,,,,,,,,,,,,,,,,,,,,,,607071077825ce1b96d83505,60a7d7fac73f242a1e511092,2021-05-21_17h58.52.417,Simcolourproject_2stim_asymm_v5,2020.2.10,Win32,60,60a5f9bf14d0aa2821c4bb84,,,,,562,65,-35,1,0,0,response3disk,,5,-13,0,1,0,0,rectangle,-13,0,1,0,0,1,"[138,73,85,105,160,266,215,219,279,129,280,152,99,204,80,40,25,264,271,11]",-13,0,1,0,0,0,124,124,31,1,,,
,,,,,,,,,,,,,FF,,,,,,,,0.83445,,,,,,,,,,,,,,,,,,,,,,,607071077825ce1b96d83505,60a7d7fac73f242a1e511092,2021-05-21_17h58.52.417,Simcolourproject_2stim_asymm_v5,2020.2.10,Win32,60,60a5f9bf14d0aa2821c4bb84,,,,,2506,60,35,1,0,0,response1disk,,6,-10,-7,1,0,0,rectangle,-10,-7,1,0,0,5,"[138,73,85,105,160,266,215,219,279,129,280,152,99,204,80,40,25,264,271,11]",-10,-7,1,0,0,0,125,125,131,1,,,
,,,,,,,,,,,,,FF,,,,,,,,1.167785,,,,,,,,,,,,,,,,,,,,,,,607071077825ce1b96d83505,60a7d7fac73f242a1e511092,2021-05-21_17h58.52.417,Simcolourproject_2stim_asymm_v5,2020.2.10,Win32,60,60a5f9bf14d0aa2821c4bb84,,,,,1882,61,22,1,0,0,response1disk,,6,11,2,1,0,0,rectangle,11,2,1,0,0,0,"[138,73,85,105,160,266,215,219,279,129,280,152,99,204,80,40,25,264,271,11]",11,2,1,0,0,0,126,126,76,1,,,
,,,,,,,,,,,,,FF,,,,,,,,0.56691,,,,,,,,,,,,,,,,,,,,,,,607071077825ce1b96d83505,60a7d7fac73f242a1e511092,2021-05-21_17h58.52.417,Simcolourproject_2stim_asymm_v5,2020.2.10,Win32,60,60a5f9bf14d0aa2821c4bb84,,,,,2641,64,36,1,0,0,response1disk,,6,7,-5,1,0,0,rectangle,7,-5,1,0,0,2,"[138,73,85,105,160,266,215,219,279,129,280,152,99,204,80,40,25,264,271,11]",7,-5,1,0,0,0,127,127,58,1,,,
,,,,,,,,,,,,,FF,,,,,,,,1.165625,,,,,,,,,,,,,,,,,,,,,,,607071077825ce1b96d83505,60a7d7fac73f242a1e511092,2021-05-21_17h58.52.417,Simcolourproject_2stim_asymm_v5,2020.2.10,Win32,60,60a5f9bf14d0aa2821c4bb84,,,,,3200,63,22,1,0,0,response1disk,,6,9,-5,1,0,0,rectangle,79,39,1,0,0,6,"[138,73,85,105,160,266,215,219,279,129,280,152,99,204,80,40,25,264,271,11]",7,2,1,0,0,0,128,128,84,1,,response1disk_3,rectangle
,,,,,,,,,,,,,FF,,,,,,,,1.650325,,,,,,,,,,,,,,,,,,,,,,,607071077825ce1b96d83505,60a7d7fac73f242a1e511092,2021-05-21_17h58.52.417,Simcolourproject_2stim_asymm_v5,2020.2.10,Win32,60,60a5f9bf14d0aa2821c4bb84,,,,,2985,67,-52,1,0,0,response3disk,,5,17,-1,1,0,0,rectangle,17,-1,1,0,0,3,"[138,73,85,105,160,266,215,219,279,129,280,152,99,204,80,40,25,264,271,11]",17,-1,1,0,0,0,129,129,116,1,,,
,,,,,,,,,,,,,FF,,,,,,,,1.66946,,,,,,,,,,,,,,,,,,,,,,,607071077825ce1b96d83505,60a7d7fac73f242a1e511092,2021-05-21_17h58.52.417,Simcolourproject_2stim_asymm_v5,2020.2.10,Win32,60,60a5f9bf14d0aa2821c4bb84,,,,,377,40,-58,1,0,0,response3disk,,4,3,-5,1,0,0,rectangle,3,-5,1,0,0,7,"[138,73,85,105,160,266,215,219,279,129,280,152,99,204,80,40,25,264,271,11]",3,-5,1,0,0,0,130,130,132,1,,,
,,,,,,,,,,,,,FF,,,,,,,,0.56719,,,,,,,,,,,,,,,,,,,,,,,607071077825ce1b96d83505,60a7d7fac73f242a1e511092,2021-05-21_17h58.52.417,Simcolourproject_2stim_asymm_v5,2020.2.10,Win32,60,60a5f9bf14d0aa2821c4bb84,,,,,2906,75,-36,1,0,0,response3disk,,5,-8,8,1,0,0,rectangle,-8,8,1,0,0,0,"[138,73,85,105,160,266,215,219,279,129,280,152,99,204,80,40,25,264,271,11]",-8,8,1,0,0,0,131,131,17,1,,,
,,,,,,,,,,,,,FF,,,,,,,,0.683585,,,,,,,,,,,,,,,,,,,,,,,607071077825ce1b96d83505,60a7d7fac73f242a1e511092,2021-05-21_17h58.52.417,Simcolourproject_2stim_asymm_v5,2020.2.10,Win32,60,60a5f9bf14d0aa2821c4bb84,,,,,639,41,-66,1,0,0,response3disk,,4,12,-4,1,0,0,rectangle,12,-4,1,0,0,0,"[138,73,85,105,160,266,215,219,279,129,280,152,99,204,80,40,25,264,271,11]",12,-4,1,0,0,0,132,132,142,1,,,
,,,,,,,,,,,,,FF,,,,,,,,0.99993,,,,,,,,,,,,,,,,,,,,,,,607071077825ce1b96d83505,60a7d7fac73f242a1e511092,2021-05-21_17h58.52.417,Simcolourproject_2stim_asymm_v5,2020.2.10,Win32,60,60a5f9bf14d0aa2821c4bb84,,,,,3830,85,42,1,0,0,response1disk,,6,9,3,1,0,0,rectangle,9,3,1,0,0,5,"[138,73,85,105,160,266,215,219,279,129,280,152,99,204,80,40,25,264,271,11]",9,3,1,0,0,0,133,133,43,1,,,
,,,,,,,,,,,,,FF,,,,,,,,1.65094,,,,,,,,,,,,,,,,,,,,,,,607071077825ce1b96d83505,60a7d7fac73f242a1e511092,2021-05-21_17h58.52.417,Simcolourproject_2stim_asymm_v5,2020.2.10,Win32,60,60a5f9bf14d0aa2821c4bb84,,,,,1755,35,-78,1,0,0,response3disk,,4,19,0,1,0,0,rectangle,19,0,1,0,0,2,"[138,73,85,105,160,266,215,219,279,129,280,152,99,204,80,40,25,264,271,11]",19,0,1,0,0,0,134,134,157,1,,,
,,,,,,,,,,,,,FF,,,,,,,,0.897775,,,,,,,,,,,,,,,,,,,,,,,607071077825ce1b96d83505,60a7d7fac73f242a1e511092,2021-05-21_17h58.52.417,Simcolourproject_2stim_asymm_v5,2020.2.10,Win32,60,60a5f9bf14d0aa2821c4bb84,,,,,2486,57,-32,1,0,0,response3disk,,5,10,-5,1,0,0,rectangle,10,-5,1,0,0,4,"[138,73,85,105,160,266,215,219,279,129,280,152,99,204,80,40,25,264,271,11]",10,-5,1,0,0,0,135,135,70,1,,,
,,,,,,,,,,,,,FF,,,,,,,,0.54977,,,,,,,,,,,,,,,,,,,,,,,607071077825ce1b96d83505,60a7d7fac73f242a1e511092,2021-05-21_17h58.52.417,Simcolourproject_2stim_asymm_v5,2020.2.10,Win32,60,60a5f9bf14d0aa2821c4bb84,,,,,3539,67,48,1,0,0,response1disk,,6,10,8,1,0,0,rectangle,10,8,1,0,0,2,"[138,73,85,105,160,266,215,219,279,129,280,152,99,204,80,40,25,264,271,11]",10,8,1,0,0,0,136,136,140,1,,,
,,,,,,,,,,,,,FF,,,,,,,,0.587255,,,,,,,,,,,,,,,,,,,,,,,607071077825ce1b96d83505,60a7d7fac73f242a1e511092,2021-05-21_17h58.52.417,Simcolourproject_2stim_asymm_v5,2020.2.10,Win32,60,60a5f9bf14d0aa2821c4bb84,,,,,2001,48,69,1,0,0,response1disk,,7,10,0,1,0,0,rectangle,-69,37,1,0,0,1,"[138,73,85,105,160,266,215,219,279,129,280,152,99,204,80,40,25,264,271,11]",6,-2,1,0,0,0,137,137,65,1,,response7disk_3,rectangle
,,,,,,,,,,,,,FF,,,,,,,,1.100565,,,,,,,,,,,,,,,,,,,,,,,607071077825ce1b96d83505,60a7d7fac73f242a1e511092,2021-05-21_17h58.52.417,Simcolourproject_2stim_asymm_v5,2020.2.10,Win32,60,60a5f9bf14d0aa2821c4bb84,,,,,1130,82,26,1,0,0,response1disk,,6,25,0,1,0,0,rectangle,25,0,1,0,0,6,"[138,73,85,105,160,266,215,219,279,129,280,152,99,204,80,40,25,264,271,11]",25,0,1,0,0,0,138,138,112,1,,,
,,,,,,,,,,,,,FF,,,,,,,,0.855535,,,,,,,,,,,,,,,,,,,,,,,607071077825ce1b96d83505,60a7d7fac73f242a1e511092,2021-05-21_17h58.52.417,Simcolourproject_2stim_asymm_v5,2020.2.10,Win32,60,60a5f9bf14d0aa2821c4bb84,,,,,1923,65,-34,1,0,0,response3disk,,5,6,1,1,0,0,rectangle,6,1,1,0,0,2,"[138,73,85,105,160,266,215,219,279,129,280,152,99,204,80,40,25,264,271,11]",6,1,1,0,0,0,139,139,122,1,,,
,,,,,,,,,,,,,FF,,,,,,,,0.76734,,,,,,,,,,,,,,,,,,,,,,,607071077825ce1b96d83505,60a7d7fac73f242a1e511092,2021-05-21_17h58.52.417,Simcolourproject_2stim_asymm_v5,2020.2.10,Win32,60,60a5f9bf14d0aa2821c4bb84,,,,,2227,-25,-79,1,0,0,response5disk,,3,-1,0,1,0,0,rectangle,-1,0,1,0,0,4,"[138,73,85,105,160,266,215,219,279,129,280,152,99,204,80,40,25,264,271,11]",-1,0,1,0,0,0,140,140,141,1,,,
,,,,,,,,,,,,,FF,,,,,,,,0.88758,,,,,,,,,,,,,,,,,,,,,,,607071077825ce1b96d83505,60a7d7fac73f242a1e511092,2021-05-21_17h58.52.417,Simcolourproject_2stim_asymm_v5,2020.2.10,Win32,60,60a5f9bf14d0aa2821c4bb84,,,,,953,54,-67,1,0,0,response3disk,,4,18,-1,1,0,0,rectangle,18,-1,1,0,0,5,"[138,73,85,105,160,266,215,219,279,129,280,152,99,204,80,40,25,264,271,11]",18,-1,1,0,0,0,141,141,47,1,,,
,,,,,,,,,,,,,FF,,,,,,,,0.703025,,,,,,,,,,,,,,,,,,,,,,,607071077825ce1b96d83505,60a7d7fac73f242a1e511092,2021-05-21_17h58.52.417,Simcolourproject_2stim_asymm_v5,2020.2.10,Win32,60,60a5f9bf14d0aa2821c4bb84,,,,,4270,39,-59,1,0,0,response3disk,,4,21,-6,1,0,0,rectangle,21,-6,1,0,0,6,"[138,73,85,105,160,266,215,219,279,129,280,152,99,204,80,40,25,264,271,11]",21,-6,1,0,0,0,142,142,60,1,,,
,,,,,,,,,,,,,FF,,,,,,,,0.680855,,,,,,,,,,,,,,,,,,,,,,,607071077825ce1b96d83505,60a7d7fac73f242a1e511092,2021-05-21_17h58.52.417,Simcolourproject_2stim_asymm_v5,2020.2.10,Win32,60,60a5f9bf14d0aa2821c4bb84,,,,,1347,79,-33,1,0,0,response3disk,,5,13,0,1,0,0,rectangle,13,0,1,0,0,7,"[138,73,85,105,160,266,215,219,279,129,280,152,99,204,80,40,25,264,271,11]",13,0,1,0,0,0,143,143,21,1,,,
,,,,,,,,,,,,,FF,,,,,,,,0.81762,,,,,,,,,,,,,,,,,,,,,,,607071077825ce1b96d83505,60a7d7fac73f242a1e511092,2021-05-21_17h58.52.417,Simcolourproject_2stim_asymm_v5,2020.2.10,Win32,60,60a5f9bf14d0aa2821c4bb84,,,,,744,80,29,1,0,0,response1disk,,6,3,-8,1,0,0,rectangle,3,-8,1,0,0,7,"[138,73,85,105,160,266,215,219,279,129,280,152,99,204,80,40,25,264,271,11]",3,-8,1,0,0,0,144,144,94,1,,,
,,,,,,,,,,,,,FF,,,,,,,,0.68379,,,,,,,,,,,,,,,,,,,,,,,607071077825ce1b96d83505,60a7d7fac73f242a1e511092,2021-05-21_17h58.52.417,Simcolourproject_2stim_asymm_v5,2020.2.10,Win32,60,60a5f9bf14d0aa2821c4bb84,,,,,4157,77,49,1,0,0,response1disk,,6,6,6,1,0,0,rectangle,6,6,1,0,0,7,"[138,73,85,105,160,266,215,219,279,129,280,152,99,204,80,40,25,264,271,11]",6,6,1,0,0,0,145,145,98,1,,,
,,,,,,,,,,,,,FF,,,,,,,,0.55001,,,,,,,,,,,,,,,,,,,,,,,607071077825ce1b96d83505,60a7d7fac73f242a1e511092,2021-05-21_17h58.52.417,Simcolourproject_2stim_asymm_v5,2020.2.10,Win32,60,60a5f9bf14d0aa2821c4bb84,,,,,1389,81,35,1,0,0,response1disk,,6,7,1,1,0,0,rectangle,7,1,1,0,0,5,"[138,73,85,105,160,266,215,219,279,129,280,152,99,204,80,40,25,264,271,11]",7,1,1,0,0,0,146,146,146,1,,,
,,,,,,,,,,,,,FF,,,,,,,,0.499735,,,,,,,,,,,,,,,,,,,,,,,607071077825ce1b96d83505,60a7d7fac73f242a1e511092,2021-05-21_17h58.52.417,Simcolourproject_2stim_asymm_v5,2020.2.10,Win32,60,60a5f9bf14d0aa2821c4bb84,,,,,657,87,36,1,0,0,response1disk,,6,16,5,1,0,0,rectangle,16,5,1,0,0,7,"[138,73,85,105,160,266,215,219,279,129,280,152,99,204,80,40,25,264,271,11]",16,5,1,0,0,0,147,147,2,1,,,
,,,,,,,,,,,,,FF,,,,,,,,0.44591,,,,,,,,,,,,,,,,,,,,,,,607071077825ce1b96d83505,60a7d7fac73f242a1e511092,2021-05-21_17h58.52.417,Simcolourproject_2stim_asymm_v5,2020.2.10,Win32,60,60a5f9bf14d0aa2821c4bb84,,,,,3118,93,39,1,0,0,response1disk,,6,9,-1,1,0,0,rectangle,9,-1,1,0,0,1,"[138,73,85,105,160,266,215,219,279,129,280,152,99,204,80,40,25,264,271,11]",9,-1,1,0,0,0,148,148,49,1,,,
,,,,,,,,,,,,,FF,,,,,,,,0.500735,,,,,,,,,,,,,,,,,,,,,,,607071077825ce1b96d83505,60a7d7fac73f242a1e511092,2021-05-21_17h58.52.417,Simcolourproject_2stim_asymm_v5,2020.2.10,Win32,60,60a5f9bf14d0aa2821c4bb84,,,,,3224,39,60,1,0,0,response1disk,,7,0,0,1,0,0,rectangle,0,0,1,0,0,7,"[138,73,85,105,160,266,215,219,279,129,280,152,99,204,80,40,25,264,271,11]",0,0,1,0,0,0,149,149,38,1,,,
,,,,,,,,,,,,,FF,,,,,,,,1.01727,,,,,,,,,,,,,,,,,,,,,,,607071077825ce1b96d83505,60a7d7fac73f242a1e511092,2021-05-21_17h58.52.417,Simcolourproject_2stim_asymm_v5,2020.2.10,Win32,60,60a5f9bf14d0aa2821c4bb84,,,,,3606,90,38,1,0,0,response1disk,,6,1,5,1,0,0,rectangle,1,5,1,0,0,3,"[138,73,85,105,160,266,215,219,279,129,280,152,99,204,80,40,25,264,271,11]",1,5,1,0,0,0,150,150,89,1,,,
,,,,,,,,,,,,,FF,,,,,,,,0.516855,,,,,,,,,,,,,,,,,,,,,,,607071077825ce1b96d83505,60a7d7fac73f242a1e511092,2021-05-21_17h58.52.417,Simcolourproject_2stim_asymm_v5,2020.2.10,Win32,60,60a5f9bf14d0aa2821c4bb84,,,,,1557,36,73,1,0,0,response1disk,,7,-5,2,1,0,0,rectangle,73,30,1,0,0,6,"[138,73,85,105,160,266,215,219,279,129,280,152,99,204,80,40,25,264,271,11]",6,-4,1,0,0,0,151,151,121,1,,response1disk_3,rectangle
,,,,,,,,,,,,,FF,,,,,,,,1.48352,,,,,,,,,,,,,,,,,,,,,,,607071077825ce1b96d83505,60a7d7fac73f242a1e511092,2021-05-21_17h58.52.417,Simcolourproject_2stim_asymm_v5,2020.2.10,Win32,60,60a5f9bf14d0aa2821c4bb84,,,,,2597,86,41,1,0,0,response1disk,,6,17,4,1,0,0,rectangle,17,4,1,0,0,5,"[138,73,85,105,160,266,215,219,279,129,280,152,99,204,80,40,25,264,271,11]",17,4,1,0,0,0,152,152,154,1,,,
,,,,,,,,,,,,,FF,,,,,,,,0.500715,,,,,,,,,,,,,,,,,,,,,,,607071077825ce1b96d83505,60a7d7fac73f242a1e511092,2021-05-21_17h58.52.417,Simcolourproject_2stim_asymm_v5,2020.2.10,Win32,60,60a5f9bf14d0aa2821c4bb84,,,,,3457,90,42,1,0,0,response1disk,,6,-17,-11,1,0,0,rectangle,-17,-11,1,0,0,5,"[138,73,85,105,160,266,215,219,279,129,280,152,99,204,80,40,25,264,271,11]",-17,-11,1,0,0,0,153,153,67,1,,,
,,,,,,,,,,,,,FF,,,,,,,,0.51633,,,,,,,,,,,,,,,,,,,,,,,607071077825ce1b96d83505,60a7d7fac73f242a1e511092,2021-05-21_17h58.52.417,Simcolourproject_2stim_asymm_v5,2020.2.10,Win32,60,60a5f9bf14d0aa2821c4bb84,,,,,3112,54,78,1,0,0,response1disk,,7,11,-4,1,0,0,rectangle,11,-4,1,0,0,6,"[138,73,85,105,160,266,215,219,279,129,280,152,99,204,80,40,25,264,271,11]",11,-4,1,0,0,0,154,154,73,1,,,
,,,,,,,,,,,,,FF,,,,,,,,0.98347,,,,,,,,,,,,,,,,,,,,,,,607071077825ce1b96d83505,60a7d7fac73f242a1e511092,2021-05-21_17h58.52.417,Simcolourproject_2stim_asymm_v5,2020.2.10,Win32,60,60a5f9bf14d0aa2821c4bb84,,,,,3251,39,-76,1,0,0,response3disk,,4,6,3,1,0,0,rectangle,6,3,1,0,0,5,"[138,73,85,105,160,266,215,219,279,129,280,152,99,204,80,40,25,264,271,11]",6,3,1,0,0,0,155,155,85,1,,,
,,,,,,,,,,,,,FF,,,,,,,,0.949905,,,,,,,,,,,,,,,,,,,,,,,607071077825ce1b96d83505,60a7d7fac73f242a1e511092,2021-05-21_17h58.52.417,Simcolourproject_2stim_asymm_v5,2020.2.10,Win32,60,60a5f9bf14d0aa2821c4bb84,,,,,957,36,-71,1,0,0,response3disk,,4,14,2,1,0,0,rectangle,14,2,1,0,0,4,"[138,73,85,105,160,266,215,219,279,129,280,152,99,204,80,40,25,264,271,11]",14,2,1,0,0,0,156,156,126,1,,,
,,,,,,,,,,,,,FF,,,,,,,,2.916715,,,,,,,,,,,,,,,,,,,,,,,607071077825ce1b96d83505,60a7d7fac73f242a1e511092,2021-05-21_17h58.52.417,Simcolourproject_2stim_asymm_v5,2020.2.10,Win32,60,60a5f9bf14d0aa2821c4bb84,,,,,2593,74,-39,1,0,0,response3disk,,5,15,-12,1,0,0,rectangle,15,-12,1,0,0,7,"[138,73,85,105,160,266,215,219,279,129,280,152,99,204,80,40,25,264,271,11]",15,-12,1,0,0,0,157,157,63,1,,,
,,,,,,,,,,,,,FF,,,,,,,,0.583695,,,,,,,,,,,,,,,,,,,,,,,607071077825ce1b96d83505,60a7d7fac73f242a1e511092,2021-05-21_17h58.52.417,Simcolourproject_2stim_asymm_v5,2020.2.10,Win32,60,60a5f9bf14d0aa2821c4bb84,,,,,686,108,-40,1,0,0,response3disk,,5,9,-1,1,0,0,rectangle,9,-1,1,0,0,1,"[138,73,85,105,160,266,215,219,279,129,280,152,99,204,80,40,25,264,271,11]",9,-1,1,0,0,0,158,158,20,1,,,
,,,,,,,,,,,,,FF,,,,,,,,0.699775,,,,,,,,,,,,,,,,,,,,,,,607071077825ce1b96d83505,60a7d7fac73f242a1e511092,2021-05-21_17h58.52.417,Simcolourproject_2stim_asymm_v5,2020.2.10,Win32,60,60a5f9bf14d0aa2821c4bb84,,,,,1674,31,-65,1,0,0,response3disk,,4,-2,-1,1,0,0,rectangle,-69,36,1,0,0,1,"[138,73,85,105,160,266,215,219,279,129,280,152,99,204,80,40,25,264,271,11]",-17,1,1,0,0,0,159,159,27,1,,response7disk_3,rectangle
,,,,,,,,,,,,,FF,,,,,,,,1.26741,,,,,,,,,,,,,,,,,,,,,,,607071077825ce1b96d83505,60a7d7fac73f242a1e511092,2021-05-21_17h58.52.417,Simcolourproject_2stim_asymm_v5,2020.2.10,Win32,60,60a5f9bf14d0aa2821c4bb84,,,,,155,66,-52,1,0,0,response3disk,,5,6,-5,1,0,0,rectangle,6,-5,1,0,0,2,"[138,73,85,105,160,266,215,219,279,129,280,152,99,204,80,40,25,264,271,11]",6,-5,1,0,0,0,160,160,34,1,,,
,,,,,,,,,,,,,FF,,,,,,,,0.66589,,,,,,,,,,,,,,,,,,,,,,,607071077825ce1b96d83505,60a7d7fac73f242a1e511092,2021-05-21_17h58.52.417,Simcolourproject_2stim_asymm_v5,2020.2.10,Win32,60,60a5f9bf14d0aa2821c4bb84,,,,,4088,84,35,1,0,0,response1disk,,6,-6,3,1,0,0,rectangle,-6,3,1,0,0,2,"[138,73,85,105,160,266,215,219,279,129,280,152,99,204,80,40,25,264,271,11]",-6,3,1,0,0,1,0,161,21,1,,,
,,,,,,,,,,,,,FF,,,,,,,,0.55004,,,,,,,,,,,,,,,,,,,,,,,607071077825ce1b96d83505,60a7d7fac73f242a1e511092,2021-05-21_17h58.52.417,Simcolourproject_2stim_asymm_v5,2020.2.10,Win32,60,60a5f9bf14d0aa2821c4bb84,,,,,670,38,76,1,0,0,response1disk,,7,6,9,1,0,0,rectangle,6,9,1,0,0,6,"[138,73,85,105,160,266,215,219,279,129,280,152,99,204,80,40,25,264,271,11]",6,9,1,0,0,1,1,162,29,1,,,
,,,,,,,,,,,,,FF,,,,,,,,0.73428,,,,,,,,,,,,,,,,,,,,,,,607071077825ce1b96d83505,60a7d7fac73f242a1e511092,2021-05-21_17h58.52.417,Simcolourproject_2stim_asymm_v5,2020.2.10,Win32,60,60a5f9bf14d0aa2821c4bb84,,,,,2965,74,31,1,0,0,response1disk,,6,15,3,1,0,0,rectangle,15,3,1,0,0,1,"[138,73,85,105,160,266,215,219,279,129,280,152,99,204,80,40,25,264,271,11]",15,3,1,0,0,1,2,163,157,1,,,
,,,,,,,,,,,,,FF,,,,,,,,0.78386,,,,,,,,,,,,,,,,,,,,,,,607071077825ce1b96d83505,60a7d7fac73f242a1e511092,2021-05-21_17h58.52.417,Simcolourproject_2stim_asymm_v5,2020.2.10,Win32,60,60a5f9bf14d0aa2821c4bb84,,,,,588,83,24,1,0,0,response1disk,,6,13,7,1,0,0,rectangle,13,7,1,0,0,5,"[138,73,85,105,160,266,215,219,279,129,280,152,99,204,80,40,25,264,271,11]",13,7,1,0,0,1,3,164,15,1,,,
,,,,,,,,,,,,,FF,,,,,,,,1.333315,,,,,,,,,,,,,,,,,,,,,,,607071077825ce1b96d83505,60a7d7fac73f242a1e511092,2021-05-21_17h58.52.417,Simcolourproject_2stim_asymm_v5,2020.2.10,Win32,60,60a5f9bf14d0aa2821c4bb84,,,,,3112,73,-30,1,0,0,response3disk,,5,19,-5,1,0,0,rectangle,19,-5,1,0,0,4,"[138,73,85,105,160,266,215,219,279,129,280,152,99,204,80,40,25,264,271,11]",19,-5,1,0,0,1,4,165,103,1,,,
,,,,,,,,,,,,,FF,,,,,,,,1.498885,,,,,,,,,,,,,,,,,,,,,,,607071077825ce1b96d83505,60a7d7fac73f242a1e511092,2021-05-21_17h58.52.417,Simcolourproject_2stim_asymm_v5,2020.2.10,Win32,60,60a5f9bf14d0aa2821c4bb84,,,,,864,64,-36,1,0,0,response3disk,,5,10,-6,1,0,0,rectangle,10,-6,1,0,0,5,"[138,73,85,105,160,266,215,219,279,129,280,152,99,204,80,40,25,264,271,11]",10,-6,1,0,0,1,5,166,68,1,,,
,,,,,,,,,,,,,FF,,,,,,,,0.70126,,,,,,,,,,,,,,,,,,,,,,,607071077825ce1b96d83505,60a7d7fac73f242a1e511092,2021-05-21_17h58.52.417,Simcolourproject_2stim_asymm_v5,2020.2.10,Win32,60,60a5f9bf14d0aa2821c4bb84,,,,,506,89,40,1,0,0,response1disk,,6,-3,7,1,0,0,rectangle,-3,7,1,0,0,4,"[138,73,85,105,160,266,215,219,279,129,280,152,99,204,80,40,25,264,271,11]",-3,7,1,0,0,1,6,167,30,1,,,
,,,,,,,,,,,,,FF,,,,,,,,0.56751,,,,,,,,,,,,,,,,,,,,,,,607071077825ce1b96d83505,60a7d7fac73f242a1e511092,2021-05-21_17h58.52.417,Simcolourproject_2stim_asymm_v5,2020.2.10,Win32,60,60a5f9bf14d0aa2821c4bb84,,,,,1924,41,75,1,0,0,response1disk,,7,13,4,1,0,0,rectangle,13,4,1,0,0,5,"[138,73,85,105,160,266,215,219,279,129,280,152,99,204,80,40,25,264,271,11]",13,4,1,0,0,1,7,168,93,1,,,
,,,,,,,,,,,,,FF,,,,,,,,0.73296,,,,,,,,,,,,,,,,,,,,,,,607071077825ce1b96d83505,60a7d7fac73f242a1e511092,2021-05-21_17h58.52.417,Simcolourproject_2stim_asymm_v5,2020.2.10,Win32,60,60a5f9bf14d0aa2821c4bb84,,,,,3251,29,-67,1,0,0,response3disk,,4,-6,-2,1,0,0,rectangle,-6,-2,1,0,0,3,"[138,73,85,105,160,266,215,219,279,129,280,152,99,204,80,40,25,264,271,11]",-6,-2,1,0,0,1,8,169,126,1,,,
,,,,,,,,,,,,,FF,,,,,,,,0.617945,,,,,,,,,,,,,,,,,,,,,,,607071077825ce1b96d83505,60a7d7fac73f242a1e511092,2021-05-21_17h58.52.417,Simcolourproject_2stim_asymm_v5,2020.2.10,Win32,60,60a5f9bf14d0aa2821c4bb84,,,,,162,38,-76,1,0,0,response3disk,,4,3,-3,1,0,0,rectangle,3,-3,1,0,0,1,"[138,73,85,105,160,266,215,219,279,129,280,152,99,204,80,40,25,264,271,11]",3,-3,1,0,0,1,9,170,134,1,,,
,,,,,,,,,,,,,FF,,,,,,,,0.86396,,,,,,,,,,,,,,,,,,,,,,,607071077825ce1b96d83505,60a7d7fac73f242a1e511092,2021-05-21_17h58.52.417,Simcolourproject_2stim_asymm_v5,2020.2.10,Win32,60,60a5f9bf14d0aa2821c4bb84,,,,,912,72,-41,1,0,0,response3disk,,5,9,-1,1,0,0,rectangle,9,-1,1,0,0,0,"[138,73,85,105,160,266,215,219,279,129,280,152,99,204,80,40,25,264,271,11]",9,-1,1,0,0,1,10,171,19,1,,,
,,,,,,,,,,,,,FF,,,,,,,,0.714315,,,,,,,,,,,,,,,,,,,,,,,607071077825ce1b96d83505,60a7d7fac73f242a1e511092,2021-05-21_17h58.52.417,Simcolourproject_2stim_asymm_v5,2020.2.10,Win32,60,60a5f9bf14d0aa2821c4bb84,,,,,3866,40,87,1,0,0,response1disk,,7,-14,-1,1,0,0,rectangle,-14,-1,1,0,0,5,"[138,73,85,105,160,266,215,219,279,129,280,152,99,204,80,40,25,264,271,11]",-14,-1,1,0,0,1,11,172,64,1,,,
,,,,,,,,,,,,,FF,,,,,,,,1.867135,,,,,,,,,,,,,,,,,,,,,,,607071077825ce1b96d83505,60a7d7fac73f242a1e511092,2021-05-21_17h58.52.417,Simcolourproject_2stim_asymm_v5,2020.2.10,Win32,60,60a5f9bf14d0aa2821c4bb84,,,,,377,63,-39,1,0,0,response3disk,,5,-21,6,1,0,0,rectangle,-21,6,1,0,0,1,"[138,73,85,105,160,266,215,219,279,129,280,152,99,204,80,40,25,264,271,11]",-21,6,1,0,0,1,12,173,128,1,,,
,,,,,,,,,,,,,FF,,,,,,,,1.08333,,,,,,,,,,,,,,,,,,,,,,,607071077825ce1b96d83505,60a7d7fac73f242a1e511092,2021-05-21_17h58.52.417,Simcolourproject_2stim_asymm_v5,2020.2.10,Win32,60,60a5f9bf14d0aa2821c4bb84,,,,,4291,74,41,1,0,0,response1disk,,6,24,4,1,0,0,rectangle,24,4,1,0,0,1,"[138,73,85,105,160,266,215,219,279,129,280,152,99,204,80,40,25,264,271,11]",24,4,1,0,0,1,13,174,109,1,,,
,,,,,,,,,,,,,FF,,,,,,,,0.583185,,,,,,,,,,,,,,,,,,,,,,,607071077825ce1b96d83505,60a7d7fac73f242a1e511092,2021-05-21_17h58.52.417,Simcolourproject_2stim_asymm_v5,2020.2.10,Win32,60,60a5f9bf14d0aa2821c4bb84,,,,,768,68,37,1,0,0,response1disk,,6,-1,-1,1,0,0,rectangle,-1,-1,1,0,0,3,"[138,73,85,105,160,266,215,219,279,129,280,152,99,204,80,40,25,264,271,11]",-1,-1,1,0,0,1,14,175,102,1,,,
,,,,,,,,,,,,,FF,,,,,,,,1.601145,,,,,,,,,,,,,,,,,,,,,,,607071077825ce1b96d83505,60a7d7fac73f242a1e511092,2021-05-21_17h58.52.417,Simcolourproject_2stim_asymm_v5,2020.2.10,Win32,60,60a5f9bf14d0aa2821c4bb84,,,,,3202,43,-74,1,0,0,response3disk,,4,7,13,1,0,0,rectangle,7,13,1,0,0,1,"[138,73,85,105,160,266,215,219,279,129,280,152,99,204,80,40,25,264,271,11]",7,13,1,0,0,1,15,176,38,1,,,
,,,,,,,,,,,,,FF,,,,,,,,0.683905,,,,,,,,,,,,,,,,,,,,,,,607071077825ce1b96d83505,60a7d7fac73f242a1e511092,2021-05-21_17h58.52.417,Simcolourproject_2stim_asymm_v5,2020.2.10,Win32,60,60a5f9bf14d0aa2821c4bb84,,,,,1516,46,78,1,0,0,response1disk,,7,9,-1,1,0,0,rectangle,9,-1,1,0,0,6,"[138,73,85,105,160,266,215,219,279,129,280,152,99,204,80,40,25,264,271,11]",9,-1,1,0,0,1,16,177,69,1,,,
,,,,,,,,,,,,,FF,,,,,,,,1.33348,,,,,,,,,,,,,,,,,,,,,,,607071077825ce1b96d83505,60a7d7fac73f242a1e511092,2021-05-21_17h58.52.417,Simcolourproject_2stim_asymm_v5,2020.2.10,Win32,60,60a5f9bf14d0aa2821c4bb84,,,,,3200,73,-36,1,0,0,response3disk,,5,21,-3,1,0,0,rectangle,21,-3,1,0,0,2,"[138,73,85,105,160,266,215,219,279,129,280,152,99,204,80,40,25,264,271,11]",21,-3,1,0,0,1,17,178,78,1,,,
,,,,,,,,,,,,,FF,,,,,,,,0.749555,,,,,,,,,,,,,,,,,,,,,,,607071077825ce1b96d83505,60a7d7fac73f242a1e511092,2021-05-21_17h58.52.417,Simcolourproject_2stim_asymm_v5,2020.2.10,Win32,60,60a5f9bf14d0aa2821c4bb84,,,,,633,43,-63,1,0,0,response3disk,,4,-5,7,1,0,0,rectangle,-5,7,1,0,0,1,"[138,73,85,105,160,266,215,219,279,129,280,152,99,204,80,40,25,264,271,11]",-5,7,1,0,0,1,18,179,118,1,,,
,,,,,,,,,,,,,FF,,,,,,,,1.001075,,,,,,,,,,,,,,,,,,,,,,,607071077825ce1b96d83505,60a7d7fac73f242a1e511092,2021-05-21_17h58.52.417,Simcolourproject_2stim_asymm_v5,2020.2.10,Win32,60,60a5f9bf14d0aa2821c4bb84,,,,,475,58,28,1,0,0,response1disk,,6,-2,-2,1,0,0,rectangle,-2,-2,1,0,0,0,"[138,73,85,105,160,266,215,219,279,129,280,152,99,204,80,40,25,264,271,11]",-2,-2,1,0,0,1,19,180,37,1,,,
,,,,,,,,,,,,,FF,,,,,,,,2.682545,,,,,,,,,,,,,,,,,,,,,,,607071077825ce1b96d83505,60a7d7fac73f242a1e511092,2021-05-21_17h58.52.417,Simcolourproject_2stim_asymm_v5,2020.2.10,Win32,60,60a5f9bf14d0aa2821c4bb84,,,,,3366,48,56,1,0,0,response1disk,,7,-9,-8,1,0,0,rectangle,-9,-8,1,0,0,7,"[138,73,85,105,160,266,215,219,279,129,280,152,99,204,80,40,25,264,271,11]",-9,-8,1,0,0,1,20,181,31,1,,,
,,,,,,,,,,,,,FF,,,,,,,,0.88316,,,,,,,,,,,,,,,,,,,,,,,607071077825ce1b96d83505,60a7d7fac73f242a1e511092,2021-05-21_17h58.52.417,Simcolourproject_2stim_asymm_v5,2020.2.10,Win32,60,60a5f9bf14d0aa2821c4bb84,,,,,1534,55,82,1,0,0,response1disk,,7,1,2,1,0,0,rectangle,1,2,1,0,0,7,"[138,73,85,105,160,266,215,219,279,129,280,152,99,204,80,40,25,264,271,11]",1,2,1,0,0,1,21,182,96,1,,,
,,,,,,,,,,,,,FF,,,,,,,,1.21694,,,,,,,,,,,,,,,,,,,,,,,607071077825ce1b96d83505,60a7d7fac73f242a1e511092,2021-05-21_17h58.52.417,Simcolourproject_2stim_asymm_v5,2020.2.10,Win32,60,60a5f9bf14d0aa2821c4bb84,,,,,743,67,30,1,0,0,response1disk,,6,7,8,1,0,0,rectangle,7,8,1,0,0,6,"[138,73,85,105,160,266,215,219,279,129,280,152,99,204,80,40,25,264,271,11]",7,8,1,0,0,1,22,183,25,1,,,
,,,,,,,,,,,,,FF,,,,,,,,0.650575,,,,,,,,,,,,,,,,,,,,,,,607071077825ce1b96d83505,60a7d7fac73f242a1e511092,2021-05-21_17h58.52.417,Simcolourproject_2stim_asymm_v5,2020.2.10,Win32,60,60a5f9bf14d0aa2821c4bb84,,,,,4246,80,33,1,0,0,response1disk,,6,10,5,1,0,0,rectangle,10,5,1,0,0,1,"[138,73,85,105,160,266,215,219,279,129,280,152,99,204,80,40,25,264,271,11]",10,5,1,0,0,1,23,184,122,1,,,
,,,,,,,,,,,,,FF,,,,,,,,0.785885,,,,,,,,,,,,,,,,,,,,,,,607071077825ce1b96d83505,60a7d7fac73f242a1e511092,2021-05-21_17h58.52.417,Simcolourproject_2stim_asymm_v5,2020.2.10,Win32,60,60a5f9bf14d0aa2821c4bb84,,,,,1755,31,-76,1,0,0,response3disk,,4,0,-3,1,0,0,rectangle,0,-3,1,0,0,1,"[138,73,85,105,160,266,215,219,279,129,280,152,99,204,80,40,25,264,271,11]",0,-3,1,0,0,1,24,185,89,1,,,
,,,,,,,,,,,,,FF,,,,,,,,0.900405,,,,,,,,,,,,,,,,,,,,,,,607071077825ce1b96d83505,60a7d7fac73f242a1e511092,2021-05-21_17h58.52.417,Simcolourproject_2stim_asymm_v5,2020.2.10,Win32,60,60a5f9bf14d0aa2821c4bb84,,,,,2486,55,-32,1,0,0,response3disk,,5,-7,10,1,0,0,rectangle,-7,10,1,0,0,7,"[138,73,85,105,160,266,215,219,279,129,280,152,99,204,80,40,25,264,271,11]",-7,10,1,0,0,1,25,186,57,1,,,
,,,,,,,,,,,,,FF,,,,,,,,0.61843,,,,,,,,,,,,,,,,,,,,,,,607071077825ce1b96d83505,60a7d7fac73f242a1e511092,2021-05-21_17h58.52.417,Simcolourproject_2stim_asymm_v5,2020.2.10,Win32,60,60a5f9bf14d0aa2821c4bb84,,,,,3224,77,28,1,0,0,response1disk,,6,28,4,1,0,0,rectangle,28,4,1,0,0,4,"[138,73,85,105,160,266,215,219,279,129,280,152,99,204,80,40,25,264,271,11]",28,4,1,0,0,1,26,187,6,1,,,
,,,,,,,,,,,,,FF,,,,,,,,0.666435,,,,,,,,,,,,,,,,,,,,,,,607071077825ce1b96d83505,60a7d7fac73f242a1e511092,2021-05-21_17h58.52.417,Simcolourproject_2stim_asymm_v5,2020.2.10,Win32,60,60a5f9bf14d0aa2821c4bb84,,,,,1882,37,65,1,0,0,response1disk,,7,-2,0,1,0,0,rectangle,-2,0,1,0,0,3,"[138,73,85,105,160,266,215,219,279,129,280,152,99,204,80,40,25,264,271,11]",-2,0,1,0,0,1,27,188,117,1,,,
,,,,,,,,,,,,,FF,,,,,,,,0.799755,,,,,,,,,,,,,,,,,,,,,,,607071077825ce1b96d83505,60a7d7fac73f242a1e511092,2021-05-21_17h58.52.417,Simcolourproject_2stim_asymm_v5,2020.2.10,Win32,60,60a5f9bf14d0aa2821c4bb84,,,,,3683,40,-63,1,0,0,response3disk,,4,11,-6,1,0,0,rectangle,11,-6,1,0,0,6,"[138,73,85,105,160,266,215,219,279,129,280,152,99,204,80,40,25,264,271,11]",11,-6,1,0,0,1,28,189,147,1,,,
,,,,,,,,,,,,,FF,,,,,,,,0.70007,,,,,,,,,,,,,,,,,,,,,,,607071077825ce1b96d83505,60a7d7fac73f242a1e511092,2021-05-21_17h58.52.417,Simcolourproject_2stim_asymm_v5,2020.2.10,Win32,60,60a5f9bf14d0aa2821c4bb84,,,,,642,61,-23,1,0,0,response3disk,,5,18,0,1,0,0,rectangle,18,0,1,0,0,1,"[138,73,85,105,160,266,215,219,279,129,280,152,99,204,80,40,25,264,271,11]",18,0,1,0,0,1,29,190,143,1,,,
,,,,,,,,,,,,,FF,,,,,,,,0.599325,,,,,,,,,,,,,,,,,,,,,,,607071077825ce1b96d83505,60a7d7fac73f242a1e511092,2021-05-21_17h58.52.417,Simcolourproject_2stim_asymm_v5,2020.2.10,Win32,60,60a5f9bf14d0aa2821c4bb84,,,,,480,72,-44,1,0,0,response3disk,,5,7,-9,1,0,0,rectangle,7,-9,1,0,0,7,"[138,73,85,105,160,266,215,219,279,129,280,152,99,204,80,40,25,264,271,11]",7,-9,1,0,0,1,30,191,88,1,,,
,,,,,,,,,,,,,FF,,,,,,,,0.48398,,,,,,,,,,,,,,,,,,,,,,,607071077825ce1b96d83505,60a7d7fac73f242a1e511092,2021-05-21_17h58.52.417,Simcolourproject_2stim_asymm_v5,2020.2.10,Win32,60,60a5f9bf14d0aa2821c4bb84,,,,,741,73,-42,1,0,0,response3disk,,5,30,-7,1,0,0,rectangle,30,-7,1,0,0,1,"[138,73,85,105,160,266,215,219,279,129,280,152,99,204,80,40,25,264,271,11]",30,-7,1,0,0,1,31,192,3,1,,,
,,,,,,,,,,,,,FF,,,,,,,,0.667485,,,,,,,,,,,,,,,,,,,,,,,607071077825ce1b96d83505,60a7d7fac73f242a1e511092,2021-05-21_17h58.52.417,Simcolourproject_2stim_asymm_v5,2020.2.10,Win32,60,60a5f9bf14d0aa2821c4bb84,,,,,223,76,-37,1,0,0,response3disk,,5,23,7,1,0,0,rectangle,23,7,1,0,0,0,"[138,73,85,105,160,266,215,219,279,129,280,152,99,204,80,40,25,264,271,11]",23,7,1,0,0,1,32,193,135,1,,,
,,,,,,,,,,,,,FF,,,,,,,,1.05306,,,,,,,,,,,,,,,,,,,,,,,607071077825ce1b96d83505,60a7d7fac73f242a1e511092,2021-05-21_17h58.52.417,Simcolourproject_2stim_asymm_v5,2020.2.10,Win32,60,60a5f9bf14d0aa2821c4bb84,,,,,1885,90,46,1,0,0,response1disk,,6,11,7,1,0,0,rectangle,11,7,1,0,0,3,"[138,73,85,105,160,266,215,219,279,129,280,152,99,204,80,40,25,264,271,11]",11,7,1,0,0,1,33,194,149,1,,,
,,,,,,,,,,,,,FF,,,,,,,,0.667115,,,,,,,,,,,,,,,,,,,,,,,607071077825ce1b96d83505,60a7d7fac73f242a1e511092,2021-05-21_17h58.52.417,Simcolourproject_2stim_asymm_v5,2020.2.10,Win32,60,60a5f9bf14d0aa2821c4bb84,,,,,562,65,-48,1,0,0,response3disk,,5,22,-5,1,0,0,rectangle,22,-5,1,0,0,4,"[138,73,85,105,160,266,215,219,279,129,280,152,99,204,80,40,25,264,271,11]",22,-5,1,0,0,1,34,195,100,1,,,
,,,,,,,,,,,,,FF,,,,,,,,0.785075,,,,,,,,,,,,,,,,,,,,,,,607071077825ce1b96d83505,60a7d7fac73f242a1e511092,2021-05-21_17h58.52.417,Simcolourproject_2stim_asymm_v5,2020.2.10,Win32,60,60a5f9bf14d0aa2821c4bb84,,,,,3594,72,-35,1,0,0,response3disk,,5,13,-2,1,0,0,rectangle,13,-2,1,0,0,1,"[138,73,85,105,160,266,215,219,279,129,280,152,99,204,80,40,25,264,271,11]",13,-2,1,0,0,1,35,196,110,1,,,
,,,,,,,,,,,,,FF,,,,,,,,1.13244,,,,,,,,,,,,,,,,,,,,,,,607071077825ce1b96d83505,60a7d7fac73f242a1e511092,2021-05-21_17h58.52.417,Simcolourproject_2stim_asymm_v5,2020.2.10,Win32,60,60a5f9bf14d0aa2821c4bb84,,,,,2233,-27,-63,1,0,0,response5disk,,3,6,6,1,0,0,rectangle,6,6,1,0,0,3,"[138,73,85,105,160,266,215,219,279,129,280,152,99,204,80,40,25,264,271,11]",6,6,1,0,0,1,36,197,33,1,,,
,,,,,,,,,,,,,FF,,,,,,,,0.700435,,,,,,,,,,,,,,,,,,,,,,,607071077825ce1b96d83505,60a7d7fac73f242a1e511092,2021-05-21_17h58.52.417,Simcolourproject_2stim_asymm_v5,2020.2.10,Win32,60,60a5f9bf14d0aa2821c4bb84,,,,,2361,-30,-52,1,0,0,response5disk,,3,-9,-8,1,0,0,rectangle,-9,-8,1,0,0,3,"[138,73,85,105,160,266,215,219,279,129,280,152,99,204,80,40,25,264,271,11]",-9,-8,1,0,0,1,37,198,60,1,,,
,,,,,,,,,,,,,FF,,,,,,,,0.732945,,,,,,,,,,,,,,,,,,,,,,,607071077825ce1b96d83505,60a7d7fac73f242a1e511092,2021-05-21_17h58.52.417,Simcolourproject_2stim_asymm_v5,2020.2.10,Win32,60,60a5f9bf14d0aa2821c4bb84,,,,,1162,81,-34,1,0,0,response3disk,,5,27,-11,1,0,0,rectangle,27,-11,1,0,0,2,"[138,73,85,105,160,266,215,219,279,129,280,152,99,204,80,40,25,264,271,11]",27,-11,1,0,0,1,38,199,152,1,,,
,,,,,,,,,,,,,FF,,,,,,,,0.768965,,,,,,,,,,,,,,,,,,,,,,,607071077825ce1b96d83505,60a7d7fac73f242a1e511092,2021-05-21_17h58.52.417,Simcolourproject_2stim_asymm_v5,2020.2.10,Win32,60,60a5f9bf14d0aa2821c4bb84,,,,,613,70,27,1,0,0,response1disk,,6,-1,-5,1,0,0,rectangle,-1,-5,1,0,0,2,"[138,73,85,105,160,266,215,219,279,129,280,152,99,204,80,40,25,264,271,11]",-1,-5,1,0,0,1,39,200,79,1,,,
,,,,,,,,,,,,,FF,,,,,,,,1.100335,,,,,,,,,,,,,,,,,,,,,,,607071077825ce1b96d83505,60a7d7fac73f242a1e511092,2021-05-21_17h58.52.417,Simcolourproject_2stim_asymm_v5,2020.2.10,Win32,60,60a5f9bf14d0aa2821c4bb84,,,,,3472,30,-74,1,0,0,response3disk,,4,-1,1,1,0,0,rectangle,-1,1,1,0,0,6,"[138,73,85,105,160,266,215,219,279,129,280,152,99,204,80,40,25,264,271,11]",-1,1,1,0,0,1,40,201,105,1,,,
,,,,,,,,,,,,,FF,,,,,,,,1.10053,,,,,,,,,,,,,,,,,,,,,,,607071077825ce1b96d83505,60a7d7fac73f242a1e511092,2021-05-21_17h58.52.417,Simcolourproject_2stim_asymm_v5,2020.2.10,Win32,60,60a5f9bf14d0aa2821c4bb84,,,,,4260,90,40,1,0,0,response1disk,,6,19,4,1,0,0,rectangle,19,4,1,0,0,2,"[138,73,85,105,160,266,215,219,279,129,280,152,99,204,80,40,25,264,271,11]",19,4,1,0,0,1,41,202,67,1,,,
,,,,,,,,,,,,,FF,,,,,,,,1.21558,,,,,,,,,,,,,,,,,,,,,,,607071077825ce1b96d83505,60a7d7fac73f242a1e511092,2021-05-21_17h58.52.417,Simcolourproject_2stim_asymm_v5,2020.2.10,Win32,60,60a5f9bf14d0aa2821c4bb84,,,,,1130,40,89,1,0,0,response1disk,,7,10,7,1,0,0,rectangle,-69,-25,1,0,0,2,"[138,73,85,105,160,266,215,219,279,129,280,152,99,204,80,40,25,264,271,11]",3,2,1,0,0,1,42,203,132,1,,response5disk_3,rectangle
,,,,,,,,,,,,,FF,,,,,,,,2.517705,,,,,,,,,,,,,,,,,,,,,,,607071077825ce1b96d83505,60a7d7fac73f242a1e511092,2021-05-21_17h58.52.417,Simcolourproject_2stim_asymm_v5,2020.2.10,Win32,60,60a5f9bf14d0aa2821c4bb84,,,,,2906,85,34,1,0,0,response1disk,,6,-3,14,1,0,0,rectangle,-3,14,1,0,0,2,"[138,73,85,105,160,266,215,219,279,129,280,152,99,204,80,40,25,264,271,11]",-3,14,1,0,0,1,43,204,27,1,,,
,,,,,,,,,,,,,FF,,,,,,,,0.93275,,,,,,,,,,,,,,,,,,,,,,,607071077825ce1b96d83505,60a7d7fac73f242a1e511092,2021-05-21_17h58.52.417,Simcolourproject_2stim_asymm_v5,2020.2.10,Win32,60,60a5f9bf14d0aa2821c4bb84,,,,,244,76,43,1,0,0,response1disk,,6,25,10,1,0,0,rectangle,25,10,1,0,0,7,"[138,73,85,105,160,266,215,219,279,129,280,152,99,204,80,40,25,264,271,11]",25,10,1,0,0,1,44,205,2,1,,,
,,,,,,,,,,,,,FF,,,,,,,,0.650425,,,,,,,,,,,,,,,,,,,,,,,607071077825ce1b96d83505,60a7d7fac73f242a1e511092,2021-05-21_17h58.52.417,Simcolourproject_2stim_asymm_v5,2020.2.10,Win32,60,60a5f9bf14d0aa2821c4bb84,,,,,3539,86,36,1,0,0,response1disk,,6,-4,4,1,0,0,rectangle,-4,4,1,0,0,2,"[138,73,85,105,160,266,215,219,279,129,280,152,99,204,80,40,25,264,271,11]",-4,4,1,0,0,1,45,206,84,1,,,
,,,,,,,,,,,,,FF,,,,,,,,0.618405,,,,,,,,,,,,,,,,,,,,,,,607071077825ce1b96d83505,60a7d7fac73f242a1e511092,2021-05-21_17h58.52.417,Simcolourproject_2stim_asymm_v5,2020.2.10,Win32,60,60a5f9bf14d0aa2821c4bb84,,,,,3118,55,-37,1,0,0,response3disk,,5,25,-7,1,0,0,rectangle,25,-7,1,0,0,5,"[138,73,85,105,160,266,215,219,279,129,280,152,99,204,80,40,25,264,271,11]",25,-7,1,0,0,1,46,207,141,1,,,
,,,,,,,,,,,,,FF,,,,,,,,0.63437,,,,,,,,,,,,,,,,,,,,,,,607071077825ce1b96d83505,60a7d7fac73f242a1e511092,2021-05-21_17h58.52.417,Simcolourproject_2stim_asymm_v5,2020.2.10,Win32,60,60a5f9bf14d0aa2821c4bb84,,,,,3041,76,35,1,0,0,response1disk,,6,14,1,1,0,0,rectangle,14,1,1,0,0,0,"[138,73,85,105,160,266,215,219,279,129,280,152,99,204,80,40,25,264,271,11]",14,1,1,0,0,1,47,208,62,1,,,
,,,,,,,,,,,,,FF,,,,,,,,0.434115,,,,,,,,,,,,,,,,,,,,,,,607071077825ce1b96d83505,60a7d7fac73f242a1e511092,2021-05-21_17h58.52.417,Simcolourproject_2stim_asymm_v5,2020.2.10,Win32,60,60a5f9bf14d0aa2821c4bb84,,,,,3896,92,50,1,0,0,response1disk,,6,8,-10,1,0,0,rectangle,8,-10,1,0,0,7,"[138,73,85,105,160,266,215,219,279,129,280,152,99,204,80,40,25,264,271,11]",8,-10,1,0,0,1,48,209,24,1,,,
,,,,,,,,,,,,,FF,,,,,,,,0.517015,,,,,,,,,,,,,,,,,,,,,,,607071077825ce1b96d83505,60a7d7fac73f242a1e511092,2021-05-21_17h58.52.417,Simcolourproject_2stim_asymm_v5,2020.2.10,Win32,60,60a5f9bf14d0aa2821c4bb84,,,,,4157,44,60,1,0,0,response1disk,,7,5,-7,1,0,0,rectangle,5,-7,1,0,0,7,"[138,73,85,105,160,266,215,219,279,129,280,152,99,204,80,40,25,264,271,11]",5,-7,1,0,0,1,49,210,47,1,,,
,,,,,,,,,,,,,FF,,,,,,,,0.89944,,,,,,,,,,,,,,,,,,,,,,,607071077825ce1b96d83505,60a7d7fac73f242a1e511092,2021-05-21_17h58.52.417,Simcolourproject_2stim_asymm_v5,2020.2.10,Win32,60,60a5f9bf14d0aa2821c4bb84,,,,,2293,-27,-70,1,0,0,response5disk,,3,15,1,1,0,0,rectangle,15,1,1,0,0,1,"[138,73,85,105,160,266,215,219,279,129,280,152,99,204,80,40,25,264,271,11]",15,1,1,0,0,1,50,211,80,1,,,
,,,,,,,,,,,,,FF,,,,,,,,0.55034,,,,,,,,,,,,,,,,,,,,,,,607071077825ce1b96d83505,60a7d7fac73f242a1e511092,2021-05-21_17h58.52.417,Simcolourproject_2stim_asymm_v5,2020.2.10,Win32,60,60a5f9bf14d0aa2821c4bb84,,,,,635,-32,-63,1,0,0,response5disk,,3,5,-7,1,0,0,rectangle,5,-7,1,0,0,2,"[138,73,85,105,160,266,215,219,279,129,280,152,99,204,80,40,25,264,271,11]",5,-7,1,0,0,1,51,212,159,1,,,
,,,,,,,,,,,,,FF,,,,,,,,1.03389,,,,,,,,,,,,,,,,,,,,,,,607071077825ce1b96d83505,60a7d7fac73f242a1e511092,2021-05-21_17h58.52.417,Simcolourproject_2stim_asymm_v5,2020.2.10,Win32,60,60a5f9bf14d0aa2821c4bb84,,,,,1674,-36,-76,1,0,0,response5disk,,3,-3,-3,1,0,0,rectangle,-3,-3,1,0,0,5,"[138,73,85,105,160,266,215,219,279,129,280,152,99,204,80,40,25,264,271,11]",-3,-3,1,0,0,1,52,213,41,1,,,
,,,,,,,,,,,,,FF,,,,,,,,0.68337,,,,,,,,,,,,,,,,,,,,,,,607071077825ce1b96d83505,60a7d7fac73f242a1e511092,2021-05-21_17h58.52.417,Simcolourproject_2stim_asymm_v5,2020.2.10,Win32,60,60a5f9bf14d0aa2821c4bb84,,,,,97,-37,-65,1,0,0,response5disk,,3,1,4,1,0,0,rectangle,-29,93,1,0,0,0,"[138,73,85,105,160,266,215,219,279,129,280,152,99,204,80,40,25,264,271,11]",-13,0,1,0,0,1,53,214,14,1,,response7disk_3,rectangle
,,,,,,,,,,,,,FF,,,,,,,,1.233665,,,,,,,,,,,,,,,,,,,,,,,607071077825ce1b96d83505,60a7d7fac73f242a1e511092,2021-05-21_17h58.52.417,Simcolourproject_2stim_asymm_v5,2020.2.10,Win32,60,60a5f9bf14d0aa2821c4bb84,,,,,4367,-71,-37,1,0,0,response5disk,,0,5,-4,1,0,0,rectangle,5,-4,1,0,0,5,"[138,73,85,105,160,266,215,219,279,129,280,152,99,204,80,40,25,264,271,11]",5,-4,1,0,0,1,54,215,129,1,,,
,,,,,,,,,,,,,FF,,,,,,,,1.76617,,,,,,,,,,,,,,,,,,,,,,,607071077825ce1b96d83505,60a7d7fac73f242a1e511092,2021-05-21_17h58.52.417,Simcolourproject_2stim_asymm_v5,2020.2.10,Win32,60,60a5f9bf14d0aa2821c4bb84,,,,,2715,71,-50,1,0,0,response3disk,,5,15,1,1,0,0,rectangle,15,1,1,0,0,3,"[138,73,85,105,160,266,215,219,279,129,280,152,99,204,80,40,25,264,271,11]",15,1,1,0,0,1,55,216,12,1,,,
,,,,,,,,,,,,,FF,,,,,,,,0.46646,,,,,,,,,,,,,,,,,,,,,,,607071077825ce1b96d83505,60a7d7fac73f242a1e511092,2021-05-21_17h58.52.417,Simcolourproject_2stim_asymm_v5,2020.2.10,Win32,60,60a5f9bf14d0aa2821c4bb84,,,,,2969,82,39,1,0,0,response1disk,,6,17,9,1,0,0,rectangle,17,9,1,0,0,2,"[138,73,85,105,160,266,215,219,279,129,280,152,99,204,80,40,25,264,271,11]",17,9,1,0,0,1,56,217,115,1,,,
,,,,,,,,,,,,,FF,,,,,,,,0.583825,,,,,,,,,,,,,,,,,,,,,,,607071077825ce1b96d83505,60a7d7fac73f242a1e511092,2021-05-21_17h58.52.417,Simcolourproject_2stim_asymm_v5,2020.2.10,Win32,60,60a5f9bf14d0aa2821c4bb84,,,,,1389,65,25,1,0,0,response1disk,,6,4,-5,1,0,0,rectangle,-35,91,1,0,0,0,"[138,73,85,105,160,266,215,219,279,129,280,152,99,204,80,40,25,264,271,11]",3,11,1,0,0,1,57,218,53,1,,response7disk_3,rectangle
,,,,,,,,,,,,,FF,,,,,,,,1.799785,,,,,,,,,,,,,,,,,,,,,,,607071077825ce1b96d83505,60a7d7fac73f242a1e511092,2021-05-21_17h58.52.417,Simcolourproject_2stim_asymm_v5,2020.2.10,Win32,60,60a5f9bf14d0aa2821c4bb84,,,,,130,87,-41,1,0,0,response3disk,,5,26,-1,1,0,0,rectangle,26,-1,1,0,0,4,"[138,73,85,105,160,266,215,219,279,129,280,152,99,204,80,40,25,264,271,11]",26,-1,1,0,0,1,58,219,32,1,,,
,,,,,,,,,,,,,FF,,,,,,,,0.70008,,,,,,,,,,,,,,,,,,,,,,,607071077825ce1b96d83505,60a7d7fac73f242a1e511092,2021-05-21_17h58.52.417,Simcolourproject_2stim_asymm_v5,2020.2.10,Win32,60,60a5f9bf14d0aa2821c4bb84,,,,,2891,70,37,1,0,0,response1disk,,6,8,1,1,0,0,rectangle,8,1,1,0,0,4,"[138,73,85,105,160,266,215,219,279,129,280,152,99,204,80,40,25,264,271,11]",8,1,1,0,0,1,59,220,82,1,,,
,,,,,,,,,,,,,FF,,,,,,,,0.53446,,,,,,,,,,,,,,,,,,,,,,,607071077825ce1b96d83505,60a7d7fac73f242a1e511092,2021-05-21_17h58.52.417,Simcolourproject_2stim_asymm_v5,2020.2.10,Win32,60,60a5f9bf14d0aa2821c4bb84,,,,,744,37,67,1,0,0,response1disk,,7,11,1,1,0,0,rectangle,11,1,1,0,0,5,"[138,73,85,105,160,266,215,219,279,129,280,152,99,204,80,40,25,264,271,11]",11,1,1,0,0,1,60,221,137,1,,,
,,,,,,,,,,,,,FF,,,,,,,,0.631495,,,,,,,,,,,,,,,,,,,,,,,607071077825ce1b96d83505,60a7d7fac73f242a1e511092,2021-05-21_17h58.52.417,Simcolourproject_2stim_asymm_v5,2020.2.10,Win32,60,60a5f9bf14d0aa2821c4bb84,,,,,1152,79,-31,1,0,0,response3disk,,5,24,-8,1,0,0,rectangle,24,-8,1,0,0,0,"[138,73,85,105,160,266,215,219,279,129,280,152,99,204,80,40,25,264,271,11]",24,-8,1,0,0,1,61,222,156,1,,,
,,,,,,,,,,,,,FF,,,,,,,,0.46673,,,,,,,,,,,,,,,,,,,,,,,607071077825ce1b96d83505,60a7d7fac73f242a1e511092,2021-05-21_17h58.52.417,Simcolourproject_2stim_asymm_v5,2020.2.10,Win32,60,60a5f9bf14d0aa2821c4bb84,,,,,314,84,-46,1,0,0,response3disk,,5,23,0,1,0,0,rectangle,23,0,1,0,0,4,"[138,73,85,105,160,266,215,219,279,129,280,152,99,204,80,40,25,264,271,11]",23,0,1,0,0,1,62,223,83,1,,,
,,,,,,,,,,,,,FF,,,,,,,,1.03419,,,,,,,,,,,,,,,,,,,,,,,607071077825ce1b96d83505,60a7d7fac73f242a1e511092,2021-05-21_17h58.52.417,Simcolourproject_2stim_asymm_v5,2020.2.10,Win32,60,60a5f9bf14d0aa2821c4bb84,,,,,953,75,-39,1,0,0,response3disk,,5,9,-6,1,0,0,rectangle,9,-6,1,0,0,5,"[138,73,85,105,160,266,215,219,279,129,280,152,99,204,80,40,25,264,271,11]",9,-6,1,0,0,1,63,224,20,1,,,
,,,,,,,,,,,,,FF,,,,,,,,0.872405,,,,,,,,,,,,,,,,,,,,,,,607071077825ce1b96d83505,60a7d7fac73f242a1e511092,2021-05-21_17h58.52.417,Simcolourproject_2stim_asymm_v5,2020.2.10,Win32,60,60a5f9bf14d0aa2821c4bb84,,,,,2221,91,39,1,0,0,response1disk,,6,2,5,1,0,0,rectangle,2,5,1,0,0,2,"[138,73,85,105,160,266,215,219,279,129,280,152,99,204,80,40,25,264,271,11]",2,5,1,0,0,1,64,225,123,1,,,
,,,,,,,,,,,,,FF,,,,,,,,0.46739,,,,,,,,,,,,,,,,,,,,,,,607071077825ce1b96d83505,60a7d7fac73f242a1e511092,2021-05-21_17h58.52.417,Simcolourproject_2stim_asymm_v5,2020.2.10,Win32,60,60a5f9bf14d0aa2821c4bb84,,,,,1327,24,77,1,0,0,response1disk,,7,9,11,1,0,0,rectangle,9,11,1,0,0,2,"[138,73,85,105,160,266,215,219,279,129,280,152,99,204,80,40,25,264,271,11]",9,11,1,0,0,1,65,226,94,1,,,
,,,,,,,,,,,,,FF,,,,,,,,0.766075,,,,,,,,,,,,,,,,,,,,,,,607071077825ce1b96d83505,60a7d7fac73f242a1e511092,2021-05-21_17h58.52.417,Simcolourproject_2stim_asymm_v5,2020.2.10,Win32,60,60a5f9bf14d0aa2821c4bb84,,,,,957,83,37,1,0,0,response1disk,,6,10,-3,1,0,0,rectangle,10,-3,1,0,0,6,"[138,73,85,105,160,266,215,219,279,129,280,152,99,204,80,40,25,264,271,11]",10,-3,1,0,0,1,66,227,120,1,,,
,,,,,,,,,,,,,FF,,,,,,,,1.583705,,,,,,,,,,,,,,,,,,,,,,,607071077825ce1b96d83505,60a7d7fac73f242a1e511092,2021-05-21_17h58.52.417,Simcolourproject_2stim_asymm_v5,2020.2.10,Win32,60,60a5f9bf14d0aa2821c4bb84,,,,,1094,37,78,1,0,0,response1disk,,7,9,-3,1,0,0,rectangle,9,-3,1,0,0,0,"[138,73,85,105,160,266,215,219,279,129,280,152,99,204,80,40,25,264,271,11]",9,-3,1,0,0,1,67,228,142,1,,,
,,,,,,,,,,,,,FF,,,,,,,,0.617085,,,,,,,,,,,,,,,,,,,,,,,607071077825ce1b96d83505,60a7d7fac73f242a1e511092,2021-05-21_17h58.52.417,Simcolourproject_2stim_asymm_v5,2020.2.10,Win32,60,60a5f9bf14d0aa2821c4bb84,,,,,1123,28,83,1,0,0,response1disk,,7,10,7,1,0,0,rectangle,10,7,1,0,0,1,"[138,73,85,105,160,266,215,219,279,129,280,152,99,204,80,40,25,264,271,11]",10,7,1,0,0,1,68,229,56,1,,,
,,,,,,,,,,,,,FF,,,,,,,,0.666655,,,,,,,,,,,,,,,,,,,,,,,607071077825ce1b96d83505,60a7d7fac73f242a1e511092,2021-05-21_17h58.52.417,Simcolourproject_2stim_asymm_v5,2020.2.10,Win32,60,60a5f9bf14d0aa2821c4bb84,,,,,57,86,-41,1,0,0,response3disk,,5,-5,-1,1,0,0,rectangle,-5,-1,1,0,0,2,"[138,73,85,105,160,266,215,219,279,129,280,152,99,204,80,40,25,264,271,11]",-5,-1,1,0,0,1,69,230,140,1,,,
,,,,,,,,,,,,,FF,,,,,,,,0.98345,,,,,,,,,,,,,,,,,,,,,,,607071077825ce1b96d83505,60a7d7fac73f242a1e511092,2021-05-21_17h58.52.417,Simcolourproject_2stim_asymm_v5,2020.2.10,Win32,60,60a5f9bf14d0aa2821c4bb84,,,,,2925,76,-32,1,0,0,response3disk,,5,-6,13,1,0,0,rectangle,-6,13,1,0,0,5,"[138,73,85,105,160,266,215,219,279,129,280,152,99,204,80,40,25,264,271,11]",-6,13,1,0,0,1,70,231,85,1,,,
,,,,,,,,,,,,,FF,,,,,,,,1.216675,,,,,,,,,,,,,,,,,,,,,,,607071077825ce1b96d83505,60a7d7fac73f242a1e511092,2021-05-21_17h58.52.417,Simcolourproject_2stim_asymm_v5,2020.2.10,Win32,60,60a5f9bf14d0aa2821c4bb84,,,,,2058,68,29,1,0,0,response1disk,,6,7,0,1,0,0,rectangle,7,0,1,0,0,1,"[138,73,85,105,160,266,215,219,279,129,280,152,99,204,80,40,25,264,271,11]",7,0,1,0,0,1,71,232,111,1,,,
,,,,,,,,,,,,,FF,,,,,,,,0.600705,,,,,,,,,,,,,,,,,,,,,,,607071077825ce1b96d83505,60a7d7fac73f242a1e511092,2021-05-21_17h58.52.417,Simcolourproject_2stim_asymm_v5,2020.2.10,Win32,60,60a5f9bf14d0aa2821c4bb84,,,,,1923,81,38,1,0,0,response1disk,,6,18,4,1,0,0,rectangle,18,4,1,0,0,0,"[138,73,85,105,160,266,215,219,279,129,280,152,99,204,80,40,25,264,271,11]",18,4,1,0,0,1,72,233,104,1,,,
,,,,,,,,,,,,,FF,,,,,,,,2.267215,,,,,,,,,,,,,,,,,,,,,,,607071077825ce1b96d83505,60a7d7fac73f242a1e511092,2021-05-21_17h58.52.417,Simcolourproject_2stim_asymm_v5,2020.2.10,Win32,60,60a5f9bf14d0aa2821c4bb84,,,,,2839,46,70,1,0,0,response1disk,,7,10,1,1,0,0,rectangle,10,1,1,0,0,0,"[138,73,85,105,160,266,215,219,279,129,280,152,99,204,80,40,25,264,271,11]",10,1,1,0,0,1,73,234,65,1,,,
,,,,,,,,,,,,,FF,,,,,,,,1.73302,,,,,,,,,,,,,,,,,,,,,,,607071077825ce1b96d83505,60a7d7fac73f242a1e511092,2021-05-21_17h58.52.417,Simcolourproject_2stim_asymm_v5,2020.2.10,Win32,60,60a5f9bf14d0aa2821c4bb84,,,,,3606,41,69,1,0,0,response1disk,,7,20,-6,1,0,0,rectangle,20,-6,1,0,0,2,"[138,73,85,105,160,266,215,219,279,129,280,152,99,204,80,40,25,264,271,11]",20,-6,1,0,0,1,74,235,125,1,,,
,,,,,,,,,,,,,FF,,,,,,,,0.733855,,,,,,,,,,,,,,,,,,,,,,,607071077825ce1b96d83505,60a7d7fac73f242a1e511092,2021-05-21_17h58.52.417,Simcolourproject_2stim_asymm_v5,2020.2.10,Win32,60,60a5f9bf14d0aa2821c4bb84,,,,,686,44,72,1,0,0,response1disk,,7,25,6,1,0,0,rectangle,25,6,1,0,0,6,"[138,73,85,105,160,266,215,219,279,129,280,152,99,204,80,40,25,264,271,11]",25,6,1,0,0,1,75,236,106,1,,,
,,,,,,,,,,,,,FF,,,,,,,,0.54939,,,,,,,,,,,,,,,,,,,,,,,607071077825ce1b96d83505,60a7d7fac73f242a1e511092,2021-05-21_17h58.52.417,Simcolourproject_2stim_asymm_v5,2020.2.10,Win32,60,60a5f9bf14d0aa2821c4bb84,,,,,3582,47,85,1,0,0,response1disk,,7,21,-3,1,0,0,rectangle,21,-3,1,0,0,1,"[138,73,85,105,160,266,215,219,279,129,280,152,99,204,80,40,25,264,271,11]",21,-3,1,0,0,1,76,237,124,1,,,
,,,,,,,,,,,,,FF,,,,,,,,1.033685,,,,,,,,,,,,,,,,,,,,,,,607071077825ce1b96d83505,60a7d7fac73f242a1e511092,2021-05-21_17h58.52.417,Simcolourproject_2stim_asymm_v5,2020.2.10,Win32,60,60a5f9bf14d0aa2821c4bb84,,,,,4236,-24,-67,1,0,0,response5disk,,3,3,-1,1,0,0,rectangle,3,-1,1,0,0,4,"[138,73,85,105,160,266,215,219,279,129,280,152,99,204,80,40,25,264,271,11]",3,-1,1,0,0,1,77,238,52,1,,,
,,,,,,,,,,,,,FF,,,,,,,,0.88287,,,,,,,,,,,,,,,,,,,,,,,607071077825ce1b96d83505,60a7d7fac73f242a1e511092,2021-05-21_17h58.52.417,Simcolourproject_2stim_asymm_v5,2020.2.10,Win32,60,60a5f9bf14d0aa2821c4bb84,,,,,155,41,-55,1,0,0,response3disk,,4,4,0,1,0,0,rectangle,4,0,1,0,0,0,"[138,73,85,105,160,266,215,219,279,129,280,152,99,204,80,40,25,264,271,11]",4,0,1,0,0,1,78,239,154,1,,,
,,,,,,,,,,,,,FF,,,,,,,,1.132905,,,,,,,,,,,,,,,,,,,,,,,607071077825ce1b96d83505,60a7d7fac73f242a1e511092,2021-05-21_17h58.52.417,Simcolourproject_2stim_asymm_v5,2020.2.10,Win32,60,60a5f9bf14d0aa2821c4bb84,,,,,2968,75,-37,1,0,0,response3disk,,5,23,10,1,0,0,rectangle,23,10,1,0,0,7,"[138,73,85,105,160,266,215,219,279,129,280,152,99,204,80,40,25,264,271,11]",23,10,1,0,0,1,79,240,145,1,,,
,,,,,,,,,,,,,FF,,,,,,,,0.73363,,,,,,,,,,,,,,,,,,,,,,,607071077825ce1b96d83505,60a7d7fac73f242a1e511092,2021-05-21_17h58.52.417,Simcolourproject_2stim_asymm_v5,2020.2.10,Win32,60,60a5f9bf14d0aa2821c4bb84,,,,,1875,70,31,1,0,0,response1disk,,6,-1,5,1,0,0,rectangle,-1,5,1,0,0,2,"[138,73,85,105,160,266,215,219,279,129,280,152,99,204,80,40,25,264,271,11]",-1,5,1,0,0,1,80,241,158,1,,,
,,,,,,,,,,,,,FF,,,,,,,,1.0515,,,,,,,,,,,,,,,,,,,,,,,607071077825ce1b96d83505,60a7d7fac73f242a1e511092,2021-05-21_17h58.52.417,Simcolourproject_2stim_asymm_v5,2020.2.10,Win32,60,60a5f9bf14d0aa2821c4bb84,,,,,2593,80,-36,1,0,0,response3disk,,5,15,-5,1,0,0,rectangle,15,-5,1,0,0,3,"[138,73,85,105,160,266,215,219,279,129,280,152,99,204,80,40,25,264,271,11]",15,-5,1,0,0,1,81,242,74,1,,,
,,,,,,,,,,,,,FF,,,,,,,,0.934905,,,,,,,,,,,,,,,,,,,,,,,607071077825ce1b96d83505,60a7d7fac73f242a1e511092,2021-05-21_17h58.52.417,Simcolourproject_2stim_asymm_v5,2020.2.10,Win32,60,60a5f9bf14d0aa2821c4bb84,,,,,1014,39,77,1,0,0,response1disk,,7,5,-7,1,0,0,rectangle,5,-7,1,0,0,0,"[138,73,85,105,160,266,215,219,279,129,280,152,99,204,80,40,25,264,271,11]",5,-7,1,0,0,1,82,243,55,1,,,
,,,,,,,,,,,,,FF,,,,,,,,0.78331,,,,,,,,,,,,,,,,,,,,,,,607071077825ce1b96d83505,60a7d7fac73f242a1e511092,2021-05-21_17h58.52.417,Simcolourproject_2stim_asymm_v5,2020.2.10,Win32,60,60a5f9bf14d0aa2821c4bb84,,,,,3940,35,-67,1,0,0,response3disk,,4,-1,-7,1,0,0,rectangle,-1,-7,1,0,0,0,"[138,73,85,105,160,266,215,219,279,129,280,152,99,204,80,40,25,264,271,11]",-1,-7,1,0,0,1,83,244,49,1,,,
,,,,,,,,,,,,,FF,,,,,,,,0.867055,,,,,,,,,,,,,,,,,,,,,,,607071077825ce1b96d83505,60a7d7fac73f242a1e511092,2021-05-21_17h58.52.417,Simcolourproject_2stim_asymm_v5,2020.2.10,Win32,60,60a5f9bf14d0aa2821c4bb84,,,,,4160,90,-32,1,0,0,response3disk,,5,10,0,1,0,0,rectangle,10,0,1,0,0,2,"[138,73,85,105,160,266,215,219,279,129,280,152,99,204,80,40,25,264,271,11]",10,0,1,0,0,1,84,245,131,1,,,
,,,,,,,,,,,,,FF,,,,,,,,0.70022,,,,,,,,,,,,,,,,,,,,,,,607071077825ce1b96d83505,60a7d7fac73f242a1e511092,2021-05-21_17h58.52.417,Simcolourproject_2stim_asymm_v5,2020.2.10,Win32,60,60a5f9bf14d0aa2821c4bb84,,,,,1557,72,35,1,0,0,response1disk,,6,-7,-3,1,0,0,rectangle,-7,-3,1,0,0,2,"[138,73,85,105,160,266,215,219,279,129,280,152,99,204,80,40,25,264,271,11]",-7,-3,1,0,0,1,85,246,35,1,,,
,,,,,,,,,,,,,FF,,,,,,,,0.583655,,,,,,,,,,,,,,,,,,,,,,,607071077825ce1b96d83505,60a7d7fac73f242a1e511092,2021-05-21_17h58.52.417,Simcolourproject_2stim_asymm_v5,2020.2.10,Win32,60,60a5f9bf14d0aa2821c4bb84,,,,,412,26,63,1,0,0,response1disk,,7,1,-12,1,0,0,rectangle,1,-12,1,0,0,0,"[138,73,85,105,160,266,215,219,279,129,280,152,99,204,80,40,25,264,271,11]",1,-12,1,0,0,1,86,247,22,1,,,
,,,,,,,,,,,,,FF,,,,,,,,0.750195,,,,,,,,,,,,,,,,,,,,,,,607071077825ce1b96d83505,60a7d7fac73f242a1e511092,2021-05-21_17h58.52.417,Simcolourproject_2stim_asymm_v5,2020.2.10,Win32,60,60a5f9bf14d0aa2821c4bb84,,,,,1210,53,75,1,0,0,response1disk,,7,7,-5,1,0,0,rectangle,7,-5,1,0,0,7,"[138,73,85,105,160,266,215,219,279,129,280,152,99,204,80,40,25,264,271,11]",7,-5,1,0,0,1,87,248,155,1,,,
,,,,,,,,,,,,,FF,,,,,,,,0.51733,,,,,,,,,,,,,,,,,,,,,,,607071077825ce1b96d83505,60a7d7fac73f242a1e511092,2021-05-21_17h58.52.417,Simcolourproject_2stim_asymm_v5,2020.2.10,Win32,60,60a5f9bf14d0aa2821c4bb84,,,,,4317,30,73,1,0,0,response1disk,,7,-2,-2,1,0,0,rectangle,-2,-2,1,0,0,1,"[138,73,85,105,160,266,215,219,279,129,280,152,99,204,80,40,25,264,271,11]",-2,-2,1,0,0,1,88,249,92,1,,,
,,,,,,,,,,,,,FF,,,,,,,,0.58377,,,,,,,,,,,,,,,,,,,,,,,607071077825ce1b96d83505,60a7d7fac73f242a1e511092,2021-05-21_17h58.52.417,Simcolourproject_2stim_asymm_v5,2020.2.10,Win32,60,60a5f9bf14d0aa2821c4bb84,,,,,3457,50,82,1,0,0,response1disk,,7,5,1,1,0,0,rectangle,5,1,1,0,0,7,"[138,73,85,105,160,266,215,219,279,129,280,152,99,204,80,40,25,264,271,11]",5,1,1,0,0,1,89,250,66,1,,,
