key_resp.keys,key_resp.rt,key_resp_14.keys,key_resp_14.rt,key_resp_15.keys,key_resp_15.rt,key_resp_17.keys,key_resp_17.rt,key_resp_9.keys,key_resp_9.rt,key_resp_10.keys,key_resp_10.rt,practice_comparison,Ecc,mouse_5.x,mouse_5.y,mouse_5.leftButton,mouse_5.midButton,mouse_5.rightButton,mouse_5.clicked_name,pracsimilarity,response_time,mouse_10.x,mouse_10.y,mouse_10.leftButton,mouse_10.midButton,mouse_10.rightButton,mouse_10.clicked_name,mouse_7.x,mouse_7.y,mouse_7.leftButton,mouse_7.midButton,mouse_7.rightButton,mouse_7.clicked_name,catchnumberprac,mouse_6.x,mouse_6.y,mouse_6.leftButton,mouse_6.midButton,mouse_6.rightButton,mouse_6.clicked_name,duringprac.thisRepN,duringprac.thisTrialN,duringprac.thisN,duringprac.thisIndex,duringprac.ran,participant,session,date,expName,psychopyVersion,OS,frameRate,study_id,key_resp_22.keys,key_resp_22.rt,realcomparison,mouse.x,mouse.y,mouse.leftButton,mouse.midButton,mouse.rightButton,mouse.clicked_name,Colour2,similarity,mouse_2.x,mouse_2.y,mouse_2.leftButton,mouse_2.midButton,mouse_2.rightButton,mouse_2.clicked_name,mouse_3.x,mouse_3.y,mouse_3.leftButton,mouse_3.midButton,mouse_3.rightButton,catchnumber,catchtrialorder,mouse_11.x,mouse_11.y,mouse_11.leftButton,mouse_11.midButton,mouse_11.rightButton,trials_2.thisRepN,trials_2.thisTrialN,trials_2.thisN,trials_2.thisIndex,trials_2.ran,Colour1,mouse_3.clicked_name,mouse_11.clicked_name
space,6.591275,space,23.821995,space,19.81962,space,14.37432,space,2.493015,space,6.201235,52,PF,-112,39,1,0,0,response7disk_5,1,1.767535,-9,-5,1,0,0,rectangle_8,56,117,1,0,0,response1disk_7,7,-10,-7,1,0,0,rectangle_4,0,0,0,1,1,6093db807d15df55e6990a28,60a7d7fab29dd492543b156e,2021-05-21_17h56.41.412,Simcolourproject_2stim_asymm_v5,2020.2.10,Win32,60,60a5f9bf14d0aa2821c4bb84,,,,,,,,,,,,,,,,,,,,,,,,,,,,,,,,,,,,,
,,,,,,,,,,,,79,PF,59,-40,1,0,0,response3disk_5,5,1.77914,-19,-4,1,0,0,rectangle_8,-19,-4,1,0,0,,7,-19,-4,1,0,0,,0,1,1,6,1,6093db807d15df55e6990a28,60a7d7fab29dd492543b156e,2021-05-21_17h56.41.412,Simcolourproject_2stim_asymm_v5,2020.2.10,Win32,60,60a5f9bf14d0aa2821c4bb84,,,,,,,,,,,,,,,,,,,,,,,,,,,,,,,,,,,,,
,,,,,,,,,,,,40,PF,42,-66,1,0,0,response3disk_5,4,3.52097,-8,13,1,0,0,rectangle_8,-8,13,1,0,0,,7,-8,13,1,0,0,,0,2,2,4,1,6093db807d15df55e6990a28,60a7d7fab29dd492543b156e,2021-05-21_17h56.41.412,Simcolourproject_2stim_asymm_v5,2020.2.10,Win32,60,60a5f9bf14d0aa2821c4bb84,,,,,,,,,,,,,,,,,,,,,,,,,,,,,,,,,,,,,
,,,,,,,,,,,,92,PF,98,40,1,0,0,response1disk_5,6,1.912775,-5,-6,1,0,0,rectangle_8,-5,-6,1,0,0,,7,-5,-6,1,0,0,,0,3,3,2,1,6093db807d15df55e6990a28,60a7d7fab29dd492543b156e,2021-05-21_17h56.41.412,Simcolourproject_2stim_asymm_v5,2020.2.10,Win32,60,60a5f9bf14d0aa2821c4bb84,,,,,,,,,,,,,,,,,,,,,,,,,,,,,,,,,,,,,
,,,,,,,,,,,,12,FF,63,100,1,0,0,response1disk_5,7,1.16232,14,3,1,0,0,rectangle_8,61,125,1,0,0,response1disk_7,7,11,-4,1,0,0,rectangle_4,0,4,4,0,1,6093db807d15df55e6990a28,60a7d7fab29dd492543b156e,2021-05-21_17h56.41.412,Simcolourproject_2stim_asymm_v5,2020.2.10,Win32,60,60a5f9bf14d0aa2821c4bb84,,,,,,,,,,,,,,,,,,,,,,,,,,,,,,,,,,,,,
,,,,,,,,,,,,126,FF,-95,-41,1,0,0,response5disk_5,7,1.79998,-29,-11,1,0,0,rectangle_8,-29,-11,1,0,0,,7,-29,-11,1,0,0,,0,5,5,3,1,6093db807d15df55e6990a28,60a7d7fab29dd492543b156e,2021-05-21_17h56.41.412,Simcolourproject_2stim_asymm_v5,2020.2.10,Win32,60,60a5f9bf14d0aa2821c4bb84,,,,,,,,,,,,,,,,,,,,,,,,,,,,,,,,,,,,,
,,,,,,,,,,,,132,FF,-107,56,1,0,0,response7disk_5,1,2.64989,-6,4,1,0,0,rectangle_8,-6,4,1,0,0,,7,-6,4,1,0,0,,0,6,6,5,1,6093db807d15df55e6990a28,60a7d7fab29dd492543b156e,2021-05-21_17h56.41.412,Simcolourproject_2stim_asymm_v5,2020.2.10,Win32,60,60a5f9bf14d0aa2821c4bb84,,,,,,,,,,,,,,,,,,,,,,,,,,,,,,,,,,,,,
,,,,,,,,,,,,,FF,,,,,,,,2.95021,,,,,,,,,,,,,,,,,,,,,,,,,6093db807d15df55e6990a28,60a7d7fab29dd492543b156e,2021-05-21_17h56.41.412,Simcolourproject_2stim_asymm_v5,2020.2.10,Win32,60,60a5f9bf14d0aa2821c4bb84,space,2.70785,1130,106,-36,1,0,0,response3disk,,5,-2,-9,1,0,0,rectangle,-2,-9,1,0,0,5,"[144,297,48,70,144,97,300,189,261,180,63,96,261,86,18,232,266,275,28,166]",-2,-9,1,0,0,0,0,0,56,1,,,
,,,,,,,,,,,,,FF,,,,,,,,2.78323,,,,,,,,,,,,,,,,,,,,,,,,,6093db807d15df55e6990a28,60a7d7fab29dd492543b156e,2021-05-21_17h56.41.412,Simcolourproject_2stim_asymm_v5,2020.2.10,Win32,60,60a5f9bf14d0aa2821c4bb84,,,1629,86,44,1,0,0,response1disk,,6,8,-5,1,0,0,rectangle,8,-5,1,0,0,5,"[144,297,48,70,144,97,300,189,261,180,63,96,261,86,18,232,266,275,28,166]",8,-5,1,0,0,0,1,1,80,1,,,
,,,,,,,,,,,,,FF,,,,,,,,1.433315,,,,,,,,,,,,,,,,,,,,,,,,,6093db807d15df55e6990a28,60a7d7fab29dd492543b156e,2021-05-21_17h56.41.412,Simcolourproject_2stim_asymm_v5,2020.2.10,Win32,60,60a5f9bf14d0aa2821c4bb84,,,1436,-48,-78,1,0,0,response5disk,,3,1,-6,1,0,0,rectangle,1,-6,1,0,0,7,"[144,297,48,70,144,97,300,189,261,180,63,96,261,86,18,232,266,275,28,166]",1,-6,1,0,0,0,2,2,78,1,,,
,,,,,,,,,,,,,FF,,,,,,,,1.18325,,,,,,,,,,,,,,,,,,,,,,,,,6093db807d15df55e6990a28,60a7d7fab29dd492543b156e,2021-05-21_17h56.41.412,Simcolourproject_2stim_asymm_v5,2020.2.10,Win32,60,60a5f9bf14d0aa2821c4bb84,,,1373,-106,51,1,0,0,response7disk,,1,0,-9,1,0,0,rectangle,0,-9,1,0,0,5,"[144,297,48,70,144,97,300,189,261,180,63,96,261,86,18,232,266,275,28,166]",0,-9,1,0,0,0,3,3,84,1,,,
,,,,,,,,,,,,,FF,,,,,,,,1.500045,,,,,,,,,,,,,,,,,,,,,,,,,6093db807d15df55e6990a28,60a7d7fab29dd492543b156e,2021-05-21_17h56.41.412,Simcolourproject_2stim_asymm_v5,2020.2.10,Win32,60,60a5f9bf14d0aa2821c4bb84,,,1993,88,-54,1,0,0,response3disk,,5,-1,-1,1,0,0,rectangle,-1,-1,1,0,0,5,"[144,297,48,70,144,97,300,189,261,180,63,96,261,86,18,232,266,275,28,166]",-1,-1,1,0,0,0,4,4,15,1,,,
,,,,,,,,,,,,,FF,,,,,,,,1.300105,,,,,,,,,,,,,,,,,,,,,,,,,6093db807d15df55e6990a28,60a7d7fab29dd492543b156e,2021-05-21_17h56.41.412,Simcolourproject_2stim_asymm_v5,2020.2.10,Win32,60,60a5f9bf14d0aa2821c4bb84,,,1208,-48,-82,1,0,0,response5disk,,3,8,-17,1,0,0,rectangle,8,-17,1,0,0,7,"[144,297,48,70,144,97,300,189,261,180,63,96,261,86,18,232,266,275,28,166]",8,-17,1,0,0,0,5,5,129,1,,,
,,,,,,,,,,,,,FF,,,,,,,,1.48351,,,,,,,,,,,,,,,,,,,,,,,,,6093db807d15df55e6990a28,60a7d7fab29dd492543b156e,2021-05-21_17h56.41.412,Simcolourproject_2stim_asymm_v5,2020.2.10,Win32,60,60a5f9bf14d0aa2821c4bb84,,,3970,-62,104,1,0,0,response7disk,,0,-9,6,1,0,0,rectangle,-9,6,1,0,0,4,"[144,297,48,70,144,97,300,189,261,180,63,96,261,86,18,232,266,275,28,166]",-9,6,1,0,0,0,6,6,32,1,,,
,,,,,,,,,,,,,FF,,,,,,,,1.366625,,,,,,,,,,,,,,,,,,,,,,,,,6093db807d15df55e6990a28,60a7d7fab29dd492543b156e,2021-05-21_17h56.41.412,Simcolourproject_2stim_asymm_v5,2020.2.10,Win32,60,60a5f9bf14d0aa2821c4bb84,,,2690,106,-59,1,0,0,response3disk,,5,-6,-13,1,0,0,rectangle,-6,-13,1,0,0,3,"[144,297,48,70,144,97,300,189,261,180,63,96,261,86,18,232,266,275,28,166]",-6,-13,1,0,0,0,7,7,14,1,,,
,,,,,,,,,,,,,FF,,,,,,,,1.650125,,,,,,,,,,,,,,,,,,,,,,,,,6093db807d15df55e6990a28,60a7d7fab29dd492543b156e,2021-05-21_17h56.41.412,Simcolourproject_2stim_asymm_v5,2020.2.10,Win32,60,60a5f9bf14d0aa2821c4bb84,,,1011,55,-100,1,0,0,response3disk,,4,12,11,1,0,0,rectangle,12,11,1,0,0,7,"[144,297,48,70,144,97,300,189,261,180,63,96,261,86,18,232,266,275,28,166]",12,11,1,0,0,0,8,8,88,1,,,
,,,,,,,,,,,,,FF,,,,,,,,1.48302,,,,,,,,,,,,,,,,,,,,,,,,,6093db807d15df55e6990a28,60a7d7fab29dd492543b156e,2021-05-21_17h56.41.412,Simcolourproject_2stim_asymm_v5,2020.2.10,Win32,60,60a5f9bf14d0aa2821c4bb84,,,567,54,-92,1,0,0,response3disk,,4,-8,16,1,0,0,rectangle,-8,16,1,0,0,7,"[144,297,48,70,144,97,300,189,261,180,63,96,261,86,18,232,266,275,28,166]",-8,16,1,0,0,0,9,9,126,1,,,
,,,,,,,,,,,,,FF,,,,,,,,0.93354,,,,,,,,,,,,,,,,,,,,,,,,,6093db807d15df55e6990a28,60a7d7fab29dd492543b156e,2021-05-21_17h56.41.412,Simcolourproject_2stim_asymm_v5,2020.2.10,Win32,60,60a5f9bf14d0aa2821c4bb84,,,2298,-93,-38,1,0,0,response5disk,,4,13,-13,1,0,0,rectangle,13,-13,1,0,0,2,"[144,297,48,70,144,97,300,189,261,180,63,96,261,86,18,232,266,275,28,166]",13,-13,1,0,0,0,10,10,62,1,,,
,,,,,,,,,,,,,FF,,,,,,,,1.04972,,,,,,,,,,,,,,,,,,,,,,,,,6093db807d15df55e6990a28,60a7d7fab29dd492543b156e,2021-05-21_17h56.41.412,Simcolourproject_2stim_asymm_v5,2020.2.10,Win32,60,60a5f9bf14d0aa2821c4bb84,,,1723,56,103,1,0,0,response1disk,,7,-5,12,1,0,0,rectangle,-5,12,1,0,0,0,"[144,297,48,70,144,97,300,189,261,180,63,96,261,86,18,232,266,275,28,166]",-5,12,1,0,0,0,11,11,36,1,,,
,,,,,,,,,,,,,FF,,,,,,,,0.516655,,,,,,,,,,,,,,,,,,,,,,,,,6093db807d15df55e6990a28,60a7d7fab29dd492543b156e,2021-05-21_17h56.41.412,Simcolourproject_2stim_asymm_v5,2020.2.10,Win32,60,60a5f9bf14d0aa2821c4bb84,,,2082,55,88,1,0,0,response1disk,,7,9,-14,1,0,0,rectangle,9,-14,1,0,0,0,"[144,297,48,70,144,97,300,189,261,180,63,96,261,86,18,232,266,275,28,166]",9,-14,1,0,0,0,12,12,113,1,,,
,,,,,,,,,,,,,FF,,,,,,,,0.7166,,,,,,,,,,,,,,,,,,,,,,,,,6093db807d15df55e6990a28,60a7d7fab29dd492543b156e,2021-05-21_17h56.41.412,Simcolourproject_2stim_asymm_v5,2020.2.10,Win32,60,60a5f9bf14d0aa2821c4bb84,,,112,99,47,1,0,0,response1disk,,6,-3,-9,1,0,0,rectangle,-3,-9,1,0,0,1,"[144,297,48,70,144,97,300,189,261,180,63,96,261,86,18,232,266,275,28,166]",-3,-9,1,0,0,0,13,13,64,1,,,
,,,,,,,,,,,,,FF,,,,,,,,1.333225,,,,,,,,,,,,,,,,,,,,,,,,,6093db807d15df55e6990a28,60a7d7fab29dd492543b156e,2021-05-21_17h56.41.412,Simcolourproject_2stim_asymm_v5,2020.2.10,Win32,60,60a5f9bf14d0aa2821c4bb84,,,676,40,-82,1,0,0,response3disk,,4,-4,-8,1,0,0,rectangle,-4,-8,1,0,0,2,"[144,297,48,70,144,97,300,189,261,180,63,96,261,86,18,232,266,275,28,166]",-4,-8,1,0,0,0,14,14,140,1,,,
,,,,,,,,,,,,,FF,,,,,,,,1.383175,,,,,,,,,,,,,,,,,,,,,,,,,6093db807d15df55e6990a28,60a7d7fab29dd492543b156e,2021-05-21_17h56.41.412,Simcolourproject_2stim_asymm_v5,2020.2.10,Win32,60,60a5f9bf14d0aa2821c4bb84,,,4355,-61,-35,1,0,0,response5disk,,4,-5,-1,1,0,0,rectangle,-5,-1,1,0,0,0,"[144,297,48,70,144,97,300,189,261,180,63,96,261,86,18,232,266,275,28,166]",-5,-1,1,0,0,0,15,15,43,1,,,
,,,,,,,,,,,,,FF,,,,,,,,0.90019,,,,,,,,,,,,,,,,,,,,,,,,,6093db807d15df55e6990a28,60a7d7fab29dd492543b156e,2021-05-21_17h56.41.412,Simcolourproject_2stim_asymm_v5,2020.2.10,Win32,60,60a5f9bf14d0aa2821c4bb84,,,62,80,-42,1,0,0,response3disk,,5,3,-6,1,0,0,rectangle,3,-6,1,0,0,5,"[144,297,48,70,144,97,300,189,261,180,63,96,261,86,18,232,266,275,28,166]",3,-6,1,0,0,0,16,16,138,1,,,
,,,,,,,,,,,,,FF,,,,,,,,1.01648,,,,,,,,,,,,,,,,,,,,,,,,,6093db807d15df55e6990a28,60a7d7fab29dd492543b156e,2021-05-21_17h56.41.412,Simcolourproject_2stim_asymm_v5,2020.2.10,Win32,60,60a5f9bf14d0aa2821c4bb84,,,3252,-96,44,1,0,0,response7disk,,1,15,5,1,0,0,rectangle,57,-96,1,0,0,4,"[144,297,48,70,144,97,300,189,261,180,63,96,261,86,18,232,266,275,28,166]",3,-8,1,0,0,0,17,17,102,1,,response3disk_3,rectangle
,,,,,,,,,,,,,FF,,,,,,,,1.88298,,,,,,,,,,,,,,,,,,,,,,,,,6093db807d15df55e6990a28,60a7d7fab29dd492543b156e,2021-05-21_17h56.41.412,Simcolourproject_2stim_asymm_v5,2020.2.10,Win32,60,60a5f9bf14d0aa2821c4bb84,,,167,-89,-28,1,0,0,response5disk,,4,-8,2,1,0,0,rectangle,-8,2,1,0,0,1,"[144,297,48,70,144,97,300,189,261,180,63,96,261,86,18,232,266,275,28,166]",-8,2,1,0,0,0,18,18,149,1,,,
,,,,,,,,,,,,,FF,,,,,,,,1.466495,,,,,,,,,,,,,,,,,,,,,,,,,6093db807d15df55e6990a28,60a7d7fab29dd492543b156e,2021-05-21_17h56.41.412,Simcolourproject_2stim_asymm_v5,2020.2.10,Win32,60,60a5f9bf14d0aa2821c4bb84,,,2559,-49,-81,1,0,0,response5disk,,3,10,3,1,0,0,rectangle,10,3,1,0,0,4,"[144,297,48,70,144,97,300,189,261,180,63,96,261,86,18,232,266,275,28,166]",10,3,1,0,0,0,19,19,106,1,,,
,,,,,,,,,,,,,FF,,,,,,,,1.34965,,,,,,,,,,,,,,,,,,,,,,,,,6093db807d15df55e6990a28,60a7d7fab29dd492543b156e,2021-05-21_17h56.41.412,Simcolourproject_2stim_asymm_v5,2020.2.10,Win32,60,60a5f9bf14d0aa2821c4bb84,,,3783,-104,-33,1,0,0,response5disk,,3,-6,-3,1,0,0,rectangle,-6,-3,1,0,0,2,"[144,297,48,70,144,97,300,189,261,180,63,96,261,86,18,232,266,275,28,166]",-6,-3,1,0,0,0,20,20,89,1,,,
,,,,,,,,,,,,,FF,,,,,,,,1.383275,,,,,,,,,,,,,,,,,,,,,,,,,6093db807d15df55e6990a28,60a7d7fab29dd492543b156e,2021-05-21_17h56.41.412,Simcolourproject_2stim_asymm_v5,2020.2.10,Win32,60,60a5f9bf14d0aa2821c4bb84,,,1256,31,-104,1,0,0,response3disk,,4,-6,11,1,0,0,rectangle,-6,11,1,0,0,3,"[144,297,48,70,144,97,300,189,261,180,63,96,261,86,18,232,266,275,28,166]",-6,11,1,0,0,0,21,21,157,1,,,
,,,,,,,,,,,,,FF,,,,,,,,0.816815,,,,,,,,,,,,,,,,,,,,,,,,,6093db807d15df55e6990a28,60a7d7fab29dd492543b156e,2021-05-21_17h56.41.412,Simcolourproject_2stim_asymm_v5,2020.2.10,Win32,60,60a5f9bf14d0aa2821c4bb84,,,2943,-90,-35,1,0,0,response5disk,,4,-18,1,1,0,0,rectangle,-18,1,1,0,0,0,"[144,297,48,70,144,97,300,189,261,180,63,96,261,86,18,232,266,275,28,166]",-18,1,1,0,0,0,22,22,141,1,,,
,,,,,,,,,,,,,FF,,,,,,,,0.86675,,,,,,,,,,,,,,,,,,,,,,,,,6093db807d15df55e6990a28,60a7d7fab29dd492543b156e,2021-05-21_17h56.41.412,Simcolourproject_2stim_asymm_v5,2020.2.10,Win32,60,60a5f9bf14d0aa2821c4bb84,,,1920,106,-42,1,0,0,response3disk,,5,9,-6,1,0,0,rectangle,9,-6,1,0,0,6,"[144,297,48,70,144,97,300,189,261,180,63,96,261,86,18,232,266,275,28,166]",9,-6,1,0,0,0,23,23,122,1,,,
,,,,,,,,,,,,,FF,,,,,,,,2.449795,,,,,,,,,,,,,,,,,,,,,,,,,6093db807d15df55e6990a28,60a7d7fab29dd492543b156e,2021-05-21_17h56.41.412,Simcolourproject_2stim_asymm_v5,2020.2.10,Win32,60,60a5f9bf14d0aa2821c4bb84,,,3505,-89,45,1,0,0,response7disk,,1,6,-13,1,0,0,rectangle,6,-13,1,0,0,2,"[144,297,48,70,144,97,300,189,261,180,63,96,261,86,18,232,266,275,28,166]",6,-13,1,0,0,0,24,24,30,1,,,
,,,,,,,,,,,,,FF,,,,,,,,1.166525,,,,,,,,,,,,,,,,,,,,,,,,,6093db807d15df55e6990a28,60a7d7fab29dd492543b156e,2021-05-21_17h56.41.412,Simcolourproject_2stim_asymm_v5,2020.2.10,Win32,60,60a5f9bf14d0aa2821c4bb84,,,1328,53,-75,1,0,0,response3disk,,4,-18,6,1,0,0,rectangle,-18,6,1,0,0,4,"[144,297,48,70,144,97,300,189,261,180,63,96,261,86,18,232,266,275,28,166]",-18,6,1,0,0,0,25,25,49,1,,,
,,,,,,,,,,,,,FF,,,,,,,,1.23342,,,,,,,,,,,,,,,,,,,,,,,,,6093db807d15df55e6990a28,60a7d7fab29dd492543b156e,2021-05-21_17h56.41.412,Simcolourproject_2stim_asymm_v5,2020.2.10,Win32,60,60a5f9bf14d0aa2821c4bb84,,,3909,-93,-43,1,0,0,response5disk,,4,-19,-1,1,0,0,rectangle,-19,-1,1,0,0,7,"[144,297,48,70,144,97,300,189,261,180,63,96,261,86,18,232,266,275,28,166]",-19,-1,1,0,0,0,26,26,72,1,,,
,,,,,,,,,,,,,FF,,,,,,,,0.76669,,,,,,,,,,,,,,,,,,,,,,,,,6093db807d15df55e6990a28,60a7d7fab29dd492543b156e,2021-05-21_17h56.41.412,Simcolourproject_2stim_asymm_v5,2020.2.10,Win32,60,60a5f9bf14d0aa2821c4bb84,,,3568,92,-41,1,0,0,response3disk,,5,25,19,1,0,0,rectangle,60,103,1,0,0,7,"[144,297,48,70,144,97,300,189,261,180,63,96,261,86,18,232,266,275,28,166]",6,6,1,0,0,0,27,27,9,1,,response1disk_3,rectangle
,,,,,,,,,,,,,FF,,,,,,,,1.13349,,,,,,,,,,,,,,,,,,,,,,,,,6093db807d15df55e6990a28,60a7d7fab29dd492543b156e,2021-05-21_17h56.41.412,Simcolourproject_2stim_asymm_v5,2020.2.10,Win32,60,60a5f9bf14d0aa2821c4bb84,,,1042,-87,-49,1,0,0,response5disk,,7,-3,-13,1,0,0,rectangle,-3,-13,1,0,0,7,"[144,297,48,70,144,97,300,189,261,180,63,96,261,86,18,232,266,275,28,166]",-3,-13,1,0,0,0,28,28,99,1,,,
,,,,,,,,,,,,,FF,,,,,,,,1.816935,,,,,,,,,,,,,,,,,,,,,,,,,6093db807d15df55e6990a28,60a7d7fab29dd492543b156e,2021-05-21_17h56.41.412,Simcolourproject_2stim_asymm_v5,2020.2.10,Win32,60,60a5f9bf14d0aa2821c4bb84,,,818,39,-95,1,0,0,response3disk,,4,6,-20,1,0,0,rectangle,6,-20,1,0,0,7,"[144,297,48,70,144,97,300,189,261,180,63,96,261,86,18,232,266,275,28,166]",6,-20,1,0,0,0,29,29,142,1,,,
,,,,,,,,,,,,,FF,,,,,,,,1.250195,,,,,,,,,,,,,,,,,,,,,,,,,6093db807d15df55e6990a28,60a7d7fab29dd492543b156e,2021-05-21_17h56.41.412,Simcolourproject_2stim_asymm_v5,2020.2.10,Win32,60,60a5f9bf14d0aa2821c4bb84,,,3650,-93,-45,1,0,0,response5disk,,4,7,-18,1,0,0,rectangle,7,-18,1,0,0,2,"[144,297,48,70,144,97,300,189,261,180,63,96,261,86,18,232,266,275,28,166]",7,-18,1,0,0,0,30,30,13,1,,,
,,,,,,,,,,,,,FF,,,,,,,,3.06677,,,,,,,,,,,,,,,,,,,,,,,,,6093db807d15df55e6990a28,60a7d7fab29dd492543b156e,2021-05-21_17h56.41.412,Simcolourproject_2stim_asymm_v5,2020.2.10,Win32,60,60a5f9bf14d0aa2821c4bb84,,,3413,-34,-71,1,0,0,response5disk,,3,5,-19,1,0,0,rectangle,5,-19,1,0,0,5,"[144,297,48,70,144,97,300,189,261,180,63,96,261,86,18,232,266,275,28,166]",5,-19,1,0,0,0,31,31,117,1,,,
,,,,,,,,,,,,,FF,,,,,,,,1.033085,,,,,,,,,,,,,,,,,,,,,,,,,6093db807d15df55e6990a28,60a7d7fab29dd492543b156e,2021-05-21_17h56.41.412,Simcolourproject_2stim_asymm_v5,2020.2.10,Win32,60,60a5f9bf14d0aa2821c4bb84,,,767,110,56,1,0,0,response1disk,,6,-8,-8,1,0,0,rectangle,-8,-8,1,0,0,3,"[144,297,48,70,144,97,300,189,261,180,63,96,261,86,18,232,266,275,28,166]",-8,-8,1,0,0,0,32,32,31,1,,,
,,,,,,,,,,,,,FF,,,,,,,,1.54998,,,,,,,,,,,,,,,,,,,,,,,,,6093db807d15df55e6990a28,60a7d7fab29dd492543b156e,2021-05-21_17h56.41.412,Simcolourproject_2stim_asymm_v5,2020.2.10,Win32,60,60a5f9bf14d0aa2821c4bb84,,,2494,96,-55,1,0,0,response3disk,,5,2,-17,1,0,0,rectangle,2,-17,1,0,0,2,"[144,297,48,70,144,97,300,189,261,180,63,96,261,86,18,232,266,275,28,166]",2,-17,1,0,0,0,33,33,136,1,,,
,,,,,,,,,,,,,FF,,,,,,,,1.4498,,,,,,,,,,,,,,,,,,,,,,,,,6093db807d15df55e6990a28,60a7d7fab29dd492543b156e,2021-05-21_17h56.41.412,Simcolourproject_2stim_asymm_v5,2020.2.10,Win32,60,60a5f9bf14d0aa2821c4bb84,,,1669,-37,-119,1,0,0,response5disk,,3,-2,-14,1,0,0,rectangle,-2,-14,1,0,0,5,"[144,297,48,70,144,97,300,189,261,180,63,96,261,86,18,232,266,275,28,166]",-2,-14,1,0,0,0,34,34,83,1,,,
,,,,,,,,,,,,,FF,,,,,,,,1.266785,,,,,,,,,,,,,,,,,,,,,,,,,6093db807d15df55e6990a28,60a7d7fab29dd492543b156e,2021-05-21_17h56.41.412,Simcolourproject_2stim_asymm_v5,2020.2.10,Win32,60,60a5f9bf14d0aa2821c4bb84,,,2834,-110,-45,1,0,0,response5disk,,3,14,3,1,0,0,rectangle,14,3,1,0,0,3,"[144,297,48,70,144,97,300,189,261,180,63,96,261,86,18,232,266,275,28,166]",14,3,1,0,0,0,35,35,115,1,,,
,,,,,,,,,,,,,FF,,,,,,,,0.88309,,,,,,,,,,,,,,,,,,,,,,,,,6093db807d15df55e6990a28,60a7d7fab29dd492543b156e,2021-05-21_17h56.41.412,Simcolourproject_2stim_asymm_v5,2020.2.10,Win32,60,60a5f9bf14d0aa2821c4bb84,,,3682,-99,-43,1,0,0,response5disk,,3,-14,-18,1,0,0,rectangle,-14,-18,1,0,0,4,"[144,297,48,70,144,97,300,189,261,180,63,96,261,86,18,232,266,275,28,166]",-14,-18,1,0,0,0,36,36,44,1,,,
,,,,,,,,,,,,,FF,,,,,,,,0.88317,,,,,,,,,,,,,,,,,,,,,,,,,6093db807d15df55e6990a28,60a7d7fab29dd492543b156e,2021-05-21_17h56.41.412,Simcolourproject_2stim_asymm_v5,2020.2.10,Win32,60,60a5f9bf14d0aa2821c4bb84,,,3079,87,-38,1,0,0,response3disk,,5,13,1,1,0,0,rectangle,13,1,1,0,0,1,"[144,297,48,70,144,97,300,189,261,180,63,96,261,86,18,232,266,275,28,166]",13,1,1,0,0,0,37,37,10,1,,,
,,,,,,,,,,,,,FF,,,,,,,,1.300095,,,,,,,,,,,,,,,,,,,,,,,,,6093db807d15df55e6990a28,60a7d7fab29dd492543b156e,2021-05-21_17h56.41.412,Simcolourproject_2stim_asymm_v5,2020.2.10,Win32,60,60a5f9bf14d0aa2821c4bb84,,,3067,124,-47,1,0,0,response3disk,,5,4,1,1,0,0,rectangle,4,1,1,0,0,5,"[144,297,48,70,144,97,300,189,261,180,63,96,261,86,18,232,266,275,28,166]",4,1,1,0,0,0,38,38,144,1,,,
,,,,,,,,,,,,,FF,,,,,,,,1.29992,,,,,,,,,,,,,,,,,,,,,,,,,6093db807d15df55e6990a28,60a7d7fab29dd492543b156e,2021-05-21_17h56.41.412,Simcolourproject_2stim_asymm_v5,2020.2.10,Win32,60,60a5f9bf14d0aa2821c4bb84,,,327,122,56,1,0,0,response1disk,,6,-1,-3,1,0,0,rectangle,-1,-3,1,0,0,6,"[144,297,48,70,144,97,300,189,261,180,63,96,261,86,18,232,266,275,28,166]",-1,-3,1,0,0,0,39,39,65,1,,,
,,,,,,,,,,,,,FF,,,,,,,,1.733805,,,,,,,,,,,,,,,,,,,,,,,,,6093db807d15df55e6990a28,60a7d7fab29dd492543b156e,2021-05-21_17h56.41.412,Simcolourproject_2stim_asymm_v5,2020.2.10,Win32,60,60a5f9bf14d0aa2821c4bb84,,,2084,35,-102,1,0,0,response3disk,,4,8,4,1,0,0,rectangle,8,4,1,0,0,7,"[144,297,48,70,144,97,300,189,261,180,63,96,261,86,18,232,266,275,28,166]",8,4,1,0,0,0,40,40,156,1,,,
,,,,,,,,,,,,,FF,,,,,,,,1.10008,,,,,,,,,,,,,,,,,,,,,,,,,6093db807d15df55e6990a28,60a7d7fab29dd492543b156e,2021-05-21_17h56.41.412,Simcolourproject_2stim_asymm_v5,2020.2.10,Win32,60,60a5f9bf14d0aa2821c4bb84,,,1724,96,-52,1,0,0,response3disk,,5,7,-2,1,0,0,rectangle,7,-2,1,0,0,2,"[144,297,48,70,144,97,300,189,261,180,63,96,261,86,18,232,266,275,28,166]",7,-2,1,0,0,0,41,41,116,1,,,
,,,,,,,,,,,,,FF,,,,,,,,2.11686,,,,,,,,,,,,,,,,,,,,,,,,,6093db807d15df55e6990a28,60a7d7fab29dd492543b156e,2021-05-21_17h56.41.412,Simcolourproject_2stim_asymm_v5,2020.2.10,Win32,60,60a5f9bf14d0aa2821c4bb84,,,3981,-111,-67,1,0,0,response5disk,,5,28,-4,1,0,0,rectangle,28,-4,1,0,0,6,"[144,297,48,70,144,97,300,189,261,180,63,96,261,86,18,232,266,275,28,166]",28,-4,1,0,0,0,42,42,109,1,,,
,,,,,,,,,,,,,FF,,,,,,,,0.983225,,,,,,,,,,,,,,,,,,,,,,,,,6093db807d15df55e6990a28,60a7d7fab29dd492543b156e,2021-05-21_17h56.41.412,Simcolourproject_2stim_asymm_v5,2020.2.10,Win32,60,60a5f9bf14d0aa2821c4bb84,,,1720,127,38,1,0,0,response1disk,,6,18,10,1,0,0,rectangle,18,10,1,0,0,7,"[144,297,48,70,144,97,300,189,261,180,63,96,261,86,18,232,266,275,28,166]",18,10,1,0,0,0,43,43,57,1,,,
,,,,,,,,,,,,,FF,,,,,,,,0.93341,,,,,,,,,,,,,,,,,,,,,,,,,6093db807d15df55e6990a28,60a7d7fab29dd492543b156e,2021-05-21_17h56.41.412,Simcolourproject_2stim_asymm_v5,2020.2.10,Win32,60,60a5f9bf14d0aa2821c4bb84,,,1918,70,-29,1,0,0,response3disk,,5,-17,12,1,0,0,rectangle,-17,12,1,0,0,2,"[144,297,48,70,144,97,300,189,261,180,63,96,261,86,18,232,266,275,28,166]",-17,12,1,0,0,0,44,44,63,1,,,
,,,,,,,,,,,,,FF,,,,,,,,1.13333,,,,,,,,,,,,,,,,,,,,,,,,,6093db807d15df55e6990a28,60a7d7fab29dd492543b156e,2021-05-21_17h56.41.412,Simcolourproject_2stim_asymm_v5,2020.2.10,Win32,60,60a5f9bf14d0aa2821c4bb84,,,1643,67,98,1,0,0,response1disk,,7,-8,-1,1,0,0,rectangle,-8,-1,1,0,0,7,"[144,297,48,70,144,97,300,189,261,180,63,96,261,86,18,232,266,275,28,166]",-8,-1,1,0,0,0,45,45,18,1,,,
,,,,,,,,,,,,,FF,,,,,,,,1.81625,,,,,,,,,,,,,,,,,,,,,,,,,6093db807d15df55e6990a28,60a7d7fab29dd492543b156e,2021-05-21_17h56.41.412,Simcolourproject_2stim_asymm_v5,2020.2.10,Win32,60,60a5f9bf14d0aa2821c4bb84,,,4084,52,-116,1,0,0,response3disk,,4,-4,-20,1,0,0,rectangle,-4,-20,1,0,0,2,"[144,297,48,70,144,97,300,189,261,180,63,96,261,86,18,232,266,275,28,166]",-4,-20,1,0,0,0,46,46,0,1,,,
,,,,,,,,,,,,,FF,,,,,,,,1.59998,,,,,,,,,,,,,,,,,,,,,,,,,6093db807d15df55e6990a28,60a7d7fab29dd492543b156e,2021-05-21_17h56.41.412,Simcolourproject_2stim_asymm_v5,2020.2.10,Win32,60,60a5f9bf14d0aa2821c4bb84,,,2562,-49,-97,1,0,0,response5disk,,3,26,1,1,0,0,rectangle,-118,40,1,0,0,1,"[144,297,48,70,144,97,300,189,261,180,63,96,261,86,18,232,266,275,28,166]",0,-7,1,0,0,0,47,47,39,1,,response7disk_3,rectangle
,,,,,,,,,,,,,FF,,,,,,,,1.099885,,,,,,,,,,,,,,,,,,,,,,,,,6093db807d15df55e6990a28,60a7d7fab29dd492543b156e,2021-05-21_17h56.41.412,Simcolourproject_2stim_asymm_v5,2020.2.10,Win32,60,60a5f9bf14d0aa2821c4bb84,,,1558,89,-52,1,0,0,response3disk,,5,3,8,1,0,0,rectangle,3,8,1,0,0,7,"[144,297,48,70,144,97,300,189,261,180,63,96,261,86,18,232,266,275,28,166]",3,8,1,0,0,0,48,48,92,1,,,
,,,,,,,,,,,,,FF,,,,,,,,0.9333,,,,,,,,,,,,,,,,,,,,,,,,,6093db807d15df55e6990a28,60a7d7fab29dd492543b156e,2021-05-21_17h56.41.412,Simcolourproject_2stim_asymm_v5,2020.2.10,Win32,60,60a5f9bf14d0aa2821c4bb84,,,3005,-82,-38,1,0,0,response5disk,,5,-13,-11,1,0,0,rectangle,-13,-11,1,0,0,1,"[144,297,48,70,144,97,300,189,261,180,63,96,261,86,18,232,266,275,28,166]",-13,-11,1,0,0,0,49,49,134,1,,,
,,,,,,,,,,,,,FF,,,,,,,,0.96685,,,,,,,,,,,,,,,,,,,,,,,,,6093db807d15df55e6990a28,60a7d7fab29dd492543b156e,2021-05-21_17h56.41.412,Simcolourproject_2stim_asymm_v5,2020.2.10,Win32,60,60a5f9bf14d0aa2821c4bb84,,,2100,-62,93,1,0,0,response7disk,,0,-9,2,1,0,0,rectangle,-9,2,1,0,0,2,"[144,297,48,70,144,97,300,189,261,180,63,96,261,86,18,232,266,275,28,166]",-9,2,1,0,0,0,50,50,90,1,,,
,,,,,,,,,,,,,FF,,,,,,,,1.14986,,,,,,,,,,,,,,,,,,,,,,,,,6093db807d15df55e6990a28,60a7d7fab29dd492543b156e,2021-05-21_17h56.41.412,Simcolourproject_2stim_asymm_v5,2020.2.10,Win32,60,60a5f9bf14d0aa2821c4bb84,,,4054,-105,42,1,0,0,response7disk,,1,1,4,1,0,0,rectangle,1,4,1,0,0,4,"[144,297,48,70,144,97,300,189,261,180,63,96,261,86,18,232,266,275,28,166]",1,4,1,0,0,0,51,51,159,1,,,
,,,,,,,,,,,,,FF,,,,,,,,1.699815,,,,,,,,,,,,,,,,,,,,,,,,,6093db807d15df55e6990a28,60a7d7fab29dd492543b156e,2021-05-21_17h56.41.412,Simcolourproject_2stim_asymm_v5,2020.2.10,Win32,60,60a5f9bf14d0aa2821c4bb84,,,3849,-115,-44,1,0,0,response5disk,,1,5,-10,1,0,0,rectangle,5,-10,1,0,0,5,"[144,297,48,70,144,97,300,189,261,180,63,96,261,86,18,232,266,275,28,166]",5,-10,1,0,0,0,52,52,52,1,,,
,,,,,,,,,,,,,FF,,,,,,,,0.966765,,,,,,,,,,,,,,,,,,,,,,,,,6093db807d15df55e6990a28,60a7d7fab29dd492543b156e,2021-05-21_17h56.41.412,Simcolourproject_2stim_asymm_v5,2020.2.10,Win32,60,60a5f9bf14d0aa2821c4bb84,,,3604,-47,-92,1,0,0,response5disk,,3,24,-10,1,0,0,rectangle,24,-10,1,0,0,5,"[144,297,48,70,144,97,300,189,261,180,63,96,261,86,18,232,266,275,28,166]",24,-10,1,0,0,0,53,53,85,1,,,
,,,,,,,,,,,,,FF,,,,,,,,1.350035,,,,,,,,,,,,,,,,,,,,,,,,,6093db807d15df55e6990a28,60a7d7fab29dd492543b156e,2021-05-21_17h56.41.412,Simcolourproject_2stim_asymm_v5,2020.2.10,Win32,60,60a5f9bf14d0aa2821c4bb84,,,433,-46,-97,1,0,0,response5disk,,3,-12,4,1,0,0,rectangle,-12,4,1,0,0,5,"[144,297,48,70,144,97,300,189,261,180,63,96,261,86,18,232,266,275,28,166]",-12,4,1,0,0,0,54,54,2,1,,,
,,,,,,,,,,,,,FF,,,,,,,,1.683215,,,,,,,,,,,,,,,,,,,,,,,,,6093db807d15df55e6990a28,60a7d7fab29dd492543b156e,2021-05-21_17h56.41.412,Simcolourproject_2stim_asymm_v5,2020.2.10,Win32,60,60a5f9bf14d0aa2821c4bb84,,,3724,98,-49,1,0,0,response3disk,,5,-6,12,1,0,0,rectangle,-6,12,1,0,0,5,"[144,297,48,70,144,97,300,189,261,180,63,96,261,86,18,232,266,275,28,166]",-6,12,1,0,0,0,55,55,143,1,,,
,,,,,,,,,,,,,FF,,,,,,,,1.517425,,,,,,,,,,,,,,,,,,,,,,,,,6093db807d15df55e6990a28,60a7d7fab29dd492543b156e,2021-05-21_17h56.41.412,Simcolourproject_2stim_asymm_v5,2020.2.10,Win32,60,60a5f9bf14d0aa2821c4bb84,,,1480,86,-49,1,0,0,response3disk,,5,-3,7,1,0,0,rectangle,-3,7,1,0,0,2,"[144,297,48,70,144,97,300,189,261,180,63,96,261,86,18,232,266,275,28,166]",-3,7,1,0,0,0,56,56,6,1,,,
,,,,,,,,,,,,,FF,,,,,,,,0.883435,,,,,,,,,,,,,,,,,,,,,,,,,6093db807d15df55e6990a28,60a7d7fab29dd492543b156e,2021-05-21_17h56.41.412,Simcolourproject_2stim_asymm_v5,2020.2.10,Win32,60,60a5f9bf14d0aa2821c4bb84,,,2894,-91,-43,1,0,0,response5disk,,5,3,-7,1,0,0,rectangle,3,-7,1,0,0,1,"[144,297,48,70,144,97,300,189,261,180,63,96,261,86,18,232,266,275,28,166]",3,-7,1,0,0,0,57,57,107,1,,,
,,,,,,,,,,,,,FF,,,,,,,,2.449995,,,,,,,,,,,,,,,,,,,,,,,,,6093db807d15df55e6990a28,60a7d7fab29dd492543b156e,2021-05-21_17h56.41.412,Simcolourproject_2stim_asymm_v5,2020.2.10,Win32,60,60a5f9bf14d0aa2821c4bb84,,,1370,-87,-35,1,0,0,response5disk,,5,-12,2,1,0,0,rectangle,-12,2,1,0,0,6,"[144,297,48,70,144,97,300,189,261,180,63,96,261,86,18,232,266,275,28,166]",-12,2,1,0,0,0,58,58,34,1,,,
,,,,,,,,,,,,,FF,,,,,,,,0.883155,,,,,,,,,,,,,,,,,,,,,,,,,6093db807d15df55e6990a28,60a7d7fab29dd492543b156e,2021-05-21_17h56.41.412,Simcolourproject_2stim_asymm_v5,2020.2.10,Win32,60,60a5f9bf14d0aa2821c4bb84,,,1081,53,78,1,0,0,response1disk,,7,-12,7,1,0,0,rectangle,-12,7,1,0,0,2,"[144,297,48,70,144,97,300,189,261,180,63,96,261,86,18,232,266,275,28,166]",-12,7,1,0,0,0,59,59,124,1,,,
,,,,,,,,,,,,,FF,,,,,,,,1.083465,,,,,,,,,,,,,,,,,,,,,,,,,6093db807d15df55e6990a28,60a7d7fab29dd492543b156e,2021-05-21_17h56.41.412,Simcolourproject_2stim_asymm_v5,2020.2.10,Win32,60,60a5f9bf14d0aa2821c4bb84,,,1414,46,88,1,0,0,response1disk,,7,-14,8,1,0,0,rectangle,-14,8,1,0,0,4,"[144,297,48,70,144,97,300,189,261,180,63,96,261,86,18,232,266,275,28,166]",-14,8,1,0,0,0,60,60,94,1,,,
,,,,,,,,,,,,,FF,,,,,,,,0.96659,,,,,,,,,,,,,,,,,,,,,,,,,6093db807d15df55e6990a28,60a7d7fab29dd492543b156e,2021-05-21_17h56.41.412,Simcolourproject_2stim_asymm_v5,2020.2.10,Win32,60,60a5f9bf14d0aa2821c4bb84,,,2947,-85,-48,1,0,0,response5disk,,7,-17,-9,1,0,0,rectangle,-17,-9,1,0,0,3,"[144,297,48,70,144,97,300,189,261,180,63,96,261,86,18,232,266,275,28,166]",-17,-9,1,0,0,0,61,61,81,1,,,
,,,,,,,,,,,,,FF,,,,,,,,1.11683,,,,,,,,,,,,,,,,,,,,,,,,,6093db807d15df55e6990a28,60a7d7fab29dd492543b156e,2021-05-21_17h56.41.412,Simcolourproject_2stim_asymm_v5,2020.2.10,Win32,60,60a5f9bf14d0aa2821c4bb84,,,1115,44,-87,1,0,0,response3disk,,4,4,-15,1,0,0,rectangle,-48,108,1,0,0,0,"[144,297,48,70,144,97,300,189,261,180,63,96,261,86,18,232,266,275,28,166]",-5,5,1,0,0,0,62,62,37,1,,response7disk_3,rectangle
,,,,,,,,,,,,,FF,,,,,,,,2.199915,,,,,,,,,,,,,,,,,,,,,,,,,6093db807d15df55e6990a28,60a7d7fab29dd492543b156e,2021-05-21_17h56.41.412,Simcolourproject_2stim_asymm_v5,2020.2.10,Win32,60,60a5f9bf14d0aa2821c4bb84,,,2255,112,52,1,0,0,response1disk,,6,16,4,1,0,0,rectangle,16,4,1,0,0,7,"[144,297,48,70,144,97,300,189,261,180,63,96,261,86,18,232,266,275,28,166]",16,4,1,0,0,0,63,63,151,1,,,
,,,,,,,,,,,,,FF,,,,,,,,0.91674,,,,,,,,,,,,,,,,,,,,,,,,,6093db807d15df55e6990a28,60a7d7fab29dd492543b156e,2021-05-21_17h56.41.412,Simcolourproject_2stim_asymm_v5,2020.2.10,Win32,60,60a5f9bf14d0aa2821c4bb84,,,3747,-104,33,1,0,0,response7disk,,1,-18,-2,1,0,0,rectangle,-18,-2,1,0,0,4,"[144,297,48,70,144,97,300,189,261,180,63,96,261,86,18,232,266,275,28,166]",-18,-2,1,0,0,0,64,64,42,1,,,
,,,,,,,,,,,,,FF,,,,,,,,0.88356,,,,,,,,,,,,,,,,,,,,,,,,,6093db807d15df55e6990a28,60a7d7fab29dd492543b156e,2021-05-21_17h56.41.412,Simcolourproject_2stim_asymm_v5,2020.2.10,Win32,60,60a5f9bf14d0aa2821c4bb84,,,4039,72,-35,1,0,0,response3disk,,5,9,1,1,0,0,rectangle,9,1,1,0,0,6,"[144,297,48,70,144,97,300,189,261,180,63,96,261,86,18,232,266,275,28,166]",9,1,1,0,0,0,65,65,111,1,,,
,,,,,,,,,,,,,FF,,,,,,,,1.116605,,,,,,,,,,,,,,,,,,,,,,,,,6093db807d15df55e6990a28,60a7d7fab29dd492543b156e,2021-05-21_17h56.41.412,Simcolourproject_2stim_asymm_v5,2020.2.10,Win32,60,60a5f9bf14d0aa2821c4bb84,,,1615,49,-105,1,0,0,response3disk,,4,0,-18,1,0,0,rectangle,0,-18,1,0,0,6,"[144,297,48,70,144,97,300,189,261,180,63,96,261,86,18,232,266,275,28,166]",0,-18,1,0,0,0,66,66,50,1,,,
,,,,,,,,,,,,,FF,,,,,,,,0.90003,,,,,,,,,,,,,,,,,,,,,,,,,6093db807d15df55e6990a28,60a7d7fab29dd492543b156e,2021-05-21_17h56.41.412,Simcolourproject_2stim_asymm_v5,2020.2.10,Win32,60,60a5f9bf14d0aa2821c4bb84,,,850,122,65,1,0,0,response1disk,,6,2,-11,1,0,0,rectangle,2,-11,1,0,0,1,"[144,297,48,70,144,97,300,189,261,180,63,96,261,86,18,232,266,275,28,166]",2,-11,1,0,0,0,67,67,123,1,,,
,,,,,,,,,,,,,FF,,,,,,,,0.78321,,,,,,,,,,,,,,,,,,,,,,,,,6093db807d15df55e6990a28,60a7d7fab29dd492543b156e,2021-05-21_17h56.41.412,Simcolourproject_2stim_asymm_v5,2020.2.10,Win32,60,60a5f9bf14d0aa2821c4bb84,,,1503,48,139,1,0,0,response1disk,,7,13,8,1,0,0,rectangle,13,8,1,0,0,2,"[144,297,48,70,144,97,300,189,261,180,63,96,261,86,18,232,266,275,28,166]",13,8,1,0,0,0,68,68,155,1,,,
,,,,,,,,,,,,,FF,,,,,,,,1.783385,,,,,,,,,,,,,,,,,,,,,,,,,6093db807d15df55e6990a28,60a7d7fab29dd492543b156e,2021-05-21_17h56.41.412,Simcolourproject_2stim_asymm_v5,2020.2.10,Win32,60,60a5f9bf14d0aa2821c4bb84,,,109,99,57,1,0,0,response1disk,,6,21,2,1,0,0,rectangle,-114,53,1,0,0,1,"[144,297,48,70,144,97,300,189,261,180,63,96,261,86,18,232,266,275,28,166]",-16,3,1,0,0,0,69,69,150,1,,response7disk_3,rectangle
,,,,,,,,,,,,,FF,,,,,,,,1.133405,,,,,,,,,,,,,,,,,,,,,,,,,6093db807d15df55e6990a28,60a7d7fab29dd492543b156e,2021-05-21_17h56.41.412,Simcolourproject_2stim_asymm_v5,2020.2.10,Win32,60,60a5f9bf14d0aa2821c4bb84,,,2445,113,-58,1,0,0,response3disk,,5,5,-2,1,0,0,rectangle,5,-2,1,0,0,3,"[144,297,48,70,144,97,300,189,261,180,63,96,261,86,18,232,266,275,28,166]",5,-2,1,0,0,0,70,70,11,1,,,
,,,,,,,,,,,,,FF,,,,,,,,2.58338,,,,,,,,,,,,,,,,,,,,,,,,,6093db807d15df55e6990a28,60a7d7fab29dd492543b156e,2021-05-21_17h56.41.412,Simcolourproject_2stim_asymm_v5,2020.2.10,Win32,60,60a5f9bf14d0aa2821c4bb84,,,1110,118,-57,1,0,0,response3disk,,5,-4,12,1,0,0,rectangle,-4,12,1,0,0,1,"[144,297,48,70,144,97,300,189,261,180,63,96,261,86,18,232,266,275,28,166]",-4,12,1,0,0,0,71,71,58,1,,,
,,,,,,,,,,,,,FF,,,,,,,,1.10009,,,,,,,,,,,,,,,,,,,,,,,,,6093db807d15df55e6990a28,60a7d7fab29dd492543b156e,2021-05-21_17h56.41.412,Simcolourproject_2stim_asymm_v5,2020.2.10,Win32,60,60a5f9bf14d0aa2821c4bb84,,,2601,-64,103,1,0,0,response7disk,,0,-12,0,1,0,0,rectangle,-12,0,1,0,0,4,"[144,297,48,70,144,97,300,189,261,180,63,96,261,86,18,232,266,275,28,166]",-12,0,1,0,0,0,72,72,76,1,,,
,,,,,,,,,,,,,FF,,,,,,,,0.96664,,,,,,,,,,,,,,,,,,,,,,,,,6093db807d15df55e6990a28,60a7d7fab29dd492543b156e,2021-05-21_17h56.41.412,Simcolourproject_2stim_asymm_v5,2020.2.10,Win32,60,60a5f9bf14d0aa2821c4bb84,,,4077,-80,-36,1,0,0,response5disk,,0,-3,1,1,0,0,rectangle,-3,1,1,0,0,3,"[144,297,48,70,144,97,300,189,261,180,63,96,261,86,18,232,266,275,28,166]",-3,1,1,0,0,0,73,73,17,1,,,
,,,,,,,,,,,,,FF,,,,,,,,0.949795,,,,,,,,,,,,,,,,,,,,,,,,,6093db807d15df55e6990a28,60a7d7fab29dd492543b156e,2021-05-21_17h56.41.412,Simcolourproject_2stim_asymm_v5,2020.2.10,Win32,60,60a5f9bf14d0aa2821c4bb84,,,4306,-90,-59,1,0,0,response5disk,,0,20,-11,1,0,0,rectangle,20,-11,1,0,0,7,"[144,297,48,70,144,97,300,189,261,180,63,96,261,86,18,232,266,275,28,166]",20,-11,1,0,0,0,74,74,104,1,,,
,,,,,,,,,,,,,FF,,,,,,,,1.76684,,,,,,,,,,,,,,,,,,,,,,,,,6093db807d15df55e6990a28,60a7d7fab29dd492543b156e,2021-05-21_17h56.41.412,Simcolourproject_2stim_asymm_v5,2020.2.10,Win32,60,60a5f9bf14d0aa2821c4bb84,,,4119,-106,-70,1,0,0,response5disk,,0,3,-4,1,0,0,rectangle,3,-4,1,0,0,1,"[144,297,48,70,144,97,300,189,261,180,63,96,261,86,18,232,266,275,28,166]",3,-4,1,0,0,0,75,75,112,1,,,
,,,,,,,,,,,,,FF,,,,,,,,1.099965,,,,,,,,,,,,,,,,,,,,,,,,,6093db807d15df55e6990a28,60a7d7fab29dd492543b156e,2021-05-21_17h56.41.412,Simcolourproject_2stim_asymm_v5,2020.2.10,Win32,60,60a5f9bf14d0aa2821c4bb84,,,1001,113,54,1,0,0,response1disk,,6,4,-11,1,0,0,rectangle,4,-11,1,0,0,2,"[144,297,48,70,144,97,300,189,261,180,63,96,261,86,18,232,266,275,28,166]",4,-11,1,0,0,0,76,76,77,1,,,
,,,,,,,,,,,,,FF,,,,,,,,0.883455,,,,,,,,,,,,,,,,,,,,,,,,,6093db807d15df55e6990a28,60a7d7fab29dd492543b156e,2021-05-21_17h56.41.412,Simcolourproject_2stim_asymm_v5,2020.2.10,Win32,60,60a5f9bf14d0aa2821c4bb84,,,1346,30,114,1,0,0,response1disk,,7,10,6,1,0,0,rectangle,10,6,1,0,0,1,"[144,297,48,70,144,97,300,189,261,180,63,96,261,86,18,232,266,275,28,166]",10,6,1,0,0,0,77,77,127,1,,,
,,,,,,,,,,,,,FF,,,,,,,,0.60006,,,,,,,,,,,,,,,,,,,,,,,,,6093db807d15df55e6990a28,60a7d7fab29dd492543b156e,2021-05-21_17h56.41.412,Simcolourproject_2stim_asymm_v5,2020.2.10,Win32,60,60a5f9bf14d0aa2821c4bb84,,,1996,52,88,1,0,0,response1disk,,7,0,-3,1,0,0,rectangle,0,-3,1,0,0,7,"[144,297,48,70,144,97,300,189,261,180,63,96,261,86,18,232,266,275,28,166]",0,-3,1,0,0,0,78,78,66,1,,,
,,,,,,,,,,,,,FF,,,,,,,,0.966945,,,,,,,,,,,,,,,,,,,,,,,,,6093db807d15df55e6990a28,60a7d7fab29dd492543b156e,2021-05-21_17h56.41.412,Simcolourproject_2stim_asymm_v5,2020.2.10,Win32,60,60a5f9bf14d0aa2821c4bb84,,,1554,98,-54,1,0,0,response3disk,,5,-14,-5,1,0,0,rectangle,-14,-5,1,0,0,7,"[144,297,48,70,144,97,300,189,261,180,63,96,261,86,18,232,266,275,28,166]",-14,-5,1,0,0,0,79,79,73,1,,,
,,,,,,,,,,,,,FF,,,,,,,,1.566505,,,,,,,,,,,,,,,,,,,,,,,,,6093db807d15df55e6990a28,60a7d7fab29dd492543b156e,2021-05-21_17h56.41.412,Simcolourproject_2stim_asymm_v5,2020.2.10,Win32,60,60a5f9bf14d0aa2821c4bb84,,,3632,-25,-105,1,0,0,response5disk,,3,13,-10,1,0,0,rectangle,13,-10,1,0,0,2,"[144,297,48,70,144,97,300,189,261,180,63,96,261,86,18,232,266,275,28,166]",13,-10,1,0,0,0,80,80,27,1,,,
,,,,,,,,,,,,,FF,,,,,,,,0.966845,,,,,,,,,,,,,,,,,,,,,,,,,6093db807d15df55e6990a28,60a7d7fab29dd492543b156e,2021-05-21_17h56.41.412,Simcolourproject_2stim_asymm_v5,2020.2.10,Win32,60,60a5f9bf14d0aa2821c4bb84,,,2735,-37,-92,1,0,0,response5disk,,3,-5,-4,1,0,0,rectangle,-5,-4,1,0,0,5,"[144,297,48,70,144,97,300,189,261,180,63,96,261,86,18,232,266,275,28,166]",-5,-4,1,0,0,0,81,81,4,1,,,
,,,,,,,,,,,,,FF,,,,,,,,1.049645,,,,,,,,,,,,,,,,,,,,,,,,,6093db807d15df55e6990a28,60a7d7fab29dd492543b156e,2021-05-21_17h56.41.412,Simcolourproject_2stim_asymm_v5,2020.2.10,Win32,60,60a5f9bf14d0aa2821c4bb84,,,1043,52,-103,1,0,0,response3disk,,4,14,-2,1,0,0,rectangle,14,-2,1,0,0,5,"[144,297,48,70,144,97,300,189,261,180,63,96,261,86,18,232,266,275,28,166]",14,-2,1,0,0,0,82,82,5,1,,,
,,,,,,,,,,,,,FF,,,,,,,,1.36669,,,,,,,,,,,,,,,,,,,,,,,,,6093db807d15df55e6990a28,60a7d7fab29dd492543b156e,2021-05-21_17h56.41.412,Simcolourproject_2stim_asymm_v5,2020.2.10,Win32,60,60a5f9bf14d0aa2821c4bb84,,,1365,39,-105,1,0,0,response3disk,,4,-4,3,1,0,0,rectangle,-4,3,1,0,0,2,"[144,297,48,70,144,97,300,189,261,180,63,96,261,86,18,232,266,275,28,166]",-4,3,1,0,0,0,83,83,153,1,,,
,,,,,,,,,,,,,FF,,,,,,,,0.866475,,,,,,,,,,,,,,,,,,,,,,,,,6093db807d15df55e6990a28,60a7d7fab29dd492543b156e,2021-05-21_17h56.41.412,Simcolourproject_2stim_asymm_v5,2020.2.10,Win32,60,60a5f9bf14d0aa2821c4bb84,,,3119,83,107,1,0,0,response1disk,,7,-12,14,1,0,0,rectangle,-12,14,1,0,0,0,"[144,297,48,70,144,97,300,189,261,180,63,96,261,86,18,232,266,275,28,166]",-12,14,1,0,0,0,84,84,71,1,,,
,,,,,,,,,,,,,FF,,,,,,,,0.899625,,,,,,,,,,,,,,,,,,,,,,,,,6093db807d15df55e6990a28,60a7d7fab29dd492543b156e,2021-05-21_17h56.41.412,Simcolourproject_2stim_asymm_v5,2020.2.10,Win32,60,60a5f9bf14d0aa2821c4bb84,,,3636,-103,-56,1,0,0,response5disk,,7,4,7,1,0,0,rectangle,-101,-53,1,0,0,2,"[144,297,48,70,144,97,300,189,261,180,63,96,261,86,18,232,266,275,28,166]",4,0,1,0,0,0,85,85,22,1,,response5disk_3,rectangle
,,,,,,,,,,,,,FF,,,,,,,,0.966835,,,,,,,,,,,,,,,,,,,,,,,,,6093db807d15df55e6990a28,60a7d7fab29dd492543b156e,2021-05-21_17h56.41.412,Simcolourproject_2stim_asymm_v5,2020.2.10,Win32,60,60a5f9bf14d0aa2821c4bb84,,,3077,112,-58,1,0,0,response3disk,,5,19,-15,1,0,0,rectangle,19,-15,1,0,0,3,"[144,297,48,70,144,97,300,189,261,180,63,96,261,86,18,232,266,275,28,166]",19,-15,1,0,0,0,86,86,47,1,,,
,,,,,,,,,,,,,FF,,,,,,,,1.516575,,,,,,,,,,,,,,,,,,,,,,,,,6093db807d15df55e6990a28,60a7d7fab29dd492543b156e,2021-05-21_17h56.41.412,Simcolourproject_2stim_asymm_v5,2020.2.10,Win32,60,60a5f9bf14d0aa2821c4bb84,,,3652,101,54,1,0,0,response1disk,,6,-10,-12,1,0,0,rectangle,-10,-12,1,0,0,6,"[144,297,48,70,144,97,300,189,261,180,63,96,261,86,18,232,266,275,28,166]",-10,-12,1,0,0,0,87,87,100,1,,,
,,,,,,,,,,,,,FF,,,,,,,,1.38337,,,,,,,,,,,,,,,,,,,,,,,,,6093db807d15df55e6990a28,60a7d7fab29dd492543b156e,2021-05-21_17h56.41.412,Simcolourproject_2stim_asymm_v5,2020.2.10,Win32,60,60a5f9bf14d0aa2821c4bb84,,,3201,-66,-88,1,0,0,response5disk,,3,7,10,1,0,0,rectangle,7,10,1,0,0,6,"[144,297,48,70,144,97,300,189,261,180,63,96,261,86,18,232,266,275,28,166]",7,10,1,0,0,0,88,88,148,1,,,
,,,,,,,,,,,,,FF,,,,,,,,1.933385,,,,,,,,,,,,,,,,,,,,,,,,,6093db807d15df55e6990a28,60a7d7fab29dd492543b156e,2021-05-21_17h56.41.412,Simcolourproject_2stim_asymm_v5,2020.2.10,Win32,60,60a5f9bf14d0aa2821c4bb84,,,2658,41,-99,1,0,0,response3disk,,4,3,10,1,0,0,rectangle,3,10,1,0,0,1,"[144,297,48,70,144,97,300,189,261,180,63,96,261,86,18,232,266,275,28,166]",3,10,1,0,0,0,89,89,51,1,,,
,,,,,,,,,,,,,FF,,,,,,,,1.949925,,,,,,,,,,,,,,,,,,,,,,,,,6093db807d15df55e6990a28,60a7d7fab29dd492543b156e,2021-05-21_17h56.41.412,Simcolourproject_2stim_asymm_v5,2020.2.10,Win32,60,60a5f9bf14d0aa2821c4bb84,,,1415,105,-35,1,0,0,response3disk,,5,-16,17,1,0,0,rectangle,-16,17,1,0,0,7,"[144,297,48,70,144,97,300,189,261,180,63,96,261,86,18,232,266,275,28,166]",-16,17,1,0,0,0,90,90,19,1,,,
,,,,,,,,,,,,,FF,,,,,,,,0.88343,,,,,,,,,,,,,,,,,,,,,,,,,6093db807d15df55e6990a28,60a7d7fab29dd492543b156e,2021-05-21_17h56.41.412,Simcolourproject_2stim_asymm_v5,2020.2.10,Win32,60,60a5f9bf14d0aa2821c4bb84,,,260,-106,-37,1,0,0,response5disk,,5,33,-9,1,0,0,rectangle,33,-9,1,0,0,5,"[144,297,48,70,144,97,300,189,261,180,63,96,261,86,18,232,266,275,28,166]",33,-9,1,0,0,0,91,91,130,1,,,
,,,,,,,,,,,,,FF,,,,,,,,1.34985,,,,,,,,,,,,,,,,,,,,,,,,,6093db807d15df55e6990a28,60a7d7fab29dd492543b156e,2021-05-21_17h56.41.412,Simcolourproject_2stim_asymm_v5,2020.2.10,Win32,60,60a5f9bf14d0aa2821c4bb84,,,2968,111,-39,1,0,0,response3disk,,5,8,7,1,0,0,rectangle,8,7,1,0,0,4,"[144,297,48,70,144,97,300,189,261,180,63,96,261,86,18,232,266,275,28,166]",8,7,1,0,0,0,92,92,95,1,,,
,,,,,,,,,,,,,FF,,,,,,,,1.433395,,,,,,,,,,,,,,,,,,,,,,,,,6093db807d15df55e6990a28,60a7d7fab29dd492543b156e,2021-05-21_17h56.41.412,Simcolourproject_2stim_asymm_v5,2020.2.10,Win32,60,60a5f9bf14d0aa2821c4bb84,,,513,70,-109,1,0,0,response3disk,,4,3,5,1,0,0,rectangle,3,5,1,0,0,5,"[144,297,48,70,144,97,300,189,261,180,63,96,261,86,18,232,266,275,28,166]",3,5,1,0,0,0,93,93,93,1,,,
,,,,,,,,,,,,,FF,,,,,,,,1.28309,,,,,,,,,,,,,,,,,,,,,,,,,6093db807d15df55e6990a28,60a7d7fab29dd492543b156e,2021-05-21_17h56.41.412,Simcolourproject_2stim_asymm_v5,2020.2.10,Win32,60,60a5f9bf14d0aa2821c4bb84,,,1834,-109,-47,1,0,0,response5disk,,4,-7,10,1,0,0,rectangle,-7,10,1,0,0,1,"[144,297,48,70,144,97,300,189,261,180,63,96,261,86,18,232,266,275,28,166]",-7,10,1,0,0,0,94,94,38,1,,,
,,,,,,,,,,,,,FF,,,,,,,,0.76651,,,,,,,,,,,,,,,,,,,,,,,,,6093db807d15df55e6990a28,60a7d7fab29dd492543b156e,2021-05-21_17h56.41.412,Simcolourproject_2stim_asymm_v5,2020.2.10,Win32,60,60a5f9bf14d0aa2821c4bb84,,,1334,109,45,1,0,0,response1disk,,6,-19,-9,1,0,0,rectangle,-65,108,1,0,0,0,"[144,297,48,70,144,97,300,189,261,180,63,96,261,86,18,232,266,275,28,166]",-8,4,1,0,0,0,95,95,128,1,,response7disk_3,rectangle
,,,,,,,,,,,,,FF,,,,,,,,0.85043,,,,,,,,,,,,,,,,,,,,,,,,,6093db807d15df55e6990a28,60a7d7fab29dd492543b156e,2021-05-21_17h56.41.412,Simcolourproject_2stim_asymm_v5,2020.2.10,Win32,60,60a5f9bf14d0aa2821c4bb84,,,933,129,83,1,0,0,response1disk,,6,29,-9,1,0,0,rectangle,-43,-102,1,0,0,3,"[144,297,48,70,144,97,300,189,261,180,63,96,261,86,18,232,266,275,28,166]",-6,1,1,0,0,0,96,96,26,1,,response5disk_3,rectangle
,,,,,,,,,,,,,FF,,,,,,,,0.95025,,,,,,,,,,,,,,,,,,,,,,,,,6093db807d15df55e6990a28,60a7d7fab29dd492543b156e,2021-05-21_17h56.41.412,Simcolourproject_2stim_asymm_v5,2020.2.10,Win32,60,60a5f9bf14d0aa2821c4bb84,,,2406,112,-51,1,0,0,response3disk,,5,13,-2,1,0,0,rectangle,13,-2,1,0,0,3,"[144,297,48,70,144,97,300,189,261,180,63,96,261,86,18,232,266,275,28,166]",13,-2,1,0,0,0,97,97,152,1,,,
,,,,,,,,,,,,,FF,,,,,,,,1.26704,,,,,,,,,,,,,,,,,,,,,,,,,6093db807d15df55e6990a28,60a7d7fab29dd492543b156e,2021-05-21_17h56.41.412,Simcolourproject_2stim_asymm_v5,2020.2.10,Win32,60,60a5f9bf14d0aa2821c4bb84,,,2593,121,-47,1,0,0,response3disk,,5,9,2,1,0,0,rectangle,9,2,1,0,0,6,"[144,297,48,70,144,97,300,189,261,180,63,96,261,86,18,232,266,275,28,166]",9,2,1,0,0,0,98,98,121,1,,,
,,,,,,,,,,,,,FF,,,,,,,,0.616435,,,,,,,,,,,,,,,,,,,,,,,,,6093db807d15df55e6990a28,60a7d7fab29dd492543b156e,2021-05-21_17h56.41.412,Simcolourproject_2stim_asymm_v5,2020.2.10,Win32,60,60a5f9bf14d0aa2821c4bb84,,,269,122,-40,1,0,0,response3disk,,5,-13,-4,1,0,0,rectangle,-13,-4,1,0,0,4,"[144,297,48,70,144,97,300,189,261,180,63,96,261,86,18,232,266,275,28,166]",-13,-4,1,0,0,0,99,99,53,1,,,
,,,,,,,,,,,,,FF,,,,,,,,0.81622,,,,,,,,,,,,,,,,,,,,,,,,,6093db807d15df55e6990a28,60a7d7fab29dd492543b156e,2021-05-21_17h56.41.412,Simcolourproject_2stim_asymm_v5,2020.2.10,Win32,60,60a5f9bf14d0aa2821c4bb84,,,210,111,50,1,0,0,response1disk,,6,-18,-12,1,0,0,rectangle,-18,-12,1,0,0,0,"[144,297,48,70,144,97,300,189,261,180,63,96,261,86,18,232,266,275,28,166]",-18,-12,1,0,0,0,100,100,54,1,,,
,,,,,,,,,,,,,FF,,,,,,,,0.78338,,,,,,,,,,,,,,,,,,,,,,,,,6093db807d15df55e6990a28,60a7d7fab29dd492543b156e,2021-05-21_17h56.41.412,Simcolourproject_2stim_asymm_v5,2020.2.10,Win32,60,60a5f9bf14d0aa2821c4bb84,,,2212,68,127,1,0,0,response1disk,,7,1,4,1,0,0,rectangle,1,4,1,0,0,0,"[144,297,48,70,144,97,300,189,261,180,63,96,261,86,18,232,266,275,28,166]",1,4,1,0,0,0,101,101,25,1,,,
,,,,,,,,,,,,,FF,,,,,,,,1.03351,,,,,,,,,,,,,,,,,,,,,,,,,6093db807d15df55e6990a28,60a7d7fab29dd492543b156e,2021-05-21_17h56.41.412,Simcolourproject_2stim_asymm_v5,2020.2.10,Win32,60,60a5f9bf14d0aa2821c4bb84,,,2087,62,-98,1,0,0,response3disk,,4,17,-7,1,0,0,rectangle,17,-7,1,0,0,1,"[144,297,48,70,144,97,300,189,261,180,63,96,261,86,18,232,266,275,28,166]",17,-7,1,0,0,0,102,102,23,1,,,
,,,,,,,,,,,,,FF,,,,,,,,0.966215,,,,,,,,,,,,,,,,,,,,,,,,,6093db807d15df55e6990a28,60a7d7fab29dd492543b156e,2021-05-21_17h56.41.412,Simcolourproject_2stim_asymm_v5,2020.2.10,Win32,60,60a5f9bf14d0aa2821c4bb84,,,965,109,-49,1,0,0,response3disk,,5,7,12,1,0,0,rectangle,7,12,1,0,0,7,"[144,297,48,70,144,97,300,189,261,180,63,96,261,86,18,232,266,275,28,166]",7,12,1,0,0,0,103,103,24,1,,,
,,,,,,,,,,,,,FF,,,,,,,,0.833185,,,,,,,,,,,,,,,,,,,,,,,,,6093db807d15df55e6990a28,60a7d7fab29dd492543b156e,2021-05-21_17h56.41.412,Simcolourproject_2stim_asymm_v5,2020.2.10,Win32,60,60a5f9bf14d0aa2821c4bb84,,,1186,111,59,1,0,0,response1disk,,6,-3,4,1,0,0,rectangle,-3,4,1,0,0,1,"[144,297,48,70,144,97,300,189,261,180,63,96,261,86,18,232,266,275,28,166]",-3,4,1,0,0,0,104,104,69,1,,,
,,,,,,,,,,,,,FF,,,,,,,,0.783355,,,,,,,,,,,,,,,,,,,,,,,,,6093db807d15df55e6990a28,60a7d7fab29dd492543b156e,2021-05-21_17h56.41.412,Simcolourproject_2stim_asymm_v5,2020.2.10,Win32,60,60a5f9bf14d0aa2821c4bb84,,,395,62,139,1,0,0,response1disk,,7,0,1,1,0,0,rectangle,0,1,1,0,0,2,"[144,297,48,70,144,97,300,189,261,180,63,96,261,86,18,232,266,275,28,166]",0,1,1,0,0,0,105,105,35,1,,,
,,,,,,,,,,,,,FF,,,,,,,,1.20002,,,,,,,,,,,,,,,,,,,,,,,,,6093db807d15df55e6990a28,60a7d7fab29dd492543b156e,2021-05-21_17h56.41.412,Simcolourproject_2stim_asymm_v5,2020.2.10,Win32,60,60a5f9bf14d0aa2821c4bb84,,,1432,113,-54,1,0,0,response3disk,,5,-5,-4,1,0,0,rectangle,-5,-4,1,0,0,2,"[144,297,48,70,144,97,300,189,261,180,63,96,261,86,18,232,266,275,28,166]",-5,-4,1,0,0,0,106,106,147,1,,,
,,,,,,,,,,,,,FF,,,,,,,,1.06685,,,,,,,,,,,,,,,,,,,,,,,,,6093db807d15df55e6990a28,60a7d7fab29dd492543b156e,2021-05-21_17h56.41.412,Simcolourproject_2stim_asymm_v5,2020.2.10,Win32,60,60a5f9bf14d0aa2821c4bb84,,,2343,45,125,1,0,0,response1disk,,7,15,9,1,0,0,rectangle,15,9,1,0,0,5,"[144,297,48,70,144,97,300,189,261,180,63,96,261,86,18,232,266,275,28,166]",15,9,1,0,0,0,107,107,103,1,,,
,,,,,,,,,,,,,FF,,,,,,,,1.149955,,,,,,,,,,,,,,,,,,,,,,,,,6093db807d15df55e6990a28,60a7d7fab29dd492543b156e,2021-05-21_17h56.41.412,Simcolourproject_2stim_asymm_v5,2020.2.10,Win32,60,60a5f9bf14d0aa2821c4bb84,,,803,-102,-55,1,0,0,response5disk,,7,5,-2,1,0,0,rectangle,5,-2,1,0,0,0,"[144,297,48,70,144,97,300,189,261,180,63,96,261,86,18,232,266,275,28,166]",5,-2,1,0,0,0,108,108,7,1,,,
,,,,,,,,,,,,,FF,,,,,,,,1.149895,,,,,,,,,,,,,,,,,,,,,,,,,6093db807d15df55e6990a28,60a7d7fab29dd492543b156e,2021-05-21_17h56.41.412,Simcolourproject_2stim_asymm_v5,2020.2.10,Win32,60,60a5f9bf14d0aa2821c4bb84,,,1622,111,51,1,0,0,response1disk,,6,11,-5,1,0,0,rectangle,11,-5,1,0,0,0,"[144,297,48,70,144,97,300,189,261,180,63,96,261,86,18,232,266,275,28,166]",11,-5,1,0,0,0,109,109,20,1,,,
,,,,,,,,,,,,,FF,,,,,,,,0.58329,,,,,,,,,,,,,,,,,,,,,,,,,6093db807d15df55e6990a28,60a7d7fab29dd492543b156e,2021-05-21_17h56.41.412,Simcolourproject_2stim_asymm_v5,2020.2.10,Win32,60,60a5f9bf14d0aa2821c4bb84,,,3225,41,123,1,0,0,response1disk,,7,4,-5,1,0,0,rectangle,4,-5,1,0,0,6,"[144,297,48,70,144,97,300,189,261,180,63,96,261,86,18,232,266,275,28,166]",4,-5,1,0,0,0,110,110,105,1,,,
,,,,,,,,,,,,,FF,,,,,,,,1.766785,,,,,,,,,,,,,,,,,,,,,,,,,6093db807d15df55e6990a28,60a7d7fab29dd492543b156e,2021-05-21_17h56.41.412,Simcolourproject_2stim_asymm_v5,2020.2.10,Win32,60,60a5f9bf14d0aa2821c4bb84,,,2651,61,-108,1,0,0,response3disk,,4,4,-15,1,0,0,rectangle,4,-15,1,0,0,6,"[144,297,48,70,144,97,300,189,261,180,63,96,261,86,18,232,266,275,28,166]",4,-15,1,0,0,0,111,111,96,1,,,
,,,,,,,,,,,,,FF,,,,,,,,1.216705,,,,,,,,,,,,,,,,,,,,,,,,,6093db807d15df55e6990a28,60a7d7fab29dd492543b156e,2021-05-21_17h56.41.412,Simcolourproject_2stim_asymm_v5,2020.2.10,Win32,60,60a5f9bf14d0aa2821c4bb84,,,3972,-108,-61,1,0,0,response5disk,,4,-14,-12,1,0,0,rectangle,-14,-12,1,0,0,6,"[144,297,48,70,144,97,300,189,261,180,63,96,261,86,18,232,266,275,28,166]",-14,-12,1,0,0,0,112,112,3,1,,,
,,,,,,,,,,,,,FF,,,,,,,,1.683295,,,,,,,,,,,,,,,,,,,,,,,,,6093db807d15df55e6990a28,60a7d7fab29dd492543b156e,2021-05-21_17h56.41.412,Simcolourproject_2stim_asymm_v5,2020.2.10,Win32,60,60a5f9bf14d0aa2821c4bb84,,,1433,-68,-88,1,0,0,response5disk,,3,13,-14,1,0,0,rectangle,13,-14,1,0,0,5,"[144,297,48,70,144,97,300,189,261,180,63,96,261,86,18,232,266,275,28,166]",13,-14,1,0,0,0,113,113,70,1,,,
,,,,,,,,,,,,,FF,,,,,,,,0.90009,,,,,,,,,,,,,,,,,,,,,,,,,6093db807d15df55e6990a28,60a7d7fab29dd492543b156e,2021-05-21_17h56.41.412,Simcolourproject_2stim_asymm_v5,2020.2.10,Win32,60,60a5f9bf14d0aa2821c4bb84,,,1177,83,118,1,0,0,response1disk,,7,-29,-8,1,0,0,rectangle,-29,-8,1,0,0,6,"[144,297,48,70,144,97,300,189,261,180,63,96,261,86,18,232,266,275,28,166]",-29,-8,1,0,0,0,114,114,82,1,,,
,,,,,,,,,,,,,FF,,,,,,,,1.000045,,,,,,,,,,,,,,,,,,,,,,,,,6093db807d15df55e6990a28,60a7d7fab29dd492543b156e,2021-05-21_17h56.41.412,Simcolourproject_2stim_asymm_v5,2020.2.10,Win32,60,60a5f9bf14d0aa2821c4bb84,,,1406,121,-58,1,0,0,response3disk,,5,8,-6,1,0,0,rectangle,8,-6,1,0,0,0,"[144,297,48,70,144,97,300,189,261,180,63,96,261,86,18,232,266,275,28,166]",8,-6,1,0,0,0,115,115,114,1,,,
,,,,,,,,,,,,,FF,,,,,,,,0.916715,,,,,,,,,,,,,,,,,,,,,,,,,6093db807d15df55e6990a28,60a7d7fab29dd492543b156e,2021-05-21_17h56.41.412,Simcolourproject_2stim_asymm_v5,2020.2.10,Win32,60,60a5f9bf14d0aa2821c4bb84,,,1941,98,114,1,0,0,response1disk,,7,1,7,1,0,0,rectangle,1,7,1,0,0,6,"[144,297,48,70,144,97,300,189,261,180,63,96,261,86,18,232,266,275,28,166]",1,7,1,0,0,0,116,116,135,1,,,
,,,,,,,,,,,,,FF,,,,,,,,1.283235,,,,,,,,,,,,,,,,,,,,,,,,,6093db807d15df55e6990a28,60a7d7fab29dd492543b156e,2021-05-21_17h56.41.412,Simcolourproject_2stim_asymm_v5,2020.2.10,Win32,60,60a5f9bf14d0aa2821c4bb84,,,3835,-44,-106,1,0,0,response5disk,,3,-11,-3,1,0,0,rectangle,-11,-3,1,0,0,5,"[144,297,48,70,144,97,300,189,261,180,63,96,261,86,18,232,266,275,28,166]",-11,-3,1,0,0,0,117,117,146,1,,,
,,,,,,,,,,,,,FF,,,,,,,,0.71674,,,,,,,,,,,,,,,,,,,,,,,,,6093db807d15df55e6990a28,60a7d7fab29dd492543b156e,2021-05-21_17h56.41.412,Simcolourproject_2stim_asymm_v5,2020.2.10,Win32,60,60a5f9bf14d0aa2821c4bb84,,,4247,114,57,1,0,0,response1disk,,6,29,7,1,0,0,rectangle,29,7,1,0,0,7,"[144,297,48,70,144,97,300,189,261,180,63,96,261,86,18,232,266,275,28,166]",29,7,1,0,0,0,118,118,74,1,,,
,,,,,,,,,,,,,FF,,,,,,,,1.08346,,,,,,,,,,,,,,,,,,,,,,,,,6093db807d15df55e6990a28,60a7d7fab29dd492543b156e,2021-05-21_17h56.41.412,Simcolourproject_2stim_asymm_v5,2020.2.10,Win32,60,60a5f9bf14d0aa2821c4bb84,,,3675,-113,48,1,0,0,response7disk,,1,-7,4,1,0,0,rectangle,-7,4,1,0,0,1,"[144,297,48,70,144,97,300,189,261,180,63,96,261,86,18,232,266,275,28,166]",-7,4,1,0,0,0,119,119,1,1,,,
,,,,,,,,,,,,,FF,,,,,,,,1.366725,,,,,,,,,,,,,,,,,,,,,,,,,6093db807d15df55e6990a28,60a7d7fab29dd492543b156e,2021-05-21_17h56.41.412,Simcolourproject_2stim_asymm_v5,2020.2.10,Win32,60,60a5f9bf14d0aa2821c4bb84,,,2187,-122,-49,1,0,0,response5disk,,1,11,-16,1,0,0,rectangle,11,-16,1,0,0,1,"[144,297,48,70,144,97,300,189,261,180,63,96,261,86,18,232,266,275,28,166]",11,-16,1,0,0,0,120,120,16,1,,,
,,,,,,,,,,,,,FF,,,,,,,,0.816865,,,,,,,,,,,,,,,,,,,,,,,,,6093db807d15df55e6990a28,60a7d7fab29dd492543b156e,2021-05-21_17h56.41.412,Simcolourproject_2stim_asymm_v5,2020.2.10,Win32,60,60a5f9bf14d0aa2821c4bb84,,,2323,126,-46,1,0,0,response3disk,,5,13,-12,1,0,0,rectangle,13,-12,1,0,0,0,"[144,297,48,70,144,97,300,189,261,180,63,96,261,86,18,232,266,275,28,166]",13,-12,1,0,0,0,121,121,137,1,,,
,,,,,,,,,,,,,FF,,,,,,,,1.133385,,,,,,,,,,,,,,,,,,,,,,,,,6093db807d15df55e6990a28,60a7d7fab29dd492543b156e,2021-05-21_17h56.41.412,Simcolourproject_2stim_asymm_v5,2020.2.10,Win32,60,60a5f9bf14d0aa2821c4bb84,,,385,126,63,1,0,0,response1disk,,6,35,-4,1,0,0,rectangle,35,-4,1,0,0,1,"[144,297,48,70,144,97,300,189,261,180,63,96,261,86,18,232,266,275,28,166]",35,-4,1,0,0,0,122,122,60,1,,,
,,,,,,,,,,,,,FF,,,,,,,,0.616785,,,,,,,,,,,,,,,,,,,,,,,,,6093db807d15df55e6990a28,60a7d7fab29dd492543b156e,2021-05-21_17h56.41.412,Simcolourproject_2stim_asymm_v5,2020.2.10,Win32,60,60a5f9bf14d0aa2821c4bb84,,,3233,41,134,1,0,0,response1disk,,7,4,11,1,0,0,rectangle,4,11,1,0,0,0,"[144,297,48,70,144,97,300,189,261,180,63,96,261,86,18,232,266,275,28,166]",4,11,1,0,0,0,123,123,75,1,,,
,,,,,,,,,,,,,FF,,,,,,,,1.016575,,,,,,,,,,,,,,,,,,,,,,,,,6093db807d15df55e6990a28,60a7d7fab29dd492543b156e,2021-05-21_17h56.41.412,Simcolourproject_2stim_asymm_v5,2020.2.10,Win32,60,60a5f9bf14d0aa2821c4bb84,,,1135,-116,-52,1,0,0,response5disk,,7,-9,-10,1,0,0,rectangle,-9,-10,1,0,0,7,"[144,297,48,70,144,97,300,189,261,180,63,96,261,86,18,232,266,275,28,166]",-9,-10,1,0,0,0,124,124,79,1,,,
,,,,,,,,,,,,,FF,,,,,,,,0.84979,,,,,,,,,,,,,,,,,,,,,,,,,6093db807d15df55e6990a28,60a7d7fab29dd492543b156e,2021-05-21_17h56.41.412,Simcolourproject_2stim_asymm_v5,2020.2.10,Win32,60,60a5f9bf14d0aa2821c4bb84,,,87,102,-52,1,0,0,response3disk,,5,4,3,1,0,0,rectangle,4,3,1,0,0,7,"[144,297,48,70,144,97,300,189,261,180,63,96,261,86,18,232,266,275,28,166]",4,3,1,0,0,0,125,125,12,1,,,
,,,,,,,,,,,,,FF,,,,,,,,1.13331,,,,,,,,,,,,,,,,,,,,,,,,,6093db807d15df55e6990a28,60a7d7fab29dd492543b156e,2021-05-21_17h56.41.412,Simcolourproject_2stim_asymm_v5,2020.2.10,Win32,60,60a5f9bf14d0aa2821c4bb84,,,855,-45,-102,1,0,0,response5disk,,3,-13,-15,1,0,0,rectangle,-13,-15,1,0,0,5,"[144,297,48,70,144,97,300,189,261,180,63,96,261,86,18,232,266,275,28,166]",-13,-15,1,0,0,0,126,126,46,1,,,
,,,,,,,,,,,,,FF,,,,,,,,0.86654,,,,,,,,,,,,,,,,,,,,,,,,,6093db807d15df55e6990a28,60a7d7fab29dd492543b156e,2021-05-21_17h56.41.412,Simcolourproject_2stim_asymm_v5,2020.2.10,Win32,60,60a5f9bf14d0aa2821c4bb84,,,2660,-71,113,1,0,0,response7disk,,0,7,16,1,0,0,rectangle,7,16,1,0,0,3,"[144,297,48,70,144,97,300,189,261,180,63,96,261,86,18,232,266,275,28,166]",7,16,1,0,0,0,127,127,40,1,,,
,,,,,,,,,,,,,FF,,,,,,,,1.14989,,,,,,,,,,,,,,,,,,,,,,,,,6093db807d15df55e6990a28,60a7d7fab29dd492543b156e,2021-05-21_17h56.41.412,Simcolourproject_2stim_asymm_v5,2020.2.10,Win32,60,60a5f9bf14d0aa2821c4bb84,,,565,128,56,1,0,0,response1disk,,6,24,7,1,0,0,rectangle,24,7,1,0,0,1,"[144,297,48,70,144,97,300,189,261,180,63,96,261,86,18,232,266,275,28,166]",24,7,1,0,0,0,128,128,118,1,,,
,,,,,,,,,,,,,FF,,,,,,,,0.700115,,,,,,,,,,,,,,,,,,,,,,,,,6093db807d15df55e6990a28,60a7d7fab29dd492543b156e,2021-05-21_17h56.41.412,Simcolourproject_2stim_asymm_v5,2020.2.10,Win32,60,60a5f9bf14d0aa2821c4bb84,,,2509,119,55,1,0,0,response1disk,,6,19,6,1,0,0,rectangle,19,6,1,0,0,6,"[144,297,48,70,144,97,300,189,261,180,63,96,261,86,18,232,266,275,28,166]",19,6,1,0,0,0,129,129,67,1,,,
,,,,,,,,,,,,,FF,,,,,,,,1.49995,,,,,,,,,,,,,,,,,,,,,,,,,6093db807d15df55e6990a28,60a7d7fab29dd492543b156e,2021-05-21_17h56.41.412,Simcolourproject_2stim_asymm_v5,2020.2.10,Win32,60,60a5f9bf14d0aa2821c4bb84,,,3070,45,73,1,0,0,response1disk,,7,3,12,1,0,0,rectangle,3,12,1,0,0,7,"[144,297,48,70,144,97,300,189,261,180,63,96,261,86,18,232,266,275,28,166]",3,12,1,0,0,0,130,130,29,1,,,
,,,,,,,,,,,,,FF,,,,,,,,1.999875,,,,,,,,,,,,,,,,,,,,,,,,,6093db807d15df55e6990a28,60a7d7fab29dd492543b156e,2021-05-21_17h56.41.412,Simcolourproject_2stim_asymm_v5,2020.2.10,Win32,60,60a5f9bf14d0aa2821c4bb84,,,532,-106,-49,1,0,0,response5disk,,7,-15,6,1,0,0,rectangle,-15,6,1,0,0,2,"[144,297,48,70,144,97,300,189,261,180,63,96,261,86,18,232,266,275,28,166]",-15,6,1,0,0,0,131,131,110,1,,,
,,,,,,,,,,,,,FF,,,,,,,,0.69977,,,,,,,,,,,,,,,,,,,,,,,,,6093db807d15df55e6990a28,60a7d7fab29dd492543b156e,2021-05-21_17h56.41.412,Simcolourproject_2stim_asymm_v5,2020.2.10,Win32,60,60a5f9bf14d0aa2821c4bb84,,,2893,-94,40,1,0,0,response7disk,,1,1,-7,1,0,0,rectangle,1,-7,1,0,0,7,"[144,297,48,70,144,97,300,189,261,180,63,96,261,86,18,232,266,275,28,166]",1,-7,1,0,0,0,132,132,131,1,,,
,,,,,,,,,,,,,FF,,,,,,,,1.166545,,,,,,,,,,,,,,,,,,,,,,,,,6093db807d15df55e6990a28,60a7d7fab29dd492543b156e,2021-05-21_17h56.41.412,Simcolourproject_2stim_asymm_v5,2020.2.10,Win32,60,60a5f9bf14d0aa2821c4bb84,,,3895,52,-133,1,0,0,response3disk,,4,4,-12,1,0,0,rectangle,4,-12,1,0,0,1,"[144,297,48,70,144,97,300,189,261,180,63,96,261,86,18,232,266,275,28,166]",4,-12,1,0,0,0,133,133,101,1,,,
,,,,,,,,,,,,,FF,,,,,,,,0.834135,,,,,,,,,,,,,,,,,,,,,,,,,6093db807d15df55e6990a28,60a7d7fab29dd492543b156e,2021-05-21_17h56.41.412,Simcolourproject_2stim_asymm_v5,2020.2.10,Win32,60,60a5f9bf14d0aa2821c4bb84,,,1303,-51,-95,1,0,0,response5disk,,3,-11,-2,1,0,0,rectangle,-11,-2,1,0,0,6,"[144,297,48,70,144,97,300,189,261,180,63,96,261,86,18,232,266,275,28,166]",-11,-2,1,0,0,0,134,134,28,1,,,
,,,,,,,,,,,,,FF,,,,,,,,0.95008,,,,,,,,,,,,,,,,,,,,,,,,,6093db807d15df55e6990a28,60a7d7fab29dd492543b156e,2021-05-21_17h56.41.412,Simcolourproject_2stim_asymm_v5,2020.2.10,Win32,60,60a5f9bf14d0aa2821c4bb84,,,3249,-33,-102,1,0,0,response5disk,,3,0,-16,1,0,0,rectangle,0,-16,1,0,0,4,"[144,297,48,70,144,97,300,189,261,180,63,96,261,86,18,232,266,275,28,166]",0,-16,1,0,0,0,135,135,125,1,,,
,,,,,,,,,,,,,FF,,,,,,,,0.733385,,,,,,,,,,,,,,,,,,,,,,,,,6093db807d15df55e6990a28,60a7d7fab29dd492543b156e,2021-05-21_17h56.41.412,Simcolourproject_2stim_asymm_v5,2020.2.10,Win32,60,60a5f9bf14d0aa2821c4bb84,,,227,126,-56,1,0,0,response3disk,,5,11,7,1,0,0,rectangle,11,7,1,0,0,1,"[144,297,48,70,144,97,300,189,261,180,63,96,261,86,18,232,266,275,28,166]",11,7,1,0,0,0,136,136,68,1,,,
,,,,,,,,,,,,,FF,,,,,,,,1.283205,,,,,,,,,,,,,,,,,,,,,,,,,6093db807d15df55e6990a28,60a7d7fab29dd492543b156e,2021-05-21_17h56.41.412,Simcolourproject_2stim_asymm_v5,2020.2.10,Win32,60,60a5f9bf14d0aa2821c4bb84,,,1612,-110,-47,1,0,0,response5disk,,5,10,-9,1,0,0,rectangle,10,-9,1,0,0,7,"[144,297,48,70,144,97,300,189,261,180,63,96,261,86,18,232,266,275,28,166]",10,-9,1,0,0,0,137,137,120,1,,,
,,,,,,,,,,,,,FF,,,,,,,,0.966825,,,,,,,,,,,,,,,,,,,,,,,,,6093db807d15df55e6990a28,60a7d7fab29dd492543b156e,2021-05-21_17h56.41.412,Simcolourproject_2stim_asymm_v5,2020.2.10,Win32,60,60a5f9bf14d0aa2821c4bb84,,,1608,-96,37,1,0,0,response7disk,,1,-6,5,1,0,0,rectangle,-6,5,1,0,0,3,"[144,297,48,70,144,97,300,189,261,180,63,96,261,86,18,232,266,275,28,166]",-6,5,1,0,0,0,138,138,41,1,,,
,,,,,,,,,,,,,FF,,,,,,,,1.13341,,,,,,,,,,,,,,,,,,,,,,,,,6093db807d15df55e6990a28,60a7d7fab29dd492543b156e,2021-05-21_17h56.41.412,Simcolourproject_2stim_asymm_v5,2020.2.10,Win32,60,60a5f9bf14d0aa2821c4bb84,,,3365,131,42,1,0,0,response1disk,,6,7,-9,1,0,0,rectangle,7,-9,1,0,0,0,"[144,297,48,70,144,97,300,189,261,180,63,96,261,86,18,232,266,275,28,166]",7,-9,1,0,0,0,139,139,59,1,,,
,,,,,,,,,,,,,FF,,,,,,,,0.53327,,,,,,,,,,,,,,,,,,,,,,,,,6093db807d15df55e6990a28,60a7d7fab29dd492543b156e,2021-05-21_17h56.41.412,Simcolourproject_2stim_asymm_v5,2020.2.10,Win32,60,60a5f9bf14d0aa2821c4bb84,,,512,81,153,1,0,0,response1disk,,7,-2,14,1,0,0,rectangle,-2,14,1,0,0,3,"[144,297,48,70,144,97,300,189,261,180,63,96,261,86,18,232,266,275,28,166]",-2,14,1,0,0,0,140,140,158,1,,,
,,,,,,,,,,,,,FF,,,,,,,,1.08324,,,,,,,,,,,,,,,,,,,,,,,,,6093db807d15df55e6990a28,60a7d7fab29dd492543b156e,2021-05-21_17h56.41.412,Simcolourproject_2stim_asymm_v5,2020.2.10,Win32,60,60a5f9bf14d0aa2821c4bb84,,,2772,71,-119,1,0,0,response3disk,,4,15,-6,1,0,0,rectangle,15,-6,1,0,0,4,"[144,297,48,70,144,97,300,189,261,180,63,96,261,86,18,232,266,275,28,166]",15,-6,1,0,0,0,141,141,61,1,,,
,,,,,,,,,,,,,FF,,,,,,,,0.94975,,,,,,,,,,,,,,,,,,,,,,,,,6093db807d15df55e6990a28,60a7d7fab29dd492543b156e,2021-05-21_17h56.41.412,Simcolourproject_2stim_asymm_v5,2020.2.10,Win32,60,60a5f9bf14d0aa2821c4bb84,,,976,47,-105,1,0,0,response3disk,,4,0,15,1,0,0,rectangle,0,15,1,0,0,5,"[144,297,48,70,144,97,300,189,261,180,63,96,261,86,18,232,266,275,28,166]",0,15,1,0,0,0,142,142,87,1,,,
,,,,,,,,,,,,,FF,,,,,,,,0.933165,,,,,,,,,,,,,,,,,,,,,,,,,6093db807d15df55e6990a28,60a7d7fab29dd492543b156e,2021-05-21_17h56.41.412,Simcolourproject_2stim_asymm_v5,2020.2.10,Win32,60,60a5f9bf14d0aa2821c4bb84,,,4342,46,-112,1,0,0,response3disk,,4,17,0,1,0,0,rectangle,39,-93,1,0,0,4,"[144,297,48,70,144,97,300,189,261,180,63,96,261,86,18,232,266,275,28,166]",-5,6,1,0,0,0,143,143,91,1,,response3disk_3,rectangle
,,,,,,,,,,,,,FF,,,,,,,,0.85001,,,,,,,,,,,,,,,,,,,,,,,,,6093db807d15df55e6990a28,60a7d7fab29dd492543b156e,2021-05-21_17h56.41.412,Simcolourproject_2stim_asymm_v5,2020.2.10,Win32,60,60a5f9bf14d0aa2821c4bb84,,,2141,111,57,1,0,0,response1disk,,6,2,-8,1,0,0,rectangle,2,-8,1,0,0,7,"[144,297,48,70,144,97,300,189,261,180,63,96,261,86,18,232,266,275,28,166]",2,-8,1,0,0,0,144,144,160,1,,,
,,,,,,,,,,,,,FF,,,,,,,,1.333315,,,,,,,,,,,,,,,,,,,,,,,,,6093db807d15df55e6990a28,60a7d7fab29dd492543b156e,2021-05-21_17h56.41.412,Simcolourproject_2stim_asymm_v5,2020.2.10,Win32,60,60a5f9bf14d0aa2821c4bb84,,,68,33,-104,1,0,0,response3disk,,4,-25,-2,1,0,0,rectangle,-25,-2,1,0,0,6,"[144,297,48,70,144,97,300,189,261,180,63,96,261,86,18,232,266,275,28,166]",-25,-2,1,0,0,0,145,145,8,1,,,
,,,,,,,,,,,,,FF,,,,,,,,1.01747,,,,,,,,,,,,,,,,,,,,,,,,,6093db807d15df55e6990a28,60a7d7fab29dd492543b156e,2021-05-21_17h56.41.412,Simcolourproject_2stim_asymm_v5,2020.2.10,Win32,60,60a5f9bf14d0aa2821c4bb84,,,2766,78,-46,1,0,0,response3disk,,5,1,5,1,0,0,rectangle,1,5,1,0,0,6,"[144,297,48,70,144,97,300,189,261,180,63,96,261,86,18,232,266,275,28,166]",1,5,1,0,0,0,146,146,108,1,,,
,,,,,,,,,,,,,FF,,,,,,,,1.03318,,,,,,,,,,,,,,,,,,,,,,,,,6093db807d15df55e6990a28,60a7d7fab29dd492543b156e,2021-05-21_17h56.41.412,Simcolourproject_2stim_asymm_v5,2020.2.10,Win32,60,60a5f9bf14d0aa2821c4bb84,,,3525,-65,-102,1,0,0,response5disk,,3,-40,-14,1,0,0,rectangle,-40,-14,1,0,0,2,"[144,297,48,70,144,97,300,189,261,180,63,96,261,86,18,232,266,275,28,166]",-40,-14,1,0,0,0,147,147,21,1,,,
,,,,,,,,,,,,,FF,,,,,,,,1.150095,,,,,,,,,,,,,,,,,,,,,,,,,6093db807d15df55e6990a28,60a7d7fab29dd492543b156e,2021-05-21_17h56.41.412,Simcolourproject_2stim_asymm_v5,2020.2.10,Win32,60,60a5f9bf14d0aa2821c4bb84,,,153,140,-65,1,0,0,response3disk,,5,30,-5,1,0,0,rectangle,30,-5,1,0,0,4,"[144,297,48,70,144,97,300,189,261,180,63,96,261,86,18,232,266,275,28,166]",30,-5,1,0,0,0,148,148,45,1,,,
,,,,,,,,,,,,,FF,,,,,,,,2.083435,,,,,,,,,,,,,,,,,,,,,,,,,6093db807d15df55e6990a28,60a7d7fab29dd492543b156e,2021-05-21_17h56.41.412,Simcolourproject_2stim_asymm_v5,2020.2.10,Win32,60,60a5f9bf14d0aa2821c4bb84,,,3802,47,-110,1,0,0,response3disk,,4,15,-9,1,0,0,rectangle,15,-9,1,0,0,2,"[144,297,48,70,144,97,300,189,261,180,63,96,261,86,18,232,266,275,28,166]",15,-9,1,0,0,0,149,149,33,1,,,
,,,,,,,,,,,,,FF,,,,,,,,1.13368,,,,,,,,,,,,,,,,,,,,,,,,,6093db807d15df55e6990a28,60a7d7fab29dd492543b156e,2021-05-21_17h56.41.412,Simcolourproject_2stim_asymm_v5,2020.2.10,Win32,60,60a5f9bf14d0aa2821c4bb84,,,4312,41,-96,1,0,0,response3disk,,4,15,4,1,0,0,rectangle,15,4,1,0,0,2,"[144,297,48,70,144,97,300,189,261,180,63,96,261,86,18,232,266,275,28,166]",15,4,1,0,0,0,150,150,97,1,,,
,,,,,,,,,,,,,FF,,,,,,,,1.433145,,,,,,,,,,,,,,,,,,,,,,,,,6093db807d15df55e6990a28,60a7d7fab29dd492543b156e,2021-05-21_17h56.41.412,Simcolourproject_2stim_asymm_v5,2020.2.10,Win32,60,60a5f9bf14d0aa2821c4bb84,,,3207,29,-109,1,0,0,response3disk,,4,-2,-14,1,0,0,rectangle,-2,-14,1,0,0,2,"[144,297,48,70,144,97,300,189,261,180,63,96,261,86,18,232,266,275,28,166]",-2,-14,1,0,0,0,151,151,145,1,,,
,,,,,,,,,,,,,FF,,,,,,,,1.216785,,,,,,,,,,,,,,,,,,,,,,,,,6093db807d15df55e6990a28,60a7d7fab29dd492543b156e,2021-05-21_17h56.41.412,Simcolourproject_2stim_asymm_v5,2020.2.10,Win32,60,60a5f9bf14d0aa2821c4bb84,,,2223,42,-112,1,0,0,response3disk,,4,24,9,1,0,0,rectangle,24,9,1,0,0,4,"[144,297,48,70,144,97,300,189,261,180,63,96,261,86,18,232,266,275,28,166]",24,9,1,0,0,0,152,152,48,1,,,
,,,,,,,,,,,,,FF,,,,,,,,1.516565,,,,,,,,,,,,,,,,,,,,,,,,,6093db807d15df55e6990a28,60a7d7fab29dd492543b156e,2021-05-21_17h56.41.412,Simcolourproject_2stim_asymm_v5,2020.2.10,Win32,60,60a5f9bf14d0aa2821c4bb84,,,516,-41,-97,1,0,0,response5disk,,3,-1,-5,1,0,0,rectangle,-1,-5,1,0,0,5,"[144,297,48,70,144,97,300,189,261,180,63,96,261,86,18,232,266,275,28,166]",-1,-5,1,0,0,0,153,153,98,1,,,
,,,,,,,,,,,,,FF,,,,,,,,1.316765,,,,,,,,,,,,,,,,,,,,,,,,,6093db807d15df55e6990a28,60a7d7fab29dd492543b156e,2021-05-21_17h56.41.412,Simcolourproject_2stim_asymm_v5,2020.2.10,Win32,60,60a5f9bf14d0aa2821c4bb84,,,4319,98,52,1,0,0,response1disk,,6,23,8,1,0,0,rectangle,23,8,1,0,0,3,"[144,297,48,70,144,97,300,189,261,180,63,96,261,86,18,232,266,275,28,166]",23,8,1,0,0,0,154,154,132,1,,,
,,,,,,,,,,,,,FF,,,,,,,,1.60006,,,,,,,,,,,,,,,,,,,,,,,,,6093db807d15df55e6990a28,60a7d7fab29dd492543b156e,2021-05-21_17h56.41.412,Simcolourproject_2stim_asymm_v5,2020.2.10,Win32,60,60a5f9bf14d0aa2821c4bb84,,,1403,114,-51,1,0,0,response3disk,,5,30,-8,1,0,0,rectangle,30,-8,1,0,0,4,"[144,297,48,70,144,97,300,189,261,180,63,96,261,86,18,232,266,275,28,166]",30,-8,1,0,0,0,155,155,86,1,,,
,,,,,,,,,,,,,FF,,,,,,,,0.86673,,,,,,,,,,,,,,,,,,,,,,,,,6093db807d15df55e6990a28,60a7d7fab29dd492543b156e,2021-05-21_17h56.41.412,Simcolourproject_2stim_asymm_v5,2020.2.10,Win32,60,60a5f9bf14d0aa2821c4bb84,,,1786,76,135,1,0,0,response1disk,,7,-7,5,1,0,0,rectangle,-7,5,1,0,0,2,"[144,297,48,70,144,97,300,189,261,180,63,96,261,86,18,232,266,275,28,166]",-7,5,1,0,0,0,156,156,133,1,,,
,,,,,,,,,,,,,FF,,,,,,,,0.93318,,,,,,,,,,,,,,,,,,,,,,,,,6093db807d15df55e6990a28,60a7d7fab29dd492543b156e,2021-05-21_17h56.41.412,Simcolourproject_2stim_asymm_v5,2020.2.10,Win32,60,60a5f9bf14d0aa2821c4bb84,,,470,106,41,1,0,0,response1disk,,6,11,4,1,0,0,rectangle,11,4,1,0,0,6,"[144,297,48,70,144,97,300,189,261,180,63,96,261,86,18,232,266,275,28,166]",11,4,1,0,0,0,157,157,119,1,,,
,,,,,,,,,,,,,FF,,,,,,,,0.649945,,,,,,,,,,,,,,,,,,,,,,,,,6093db807d15df55e6990a28,60a7d7fab29dd492543b156e,2021-05-21_17h56.41.412,Simcolourproject_2stim_asymm_v5,2020.2.10,Win32,60,60a5f9bf14d0aa2821c4bb84,,,3532,97,49,1,0,0,response1disk,,6,13,12,1,0,0,rectangle,13,12,1,0,0,0,"[144,297,48,70,144,97,300,189,261,180,63,96,261,86,18,232,266,275,28,166]",13,12,1,0,0,0,158,158,139,1,,,
,,,,,,,,,,,,,FF,,,,,,,,1.00006,,,,,,,,,,,,,,,,,,,,,,,,,6093db807d15df55e6990a28,60a7d7fab29dd492543b156e,2021-05-21_17h56.41.412,Simcolourproject_2stim_asymm_v5,2020.2.10,Win32,60,60a5f9bf14d0aa2821c4bb84,,,3178,96,66,1,0,0,response1disk,,6,-16,2,1,0,0,rectangle,-16,2,1,0,0,2,"[144,297,48,70,144,97,300,189,261,180,63,96,261,86,18,232,266,275,28,166]",-16,2,1,0,0,0,159,159,55,1,,,
,,,,,,,,,,,,,FF,,,,,,,,1.116735,,,,,,,,,,,,,,,,,,,,,,,,,6093db807d15df55e6990a28,60a7d7fab29dd492543b156e,2021-05-21_17h56.41.412,Simcolourproject_2stim_asymm_v5,2020.2.10,Win32,60,60a5f9bf14d0aa2821c4bb84,,,563,115,63,1,0,0,response1disk,,6,8,6,1,0,0,rectangle,8,6,1,0,0,1,"[144,297,48,70,144,97,300,189,261,180,63,96,261,86,18,232,266,275,28,166]",8,6,1,0,0,0,160,160,154,1,,,
,,,,,,,,,,,,,FF,,,,,,,,1.566705,,,,,,,,,,,,,,,,,,,,,,,,,6093db807d15df55e6990a28,60a7d7fab29dd492543b156e,2021-05-21_17h56.41.412,Simcolourproject_2stim_asymm_v5,2020.2.10,Win32,60,60a5f9bf14d0aa2821c4bb84,,,1557,122,-53,1,0,0,response3disk,,5,-5,21,1,0,0,rectangle,-5,21,1,0,0,0,"[144,297,48,70,144,97,300,189,261,180,63,96,261,86,18,232,266,275,28,166]",-5,21,1,0,0,1,0,161,23,1,,,
,,,,,,,,,,,,,FF,,,,,,,,1.483465,,,,,,,,,,,,,,,,,,,,,,,,,6093db807d15df55e6990a28,60a7d7fab29dd492543b156e,2021-05-21_17h56.41.412,Simcolourproject_2stim_asymm_v5,2020.2.10,Win32,60,60a5f9bf14d0aa2821c4bb84,,,565,69,122,1,0,0,response1disk,,7,-12,12,1,0,0,rectangle,-12,12,1,0,0,7,"[144,297,48,70,144,97,300,189,261,180,63,96,261,86,18,232,266,275,28,166]",-12,12,1,0,0,1,1,162,18,1,,,
,,,,,,,,,,,,,FF,,,,,,,,1.000105,,,,,,,,,,,,,,,,,,,,,,,,,6093db807d15df55e6990a28,60a7d7fab29dd492543b156e,2021-05-21_17h56.41.412,Simcolourproject_2stim_asymm_v5,2020.2.10,Win32,60,60a5f9bf14d0aa2821c4bb84,,,1403,140,86,1,0,0,response1disk,,6,44,2,1,0,0,rectangle,44,2,1,0,0,2,"[144,297,48,70,144,97,300,189,261,180,63,96,261,86,18,232,266,275,28,166]",44,2,1,0,0,1,2,163,155,1,,,
,,,,,,,,,,,,,FF,,,,,,,,0.899885,,,,,,,,,,,,,,,,,,,,,,,,,6093db807d15df55e6990a28,60a7d7fab29dd492543b156e,2021-05-21_17h56.41.412,Simcolourproject_2stim_asymm_v5,2020.2.10,Win32,60,60a5f9bf14d0aa2821c4bb84,,,269,93,-49,1,0,0,response3disk,,5,17,3,1,0,0,rectangle,17,3,1,0,0,7,"[144,297,48,70,144,97,300,189,261,180,63,96,261,86,18,232,266,275,28,166]",17,3,1,0,0,1,3,164,122,1,,,
,,,,,,,,,,,,,FF,,,,,,,,0.599595,,,,,,,,,,,,,,,,,,,,,,,,,6093db807d15df55e6990a28,60a7d7fab29dd492543b156e,2021-05-21_17h56.41.412,Simcolourproject_2stim_asymm_v5,2020.2.10,Win32,60,60a5f9bf14d0aa2821c4bb84,,,1622,101,-52,1,0,0,response3disk,,5,11,-10,1,0,0,rectangle,130,42,1,0,0,6,"[144,297,48,70,144,97,300,189,261,180,63,96,261,86,18,232,266,275,28,166]",-4,-9,1,0,0,1,4,165,75,1,,response1disk_3,rectangle
,,,,,,,,,,,,,FF,,,,,,,,1.9999,,,,,,,,,,,,,,,,,,,,,,,,,6093db807d15df55e6990a28,60a7d7fab29dd492543b156e,2021-05-21_17h56.41.412,Simcolourproject_2stim_asymm_v5,2020.2.10,Win32,60,60a5f9bf14d0aa2821c4bb84,,,3079,118,56,1,0,0,response1disk,,6,2,-6,1,0,0,rectangle,2,-6,1,0,0,2,"[144,297,48,70,144,97,300,189,261,180,63,96,261,86,18,232,266,275,28,166]",2,-6,1,0,0,1,5,166,160,1,,,
,,,,,,,,,,,,,FF,,,,,,,,1.2665,,,,,,,,,,,,,,,,,,,,,,,,,6093db807d15df55e6990a28,60a7d7fab29dd492543b156e,2021-05-21_17h56.41.412,Simcolourproject_2stim_asymm_v5,2020.2.10,Win32,60,60a5f9bf14d0aa2821c4bb84,,,2834,-59,-98,1,0,0,response5disk,,3,10,-2,1,0,0,rectangle,10,-2,1,0,0,7,"[144,297,48,70,144,97,300,189,261,180,63,96,261,86,18,232,266,275,28,166]",10,-2,1,0,0,1,6,167,124,1,,,
,,,,,,,,,,,,,FF,,,,,,,,0.616785,,,,,,,,,,,,,,,,,,,,,,,,,6093db807d15df55e6990a28,60a7d7fab29dd492543b156e,2021-05-21_17h56.41.412,Simcolourproject_2stim_asymm_v5,2020.2.10,Win32,60,60a5f9bf14d0aa2821c4bb84,,,1256,97,-35,1,0,0,response3disk,,5,21,-1,1,0,0,rectangle,21,-1,1,0,0,2,"[144,297,48,70,144,97,300,189,261,180,63,96,261,86,18,232,266,275,28,166]",21,-1,1,0,0,1,7,168,82,1,,,
,,,,,,,,,,,,,FF,,,,,,,,0.916775,,,,,,,,,,,,,,,,,,,,,,,,,6093db807d15df55e6990a28,60a7d7fab29dd492543b156e,2021-05-21_17h56.41.412,Simcolourproject_2stim_asymm_v5,2020.2.10,Win32,60,60a5f9bf14d0aa2821c4bb84,,,470,65,76,1,0,0,response1disk,,7,33,-1,1,0,0,rectangle,33,-1,1,0,0,4,"[144,297,48,70,144,97,300,189,261,180,63,96,261,86,18,232,266,275,28,166]",33,-1,1,0,0,1,8,169,134,1,,,
,,,,,,,,,,,,,FF,,,,,,,,1.699695,,,,,,,,,,,,,,,,,,,,,,,,,6093db807d15df55e6990a28,60a7d7fab29dd492543b156e,2021-05-21_17h56.41.412,Simcolourproject_2stim_asymm_v5,2020.2.10,Win32,60,60a5f9bf14d0aa2821c4bb84,,,1110,51,-112,1,0,0,response3disk,,4,-40,-11,1,0,0,rectangle,-40,-11,1,0,0,7,"[144,297,48,70,144,97,300,189,261,180,63,96,261,86,18,232,266,275,28,166]",-40,-11,1,0,0,1,9,170,60,1,,,
,,,,,,,,,,,,,FF,,,,,,,,1.04991,,,,,,,,,,,,,,,,,,,,,,,,,6093db807d15df55e6990a28,60a7d7fab29dd492543b156e,2021-05-21_17h56.41.412,Simcolourproject_2stim_asymm_v5,2020.2.10,Win32,60,60a5f9bf14d0aa2821c4bb84,,,1043,143,42,1,0,0,response1disk,,6,31,0,1,0,0,rectangle,31,0,1,0,0,4,"[144,297,48,70,144,97,300,189,261,180,63,96,261,86,18,232,266,275,28,166]",31,0,1,0,0,1,10,171,121,1,,,
,,,,,,,,,,,,,FF,,,,,,,,0.483355,,,,,,,,,,,,,,,,,,,,,,,,,6093db807d15df55e6990a28,60a7d7fab29dd492543b156e,2021-05-21_17h56.41.412,Simcolourproject_2stim_asymm_v5,2020.2.10,Win32,60,60a5f9bf14d0aa2821c4bb84,,,1011,148,57,1,0,0,response1disk,,6,38,4,1,0,0,rectangle,38,4,1,0,0,4,"[144,297,48,70,144,97,300,189,261,180,63,96,261,86,18,232,266,275,28,166]",38,4,1,0,0,1,11,172,3,1,,,
,,,,,,,,,,,,,FF,,,,,,,,1.050175,,,,,,,,,,,,,,,,,,,,,,,,,6093db807d15df55e6990a28,60a7d7fab29dd492543b156e,2021-05-21_17h56.41.412,Simcolourproject_2stim_asymm_v5,2020.2.10,Win32,60,60a5f9bf14d0aa2821c4bb84,,,4247,115,-60,1,0,0,response3disk,,5,2,-16,1,0,0,rectangle,2,-16,1,0,0,2,"[144,297,48,70,144,97,300,189,261,180,63,96,261,86,18,232,266,275,28,166]",2,-16,1,0,0,1,12,173,81,1,,,
,,,,,,,,,,,,,FF,,,,,,,,0.833145,,,,,,,,,,,,,,,,,,,,,,,,,6093db807d15df55e6990a28,60a7d7fab29dd492543b156e,2021-05-21_17h56.41.412,Simcolourproject_2stim_asymm_v5,2020.2.10,Win32,60,60a5f9bf14d0aa2821c4bb84,,,433,-58,-112,1,0,0,response5disk,,3,-9,-1,1,0,0,rectangle,-9,-1,1,0,0,0,"[144,297,48,70,144,97,300,189,261,180,63,96,261,86,18,232,266,275,28,166]",-9,-1,1,0,0,1,13,174,79,1,,,
,,,,,,,,,,,,,FF,,,,,,,,1.18347,,,,,,,,,,,,,,,,,,,,,,,,,6093db807d15df55e6990a28,60a7d7fab29dd492543b156e,2021-05-21_17h56.41.412,Simcolourproject_2stim_asymm_v5,2020.2.10,Win32,60,60a5f9bf14d0aa2821c4bb84,,,2772,103,-50,1,0,0,response3disk,,5,20,-4,1,0,0,rectangle,20,-4,1,0,0,2,"[144,297,48,70,144,97,300,189,261,180,63,96,261,86,18,232,266,275,28,166]",20,-4,1,0,0,1,14,175,142,1,,,
,,,,,,,,,,,,,FF,,,,,,,,0.800135,,,,,,,,,,,,,,,,,,,,,,,,,6093db807d15df55e6990a28,60a7d7fab29dd492543b156e,2021-05-21_17h56.41.412,Simcolourproject_2stim_asymm_v5,2020.2.10,Win32,60,60a5f9bf14d0aa2821c4bb84,,,3070,74,-38,1,0,0,response3disk,,5,6,0,1,0,0,rectangle,6,0,1,0,0,0,"[144,297,48,70,144,97,300,189,261,180,63,96,261,86,18,232,266,275,28,166]",6,0,1,0,0,1,15,176,78,1,,,
,,,,,,,,,,,,,FF,,,,,,,,1.36669,,,,,,,,,,,,,,,,,,,,,,,,,6093db807d15df55e6990a28,60a7d7fab29dd492543b156e,2021-05-21_17h56.41.412,Simcolourproject_2stim_asymm_v5,2020.2.10,Win32,60,60a5f9bf14d0aa2821c4bb84,,,4084,112,-68,1,0,0,response3disk,,5,9,1,1,0,0,rectangle,9,1,1,0,0,7,"[144,297,48,70,144,97,300,189,261,180,63,96,261,86,18,232,266,275,28,166]",9,1,1,0,0,1,16,177,28,1,,,
,,,,,,,,,,,,,FF,,,,,,,,0.95011,,,,,,,,,,,,,,,,,,,,,,,,,6093db807d15df55e6990a28,60a7d7fab29dd492543b156e,2021-05-21_17h56.41.412,Simcolourproject_2stim_asymm_v5,2020.2.10,Win32,60,60a5f9bf14d0aa2821c4bb84,,,3067,142,57,1,0,0,response1disk,,6,7,-1,1,0,0,rectangle,7,-1,1,0,0,2,"[144,297,48,70,144,97,300,189,261,180,63,96,261,86,18,232,266,275,28,166]",7,-1,1,0,0,1,17,178,5,1,,,
,,,,,,,,,,,,,FF,,,,,,,,0.60018,,,,,,,,,,,,,,,,,,,,,,,,,6093db807d15df55e6990a28,60a7d7fab29dd492543b156e,2021-05-21_17h56.41.412,Simcolourproject_2stim_asymm_v5,2020.2.10,Win32,60,60a5f9bf14d0aa2821c4bb84,,,1720,142,73,1,0,0,response1disk,,6,3,8,1,0,0,rectangle,92,-44,1,0,0,5,"[144,297,48,70,144,97,300,189,261,180,63,96,261,86,18,232,266,275,28,166]",-6,0,1,0,0,1,18,179,46,1,,response3disk_3,rectangle
,,,,,,,,,,,,,FF,,,,,,,,2.13294,,,,,,,,,,,,,,,,,,,,,,,,,6093db807d15df55e6990a28,60a7d7fab29dd492543b156e,2021-05-21_17h56.41.412,Simcolourproject_2stim_asymm_v5,2020.2.10,Win32,60,60a5f9bf14d0aa2821c4bb84,,,2562,53,-95,1,0,0,response3disk,,4,1,-11,1,0,0,rectangle,1,-11,1,0,0,3,"[144,297,48,70,144,97,300,189,261,180,63,96,261,86,18,232,266,275,28,166]",1,-11,1,0,0,1,19,180,80,1,,,
,,,,,,,,,,,,,FF,,,,,,,,1.300025,,,,,,,,,,,,,,,,,,,,,,,,,6093db807d15df55e6990a28,60a7d7fab29dd492543b156e,2021-05-21_17h56.41.412,Simcolourproject_2stim_asymm_v5,2020.2.10,Win32,60,60a5f9bf14d0aa2821c4bb84,,,3783,-100,-42,1,0,0,response5disk,,4,-29,0,1,0,0,rectangle,-29,0,1,0,0,6,"[144,297,48,70,144,97,300,189,261,180,63,96,261,86,18,232,266,275,28,166]",-29,0,1,0,0,1,20,181,159,1,,,
,,,,,,,,,,,,,FF,,,,,,,,0.63337,,,,,,,,,,,,,,,,,,,,,,,,,6093db807d15df55e6990a28,60a7d7fab29dd492543b156e,2021-05-21_17h56.41.412,Simcolourproject_2stim_asymm_v5,2020.2.10,Win32,60,60a5f9bf14d0aa2821c4bb84,,,2943,-93,-45,1,0,0,response5disk,,4,-1,1,1,0,0,rectangle,-1,1,1,0,0,4,"[144,297,48,70,144,97,300,189,261,180,63,96,261,86,18,232,266,275,28,166]",-1,1,1,0,0,1,21,182,17,1,,,
,,,,,,,,,,,,,FF,,,,,,,,0.983255,,,,,,,,,,,,,,,,,,,,,,,,,6093db807d15df55e6990a28,60a7d7fab29dd492543b156e,2021-05-21_17h56.41.412,Simcolourproject_2stim_asymm_v5,2020.2.10,Win32,60,60a5f9bf14d0aa2821c4bb84,,,1834,37,-121,1,0,0,response3disk,,4,15,-17,1,0,0,rectangle,15,-17,1,0,0,2,"[144,297,48,70,144,97,300,189,261,180,63,96,261,86,18,232,266,275,28,166]",15,-17,1,0,0,1,22,183,119,1,,,
,,,,,,,,,,,,,FF,,,,,,,,0.750145,,,,,,,,,,,,,,,,,,,,,,,,,6093db807d15df55e6990a28,60a7d7fab29dd492543b156e,2021-05-21_17h56.41.412,Simcolourproject_2stim_asymm_v5,2020.2.10,Win32,60,60a5f9bf14d0aa2821c4bb84,,,167,-51,-110,1,0,0,response5disk,,3,6,10,1,0,0,rectangle,6,10,1,0,0,5,"[144,297,48,70,144,97,300,189,261,180,63,96,261,86,18,232,266,275,28,166]",6,10,1,0,0,1,23,184,39,1,,,
,,,,,,,,,,,,,FF,,,,,,,,0.799805,,,,,,,,,,,,,,,,,,,,,,,,,6093db807d15df55e6990a28,60a7d7fab29dd492543b156e,2021-05-21_17h56.41.412,Simcolourproject_2stim_asymm_v5,2020.2.10,Win32,60,60a5f9bf14d0aa2821c4bb84,,,260,-95,-50,1,0,0,response5disk,,3,-31,14,1,0,0,rectangle,-31,14,1,0,0,2,"[144,297,48,70,144,97,300,189,261,180,63,96,261,86,18,232,266,275,28,166]",-31,14,1,0,0,1,24,185,84,1,,,
,,,,,,,,,,,,,FF,,,,,,,,0.750145,,,,,,,,,,,,,,,,,,,,,,,,,6093db807d15df55e6990a28,60a7d7fab29dd492543b156e,2021-05-21_17h56.41.412,Simcolourproject_2stim_asymm_v5,2020.2.10,Win32,60,60a5f9bf14d0aa2821c4bb84,,,2660,-92,39,1,0,0,response7disk,,1,-4,-11,1,0,0,rectangle,-4,-11,1,0,0,5,"[144,297,48,70,144,97,300,189,261,180,63,96,261,86,18,232,266,275,28,166]",-4,-11,1,0,0,1,25,186,152,1,,,
,,,,,,,,,,,,,FF,,,,,,,,0.683355,,,,,,,,,,,,,,,,,,,,,,,,,6093db807d15df55e6990a28,60a7d7fab29dd492543b156e,2021-05-21_17h56.41.412,Simcolourproject_2stim_asymm_v5,2020.2.10,Win32,60,60a5f9bf14d0aa2821c4bb84,,,3675,-104,42,1,0,0,response7disk,,1,-22,13,1,0,0,rectangle,-22,13,1,0,0,1,"[144,297,48,70,144,97,300,189,261,180,63,96,261,86,18,232,266,275,28,166]",-22,13,1,0,0,1,26,187,148,1,,,
,,,,,,,,,,,,,FF,,,,,,,,0.96654,,,,,,,,,,,,,,,,,,,,,,,,,6093db807d15df55e6990a28,60a7d7fab29dd492543b156e,2021-05-21_17h56.41.412,Simcolourproject_2stim_asymm_v5,2020.2.10,Win32,60,60a5f9bf14d0aa2821c4bb84,,,803,-118,-58,1,0,0,response5disk,,1,-6,2,1,0,0,rectangle,-119,-54,1,0,0,2,"[144,297,48,70,144,97,300,189,261,180,63,96,261,86,18,232,266,275,28,166]",21,-1,1,0,0,1,27,188,91,1,,response5disk_3,rectangle
,,,,,,,,,,,,,FF,,,,,,,,1.183405,,,,,,,,,,,,,,,,,,,,,,,,,6093db807d15df55e6990a28,60a7d7fab29dd492543b156e,2021-05-21_17h56.41.412,Simcolourproject_2stim_asymm_v5,2020.2.10,Win32,60,60a5f9bf14d0aa2821c4bb84,,,4306,-111,47,1,0,0,response7disk,,1,4,-10,1,0,0,rectangle,4,-10,1,0,0,6,"[144,297,48,70,144,97,300,189,261,180,63,96,261,86,18,232,266,275,28,166]",4,-10,1,0,0,1,28,189,68,1,,,
,,,,,,,,,,,,,FF,,,,,,,,1.133235,,,,,,,,,,,,,,,,,,,,,,,,,6093db807d15df55e6990a28,60a7d7fab29dd492543b156e,2021-05-21_17h56.41.412,Simcolourproject_2stim_asymm_v5,2020.2.10,Win32,60,60a5f9bf14d0aa2821c4bb84,,,2223,56,-113,1,0,0,response3disk,,4,-26,6,1,0,0,rectangle,-26,6,1,0,0,5,"[144,297,48,70,144,97,300,189,261,180,63,96,261,86,18,232,266,275,28,166]",-26,6,1,0,0,1,29,190,64,1,,,
,,,,,,,,,,,,,FF,,,,,,,,0.91648,,,,,,,,,,,,,,,,,,,,,,,,,6093db807d15df55e6990a28,60a7d7fab29dd492543b156e,2021-05-21_17h56.41.412,Simcolourproject_2stim_asymm_v5,2020.2.10,Win32,60,60a5f9bf14d0aa2821c4bb84,,,3636,-48,-119,1,0,0,response5disk,,3,17,3,1,0,0,rectangle,17,3,1,0,0,4,"[144,297,48,70,144,97,300,189,261,180,63,96,261,86,18,232,266,275,28,166]",17,3,1,0,0,1,30,191,71,1,,,
,,,,,,,,,,,,,FF,,,,,,,,0.916555,,,,,,,,,,,,,,,,,,,,,,,,,6093db807d15df55e6990a28,60a7d7fab29dd492543b156e,2021-05-21_17h56.41.412,Simcolourproject_2stim_asymm_v5,2020.2.10,Win32,60,60a5f9bf14d0aa2821c4bb84,,,976,-37,-78,1,0,0,response5disk,,3,-11,-14,1,0,0,rectangle,-11,-14,1,0,0,4,"[144,297,48,70,144,97,300,189,261,180,63,96,261,86,18,232,266,275,28,166]",-11,-14,1,0,0,1,31,192,146,1,,,
,,,,,,,,,,,,,FF,,,,,,,,0.81648,,,,,,,,,,,,,,,,,,,,,,,,,6093db807d15df55e6990a28,60a7d7fab29dd492543b156e,2021-05-21_17h56.41.412,Simcolourproject_2stim_asymm_v5,2020.2.10,Win32,60,60a5f9bf14d0aa2821c4bb84,,,4342,91,-61,1,0,0,response3disk,,5,30,0,1,0,0,rectangle,30,0,1,0,0,0,"[144,297,48,70,144,97,300,189,261,180,63,96,261,86,18,232,266,275,28,166]",30,0,1,0,0,1,32,193,127,1,,,
,,,,,,,,,,,,,FF,,,,,,,,1.05016,,,,,,,,,,,,,,,,,,,,,,,,,6093db807d15df55e6990a28,60a7d7fab29dd492543b156e,2021-05-21_17h56.41.412,Simcolourproject_2stim_asymm_v5,2020.2.10,Win32,60,60a5f9bf14d0aa2821c4bb84,,,676,99,67,1,0,0,response1disk,,6,17,-4,1,0,0,rectangle,17,-4,1,0,0,3,"[144,297,48,70,144,97,300,189,261,180,63,96,261,86,18,232,266,275,28,166]",17,-4,1,0,0,1,33,194,72,1,,,
,,,,,,,,,,,,,FF,,,,,,,,0.66665,,,,,,,,,,,,,,,,,,,,,,,,,6093db807d15df55e6990a28,60a7d7fab29dd492543b156e,2021-05-21_17h56.41.412,Simcolourproject_2stim_asymm_v5,2020.2.10,Win32,60,60a5f9bf14d0aa2821c4bb84,,,1724,152,66,1,0,0,response1disk,,6,36,18,1,0,0,rectangle,36,18,1,0,0,0,"[144,297,48,70,144,97,300,189,261,180,63,96,261,86,18,232,266,275,28,166]",36,18,1,0,0,1,34,195,120,1,,,
,,,,,,,,,,,,,FF,,,,,,,,1.73343,,,,,,,,,,,,,,,,,,,,,,,,,6093db807d15df55e6990a28,60a7d7fab29dd492543b156e,2021-05-21_17h56.41.412,Simcolourproject_2stim_asymm_v5,2020.2.10,Win32,60,60a5f9bf14d0aa2821c4bb84,,,818,60,-101,1,0,0,response3disk,,4,19,20,1,0,0,rectangle,19,20,1,0,0,2,"[144,297,48,70,144,97,300,189,261,180,63,96,261,86,18,232,266,275,28,166]",19,20,1,0,0,1,35,196,90,1,,,
,,,,,,,,,,,,,FF,,,,,,,,0.983455,,,,,,,,,,,,,,,,,,,,,,,,,6093db807d15df55e6990a28,60a7d7fab29dd492543b156e,2021-05-21_17h56.41.412,Simcolourproject_2stim_asymm_v5,2020.2.10,Win32,60,60a5f9bf14d0aa2821c4bb84,,,1081,113,47,1,0,0,response1disk,,6,32,-1,1,0,0,rectangle,32,-1,1,0,0,2,"[144,297,48,70,144,97,300,189,261,180,63,96,261,86,18,232,266,275,28,166]",32,-1,1,0,0,1,36,197,153,1,,,
,,,,,,,,,,,,,FF,,,,,,,,0.90015,,,,,,,,,,,,,,,,,,,,,,,,,6093db807d15df55e6990a28,60a7d7fab29dd492543b156e,2021-05-21_17h56.41.412,Simcolourproject_2stim_asymm_v5,2020.2.10,Win32,60,60a5f9bf14d0aa2821c4bb84,,,1996,63,128,1,0,0,response1disk,,7,-9,-6,1,0,0,rectangle,-9,-6,1,0,0,1,"[144,297,48,70,144,97,300,189,261,180,63,96,261,86,18,232,266,275,28,166]",-9,-6,1,0,0,1,37,198,52,1,,,
,,,,,,,,,,,,,FF,,,,,,,,1.51652,,,,,,,,,,,,,,,,,,,,,,,,,6093db807d15df55e6990a28,60a7d7fab29dd492543b156e,2021-05-21_17h56.41.412,Simcolourproject_2stim_asymm_v5,2020.2.10,Win32,60,60a5f9bf14d0aa2821c4bb84,,,2494,111,-43,1,0,0,response3disk,,5,40,-3,1,0,0,rectangle,40,-3,1,0,0,2,"[144,297,48,70,144,97,300,189,261,180,63,96,261,86,18,232,266,275,28,166]",40,-3,1,0,0,1,38,199,112,1,,,
,,,,,,,,,,,,,FF,,,,,,,,0.70005,,,,,,,,,,,,,,,,,,,,,,,,,6093db807d15df55e6990a28,60a7d7fab29dd492543b156e,2021-05-21_17h56.41.412,Simcolourproject_2stim_asymm_v5,2020.2.10,Win32,60,60a5f9bf14d0aa2821c4bb84,,,3225,59,108,1,0,0,response1disk,,7,-13,0,1,0,0,rectangle,-13,0,1,0,0,2,"[144,297,48,70,144,97,300,189,261,180,63,96,261,86,18,232,266,275,28,166]",-13,0,1,0,0,1,39,200,19,1,,,
,,,,,,,,,,,,,FF,,,,,,,,0.766435,,,,,,,,,,,,,,,,,,,,,,,,,6093db807d15df55e6990a28,60a7d7fab29dd492543b156e,2021-05-21_17h56.41.412,Simcolourproject_2stim_asymm_v5,2020.2.10,Win32,60,60a5f9bf14d0aa2821c4bb84,,,2406,98,43,1,0,0,response1disk,,6,20,-6,1,0,0,rectangle,20,-6,1,0,0,4,"[144,297,48,70,144,97,300,189,261,180,63,96,261,86,18,232,266,275,28,166]",20,-6,1,0,0,1,40,201,30,1,,,
,,,,,,,,,,,,,FF,,,,,,,,1.14983,,,,,,,,,,,,,,,,,,,,,,,,,6093db807d15df55e6990a28,60a7d7fab29dd492543b156e,2021-05-21_17h56.41.412,Simcolourproject_2stim_asymm_v5,2020.2.10,Win32,60,60a5f9bf14d0aa2821c4bb84,,,62,111,40,1,0,0,response1disk,,6,-5,11,1,0,0,rectangle,-5,11,1,0,0,2,"[144,297,48,70,144,97,300,189,261,180,63,96,261,86,18,232,266,275,28,166]",-5,11,1,0,0,1,41,202,4,1,,,
,,,,,,,,,,,,,FF,,,,,,,,0.633365,,,,,,,,,,,,,,,,,,,,,,,,,6093db807d15df55e6990a28,60a7d7fab29dd492543b156e,2021-05-21_17h56.41.412,Simcolourproject_2stim_asymm_v5,2020.2.10,Win32,60,60a5f9bf14d0aa2821c4bb84,,,2968,81,43,1,0,0,response1disk,,6,21,-1,1,0,0,rectangle,21,-1,1,0,0,7,"[144,297,48,70,144,97,300,189,261,180,63,96,261,86,18,232,266,275,28,166]",21,-1,1,0,0,1,42,203,126,1,,,
,,,,,,,,,,,,,FF,,,,,,,,0.69982,,,,,,,,,,,,,,,,,,,,,,,,,6093db807d15df55e6990a28,60a7d7fab29dd492543b156e,2021-05-21_17h56.41.412,Simcolourproject_2stim_asymm_v5,2020.2.10,Win32,60,60a5f9bf14d0aa2821c4bb84,,,1334,103,52,1,0,0,response1disk,,6,25,11,1,0,0,rectangle,25,11,1,0,0,6,"[144,297,48,70,144,97,300,189,261,180,63,96,261,86,18,232,266,275,28,166]",25,11,1,0,0,1,43,204,44,1,,,
,,,,,,,,,,,,,FF,,,,,,,,0.74994,,,,,,,,,,,,,,,,,,,,,,,,,6093db807d15df55e6990a28,60a7d7fab29dd492543b156e,2021-05-21_17h56.41.412,Simcolourproject_2stim_asymm_v5,2020.2.10,Win32,60,60a5f9bf14d0aa2821c4bb84,,,563,93,138,1,0,0,response1disk,,7,4,6,1,0,0,rectangle,4,6,1,0,0,7,"[144,297,48,70,144,97,300,189,261,180,63,96,261,86,18,232,266,275,28,166]",4,6,1,0,0,1,44,205,21,1,,,
,,,,,,,,,,,,,FF,,,,,,,,0.766785,,,,,,,,,,,,,,,,,,,,,,,,,6093db807d15df55e6990a28,60a7d7fab29dd492543b156e,2021-05-21_17h56.41.412,Simcolourproject_2stim_asymm_v5,2020.2.10,Win32,60,60a5f9bf14d0aa2821c4bb84,,,4355,99,-55,1,0,0,response3disk,,5,-2,-6,1,0,0,rectangle,-2,-6,1,0,0,7,"[144,297,48,70,144,97,300,189,261,180,63,96,261,86,18,232,266,275,28,166]",-2,-6,1,0,0,1,45,206,106,1,,,
,,,,,,,,,,,,,FF,,,,,,,,1.066655,,,,,,,,,,,,,,,,,,,,,,,,,6093db807d15df55e6990a28,60a7d7fab29dd492543b156e,2021-05-21_17h56.41.412,Simcolourproject_2stim_asymm_v5,2020.2.10,Win32,60,60a5f9bf14d0aa2821c4bb84,,,3632,-57,-93,1,0,0,response5disk,,3,-17,-6,1,0,0,rectangle,-17,-6,1,0,0,3,"[144,297,48,70,144,97,300,189,261,180,63,96,261,86,18,232,266,275,28,166]",-17,-6,1,0,0,1,46,207,38,1,,,
,,,,,,,,,,,,,FF,,,,,,,,0.866565,,,,,,,,,,,,,,,,,,,,,,,,,6093db807d15df55e6990a28,60a7d7fab29dd492543b156e,2021-05-21_17h56.41.412,Simcolourproject_2stim_asymm_v5,2020.2.10,Win32,60,60a5f9bf14d0aa2821c4bb84,,,1557,36,-86,1,0,0,response3disk,,4,18,-14,1,0,0,rectangle,18,-14,1,0,0,3,"[144,297,48,70,144,97,300,189,261,180,63,96,261,86,18,232,266,275,28,166]",18,-14,1,0,0,1,47,208,56,1,,,
,,,,,,,,,,,,,FF,,,,,,,,1.04992,,,,,,,,,,,,,,,,,,,,,,,,,6093db807d15df55e6990a28,60a7d7fab29dd492543b156e,2021-05-21_17h56.41.412,Simcolourproject_2stim_asymm_v5,2020.2.10,Win32,60,60a5f9bf14d0aa2821c4bb84,,,1612,-36,-122,1,0,0,response5disk,,3,1,0,1,0,0,rectangle,1,0,1,0,0,3,"[144,297,48,70,144,97,300,189,261,180,63,96,261,86,18,232,266,275,28,166]",1,0,1,0,0,1,48,209,15,1,,,
,,,,,,,,,,,,,FF,,,,,,,,1.00006,,,,,,,,,,,,,,,,,,,,,,,,,6093db807d15df55e6990a28,60a7d7fab29dd492543b156e,2021-05-21_17h56.41.412,Simcolourproject_2stim_asymm_v5,2020.2.10,Win32,60,60a5f9bf14d0aa2821c4bb84,,,2298,-114,-58,1,0,0,response5disk,,3,-31,-7,1,0,0,rectangle,-31,-7,1,0,0,3,"[144,297,48,70,144,97,300,189,261,180,63,96,261,86,18,232,266,275,28,166]",-31,-7,1,0,0,1,49,210,49,1,,,
,,,,,,,,,,,,,FF,,,,,,,,1.33347,,,,,,,,,,,,,,,,,,,,,,,,,6093db807d15df55e6990a28,60a7d7fab29dd492543b156e,2021-05-21_17h56.41.412,Simcolourproject_2stim_asymm_v5,2020.2.10,Win32,60,60a5f9bf14d0aa2821c4bb84,,,2766,48,-99,1,0,0,response3disk,,4,32,-11,1,0,0,rectangle,32,-11,1,0,0,5,"[144,297,48,70,144,97,300,189,261,180,63,96,261,86,18,232,266,275,28,166]",32,-11,1,0,0,1,50,211,9,1,,,
,,,,,,,,,,,,,FF,,,,,,,,1.91668,,,,,,,,,,,,,,,,,,,,,,,,,6093db807d15df55e6990a28,60a7d7fab29dd492543b156e,2021-05-21_17h56.41.412,Simcolourproject_2stim_asymm_v5,2020.2.10,Win32,60,60a5f9bf14d0aa2821c4bb84,,,4077,34,-87,1,0,0,response3disk,,4,29,1,1,0,0,rectangle,29,1,1,0,0,6,"[144,297,48,70,144,97,300,189,261,180,63,96,261,86,18,232,266,275,28,166]",29,1,1,0,0,1,51,212,132,1,,,
,,,,,,,,,,,,,FF,,,,,,,,0.816425,,,,,,,,,,,,,,,,,,,,,,,,,6093db807d15df55e6990a28,60a7d7fab29dd492543b156e,2021-05-21_17h56.41.412,Simcolourproject_2stim_asymm_v5,2020.2.10,Win32,60,60a5f9bf14d0aa2821c4bb84,,,3981,-47,-94,1,0,0,response5disk,,3,-14,-15,1,0,0,rectangle,-14,-15,1,0,0,4,"[144,297,48,70,144,97,300,189,261,180,63,96,261,86,18,232,266,275,28,166]",-14,-15,1,0,0,1,52,213,98,1,,,
,,,,,,,,,,,,,FF,,,,,,,,1.00038,,,,,,,,,,,,,,,,,,,,,,,,,6093db807d15df55e6990a28,60a7d7fab29dd492543b156e,2021-05-21_17h56.41.412,Simcolourproject_2stim_asymm_v5,2020.2.10,Win32,60,60a5f9bf14d0aa2821c4bb84,,,2559,46,-106,1,0,0,response3disk,,4,19,-9,1,0,0,rectangle,19,-9,1,0,0,0,"[144,297,48,70,144,97,300,189,261,180,63,96,261,86,18,232,266,275,28,166]",19,-9,1,0,0,1,53,214,13,1,,,
,,,,,,,,,,,,,FF,,,,,,,,0.633425,,,,,,,,,,,,,,,,,,,,,,,,,6093db807d15df55e6990a28,60a7d7fab29dd492543b156e,2021-05-21_17h56.41.412,Simcolourproject_2stim_asymm_v5,2020.2.10,Win32,60,60a5f9bf14d0aa2821c4bb84,,,2082,92,158,1,0,0,response1disk,,7,15,18,1,0,0,rectangle,15,18,1,0,0,5,"[144,297,48,70,144,97,300,189,261,180,63,96,261,86,18,232,266,275,28,166]",15,18,1,0,0,1,54,215,89,1,,,
,,,,,,,,,,,,,FF,,,,,,,,0.90004,,,,,,,,,,,,,,,,,,,,,,,,,6093db807d15df55e6990a28,60a7d7fab29dd492543b156e,2021-05-21_17h56.41.412,Simcolourproject_2stim_asymm_v5,2020.2.10,Win32,60,60a5f9bf14d0aa2821c4bb84,,,2893,-103,21,1,0,0,response7disk,,1,-19,-3,1,0,0,rectangle,-19,-3,1,0,0,5,"[144,297,48,70,144,97,300,189,261,180,63,96,261,86,18,232,266,275,28,166]",-19,-3,1,0,0,1,55,216,102,1,,,
,,,,,,,,,,,,,FF,,,,,,,,1.15014,,,,,,,,,,,,,,,,,,,,,,,,,6093db807d15df55e6990a28,60a7d7fab29dd492543b156e,2021-05-21_17h56.41.412,Simcolourproject_2stim_asymm_v5,2020.2.10,Win32,60,60a5f9bf14d0aa2821c4bb84,,,2735,-50,-114,1,0,0,response5disk,,3,-7,-8,1,0,0,rectangle,-7,-8,1,0,0,2,"[144,297,48,70,144,97,300,189,261,180,63,96,261,86,18,232,266,275,28,166]",-7,-8,1,0,0,1,56,217,61,1,,,
,,,,,,,,,,,,,FF,,,,,,,,0.84978,,,,,,,,,,,,,,,,,,,,,,,,,6093db807d15df55e6990a28,60a7d7fab29dd492543b156e,2021-05-21_17h56.41.412,Simcolourproject_2stim_asymm_v5,2020.2.10,Win32,60,60a5f9bf14d0aa2821c4bb84,,,2690,90,-47,1,0,0,response3disk,,5,11,8,1,0,0,rectangle,11,8,1,0,0,6,"[144,297,48,70,144,97,300,189,261,180,63,96,261,86,18,232,266,275,28,166]",11,8,1,0,0,1,57,218,74,1,,,
,,,,,,,,,,,,,FF,,,,,,,,1.29959,,,,,,,,,,,,,,,,,,,,,,,,,6093db807d15df55e6990a28,60a7d7fab29dd492543b156e,2021-05-21_17h56.41.412,Simcolourproject_2stim_asymm_v5,2020.2.10,Win32,60,60a5f9bf14d0aa2821c4bb84,,,3802,60,-91,1,0,0,response3disk,,4,-10,-5,1,0,0,rectangle,-10,-5,1,0,0,0,"[144,297,48,70,144,97,300,189,261,180,63,96,261,86,18,232,266,275,28,166]",-10,-5,1,0,0,1,58,219,11,1,,,
,,,,,,,,,,,,,FF,,,,,,,,1.43351,,,,,,,,,,,,,,,,,,,,,,,,,6093db807d15df55e6990a28,60a7d7fab29dd492543b156e,2021-05-21_17h56.41.412,Simcolourproject_2stim_asymm_v5,2020.2.10,Win32,60,60a5f9bf14d0aa2821c4bb84,,,3413,70,-43,1,0,0,response3disk,,5,14,-5,1,0,0,rectangle,14,-5,1,0,0,6,"[144,297,48,70,144,97,300,189,261,180,63,96,261,86,18,232,266,275,28,166]",14,-5,1,0,0,1,59,220,70,1,,,
,,,,,,,,,,,,,FF,,,,,,,,0.93337,,,,,,,,,,,,,,,,,,,,,,,,,6093db807d15df55e6990a28,60a7d7fab29dd492543b156e,2021-05-21_17h56.41.412,Simcolourproject_2stim_asymm_v5,2020.2.10,Win32,60,60a5f9bf14d0aa2821c4bb84,,,3525,-45,-100,1,0,0,response5disk,,3,-4,-6,1,0,0,rectangle,-4,-6,1,0,0,1,"[144,297,48,70,144,97,300,189,261,180,63,96,261,86,18,232,266,275,28,166]",-4,-6,1,0,0,1,60,221,45,1,,,
,,,,,,,,,,,,,FF,,,,,,,,1.06662,,,,,,,,,,,,,,,,,,,,,,,,,6093db807d15df55e6990a28,60a7d7fab29dd492543b156e,2021-05-21_17h56.41.412,Simcolourproject_2stim_asymm_v5,2020.2.10,Win32,60,60a5f9bf14d0aa2821c4bb84,,,1629,77,107,1,0,0,response1disk,,7,8,11,1,0,0,rectangle,8,11,1,0,0,0,"[144,297,48,70,144,97,300,189,261,180,63,96,261,86,18,232,266,275,28,166]",8,11,1,0,0,1,61,222,31,1,,,
,,,,,,,,,,,,,FF,,,,,,,,0.799925,,,,,,,,,,,,,,,,,,,,,,,,,6093db807d15df55e6990a28,60a7d7fab29dd492543b156e,2021-05-21_17h56.41.412,Simcolourproject_2stim_asymm_v5,2020.2.10,Win32,60,60a5f9bf14d0aa2821c4bb84,,,3532,59,-87,1,0,0,response3disk,,4,-1,5,1,0,0,rectangle,-1,5,1,0,0,4,"[144,297,48,70,144,97,300,189,261,180,63,96,261,86,18,232,266,275,28,166]",-1,5,1,0,0,1,62,223,87,1,,,
,,,,,,,,,,,,,FF,,,,,,,,1.76639,,,,,,,,,,,,,,,,,,,,,,,,,6093db807d15df55e6990a28,60a7d7fab29dd492543b156e,2021-05-21_17h56.41.412,Simcolourproject_2stim_asymm_v5,2020.2.10,Win32,60,60a5f9bf14d0aa2821c4bb84,,,68,93,120,1,0,0,response1disk,,7,-3,-18,1,0,0,rectangle,-3,-18,1,0,0,0,"[144,297,48,70,144,97,300,189,261,180,63,96,261,86,18,232,266,275,28,166]",-3,-18,1,0,0,1,63,224,50,1,,,
,,,,,,,,,,,,,FF,,,,,,,,0.736345,,,,,,,,,,,,,,,,,,,,,,,,,6093db807d15df55e6990a28,60a7d7fab29dd492543b156e,2021-05-21_17h56.41.412,Simcolourproject_2stim_asymm_v5,2020.2.10,Win32,60,60a5f9bf14d0aa2821c4bb84,,,1432,81,-41,1,0,0,response3disk,,5,1,14,1,0,0,rectangle,1,14,1,0,0,5,"[144,297,48,70,144,97,300,189,261,180,63,96,261,86,18,232,266,275,28,166]",1,14,1,0,0,1,64,225,12,1,,,
,,,,,,,,,,,,,FF,,,,,,,,1.083395,,,,,,,,,,,,,,,,,,,,,,,,,6093db807d15df55e6990a28,60a7d7fab29dd492543b156e,2021-05-21_17h56.41.412,Simcolourproject_2stim_asymm_v5,2020.2.10,Win32,60,60a5f9bf14d0aa2821c4bb84,,,327,115,52,1,0,0,response1disk,,6,15,-4,1,0,0,rectangle,15,-4,1,0,0,0,"[144,297,48,70,144,97,300,189,261,180,63,96,261,86,18,232,266,275,28,166]",15,-4,1,0,0,1,65,226,1,1,,,
,,,,,,,,,,,,,FF,,,,,,,,1.31668,,,,,,,,,,,,,,,,,,,,,,,,,6093db807d15df55e6990a28,60a7d7fab29dd492543b156e,2021-05-21_17h56.41.412,Simcolourproject_2stim_asymm_v5,2020.2.10,Win32,60,60a5f9bf14d0aa2821c4bb84,,,1615,-93,-59,1,0,0,response5disk,,6,-12,-2,1,0,0,rectangle,-12,-2,1,0,0,1,"[144,297,48,70,144,97,300,189,261,180,63,96,261,86,18,232,266,275,28,166]",-12,-2,1,0,0,1,66,227,100,1,,,
,,,,,,,,,,,,,FF,,,,,,,,0.982905,,,,,,,,,,,,,,,,,,,,,,,,,6093db807d15df55e6990a28,60a7d7fab29dd492543b156e,2021-05-21_17h56.41.412,Simcolourproject_2stim_asymm_v5,2020.2.10,Win32,60,60a5f9bf14d0aa2821c4bb84,,,2087,40,-80,1,0,0,response3disk,,4,3,-11,1,0,0,rectangle,3,-11,1,0,0,3,"[144,297,48,70,144,97,300,189,261,180,63,96,261,86,18,232,266,275,28,166]",3,-11,1,0,0,1,67,228,156,1,,,
,,,,,,,,,,,,,FF,,,,,,,,0.816885,,,,,,,,,,,,,,,,,,,,,,,,,6093db807d15df55e6990a28,60a7d7fab29dd492543b156e,2021-05-21_17h56.41.412,Simcolourproject_2stim_asymm_v5,2020.2.10,Win32,60,60a5f9bf14d0aa2821c4bb84,,,1415,141,65,1,0,0,response1disk,,6,39,0,1,0,0,rectangle,39,0,1,0,0,2,"[144,297,48,70,144,97,300,189,261,180,63,96,261,86,18,232,266,275,28,166]",39,0,1,0,0,1,68,229,86,1,,,
,,,,,,,,,,,,,FF,,,,,,,,0.766725,,,,,,,,,,,,,,,,,,,,,,,,,6093db807d15df55e6990a28,60a7d7fab29dd492543b156e,2021-05-21_17h56.41.412,Simcolourproject_2stim_asymm_v5,2020.2.10,Win32,60,60a5f9bf14d0aa2821c4bb84,,,3365,65,122,1,0,0,response1disk,,7,-10,0,1,0,0,rectangle,-10,0,1,0,0,1,"[144,297,48,70,144,97,300,189,261,180,63,96,261,86,18,232,266,275,28,166]",-10,0,1,0,0,1,69,230,73,1,,,
,,,,,,,,,,,,,FF,,,,,,,,0.69989,,,,,,,,,,,,,,,,,,,,,,,,,6093db807d15df55e6990a28,60a7d7fab29dd492543b156e,2021-05-21_17h56.41.412,Simcolourproject_2stim_asymm_v5,2020.2.10,Win32,60,60a5f9bf14d0aa2821c4bb84,,,3178,145,45,1,0,0,response1disk,,6,19,-3,1,0,0,rectangle,54,104,1,0,0,7,"[144,297,48,70,144,97,300,189,261,180,63,96,261,86,18,232,266,275,28,166]",11,-2,1,0,0,1,70,231,22,1,,response1disk_3,rectangle
,,,,,,,,,,,,,FF,,,,,,,,0.700105,,,,,,,,,,,,,,,,,,,,,,,,,6093db807d15df55e6990a28,60a7d7fab29dd492543b156e,2021-05-21_17h56.41.412,Simcolourproject_2stim_asymm_v5,2020.2.10,Win32,60,60a5f9bf14d0aa2821c4bb84,,,767,153,64,1,0,0,response1disk,,6,21,8,1,0,0,rectangle,21,8,1,0,0,1,"[144,297,48,70,144,97,300,189,261,180,63,96,261,86,18,232,266,275,28,166]",21,8,1,0,0,1,71,232,105,1,,,
,,,,,,,,,,,,,FF,,,,,,,,1.31653,,,,,,,,,,,,,,,,,,,,,,,,,6093db807d15df55e6990a28,60a7d7fab29dd492543b156e,2021-05-21_17h56.41.412,Simcolourproject_2stim_asymm_v5,2020.2.10,Win32,60,60a5f9bf14d0aa2821c4bb84,,,1920,59,112,1,0,0,response1disk,,7,-2,9,1,0,0,rectangle,-2,9,1,0,0,5,"[144,297,48,70,144,97,300,189,261,180,63,96,261,86,18,232,266,275,28,166]",-2,9,1,0,0,1,72,233,57,1,,,
,,,,,,,,,,,,,FF,,,,,,,,0.783455,,,,,,,,,,,,,,,,,,,,,,,,,6093db807d15df55e6990a28,60a7d7fab29dd492543b156e,2021-05-21_17h56.41.412,Simcolourproject_2stim_asymm_v5,2020.2.10,Win32,60,60a5f9bf14d0aa2821c4bb84,,,2601,-80,113,1,0,0,response7disk,,0,-7,0,1,0,0,rectangle,-7,0,1,0,0,7,"[144,297,48,70,144,97,300,189,261,180,63,96,261,86,18,232,266,275,28,166]",-7,0,1,0,0,1,73,234,101,1,,,
,,,,,,,,,,,,,FF,,,,,,,,0.76672,,,,,,,,,,,,,,,,,,,,,,,,,6093db807d15df55e6990a28,60a7d7fab29dd492543b156e,2021-05-21_17h56.41.412,Simcolourproject_2stim_asymm_v5,2020.2.10,Win32,60,60a5f9bf14d0aa2821c4bb84,,,3909,-98,40,1,0,0,response7disk,,1,-25,12,1,0,0,rectangle,-25,12,1,0,0,0,"[144,297,48,70,144,97,300,189,261,180,63,96,261,86,18,232,266,275,28,166]",-25,12,1,0,0,1,74,235,130,1,,,
,,,,,,,,,,,,,FF,,,,,,,,0.83341,,,,,,,,,,,,,,,,,,,,,,,,,6093db807d15df55e6990a28,60a7d7fab29dd492543b156e,2021-05-21_17h56.41.412,Simcolourproject_2stim_asymm_v5,2020.2.10,Win32,60,60a5f9bf14d0aa2821c4bb84,,,3747,-115,-56,1,0,0,response5disk,,1,-7,-8,1,0,0,rectangle,-7,-8,1,0,0,1,"[144,297,48,70,144,97,300,189,261,180,63,96,261,86,18,232,266,275,28,166]",-7,-8,1,0,0,1,75,236,85,1,,,
,,,,,,,,,,,,,FF,,,,,,,,0.649715,,,,,,,,,,,,,,,,,,,,,,,,,6093db807d15df55e6990a28,60a7d7fab29dd492543b156e,2021-05-21_17h56.41.412,Simcolourproject_2stim_asymm_v5,2020.2.10,Win32,60,60a5f9bf14d0aa2821c4bb84,,,87,106,46,1,0,0,response1disk,,6,43,1,1,0,0,rectangle,43,1,1,0,0,2,"[144,297,48,70,144,97,300,189,261,180,63,96,261,86,18,232,266,275,28,166]",43,1,1,0,0,1,76,237,26,1,,,
,,,,,,,,,,,,,FF,,,,,,,,0.74998,,,,,,,,,,,,,,,,,,,,,,,,,6093db807d15df55e6990a28,60a7d7fab29dd492543b156e,2021-05-21_17h56.41.412,Simcolourproject_2stim_asymm_v5,2020.2.10,Win32,60,60a5f9bf14d0aa2821c4bb84,,,2084,97,-54,1,0,0,response3disk,,5,17,-6,1,0,0,rectangle,17,-6,1,0,0,3,"[144,297,48,70,144,97,300,189,261,180,63,96,261,86,18,232,266,275,28,166]",17,-6,1,0,0,1,77,238,76,1,,,
,,,,,,,,,,,,,FF,,,,,,,,0.750155,,,,,,,,,,,,,,,,,,,,,,,,,6093db807d15df55e6990a28,60a7d7fab29dd492543b156e,2021-05-21_17h56.41.412,Simcolourproject_2stim_asymm_v5,2020.2.10,Win32,60,60a5f9bf14d0aa2821c4bb84,,,210,95,54,1,0,0,response1disk,,6,16,16,1,0,0,rectangle,16,16,1,0,0,7,"[144,297,48,70,144,97,300,189,261,180,63,96,261,86,18,232,266,275,28,166]",16,16,1,0,0,1,78,239,29,1,,,
,,,,,,,,,,,,,FF,,,,,,,,0.58327,,,,,,,,,,,,,,,,,,,,,,,,,6093db807d15df55e6990a28,60a7d7fab29dd492543b156e,2021-05-21_17h56.41.412,Simcolourproject_2stim_asymm_v5,2020.2.10,Win32,60,60a5f9bf14d0aa2821c4bb84,,,1406,99,32,1,0,0,response1disk,,6,47,-9,1,0,0,rectangle,47,-9,1,0,0,1,"[144,297,48,70,144,97,300,189,261,180,63,96,261,86,18,232,266,275,28,166]",47,-9,1,0,0,1,79,240,2,1,,,
,,,,,,,,,,,,,FF,,,,,,,,1.21685,,,,,,,,,,,,,,,,,,,,,,,,,6093db807d15df55e6990a28,60a7d7fab29dd492543b156e,2021-05-21_17h56.41.412,Simcolourproject_2stim_asymm_v5,2020.2.10,Win32,60,60a5f9bf14d0aa2821c4bb84,,,2343,58,96,1,0,0,response1disk,,7,-1,3,1,0,0,rectangle,-1,3,1,0,0,0,"[144,297,48,70,144,97,300,189,261,180,63,96,261,86,18,232,266,275,28,166]",-1,3,1,0,0,1,80,241,158,1,,,
,,,,,,,,,,,,,FF,,,,,,,,0.733135,,,,,,,,,,,,,,,,,,,,,,,,,6093db807d15df55e6990a28,60a7d7fab29dd492543b156e,2021-05-21_17h56.41.412,Simcolourproject_2stim_asymm_v5,2020.2.10,Win32,60,60a5f9bf14d0aa2821c4bb84,,,2658,82,-48,1,0,0,response3disk,,5,7,3,1,0,0,rectangle,7,3,1,0,0,3,"[144,297,48,70,144,97,300,189,261,180,63,96,261,86,18,232,266,275,28,166]",7,3,1,0,0,1,81,242,137,1,,,
,,,,,,,,,,,,,FF,,,,,,,,1.966875,,,,,,,,,,,,,,,,,,,,,,,,,6093db807d15df55e6990a28,60a7d7fab29dd492543b156e,2021-05-21_17h56.41.412,Simcolourproject_2stim_asymm_v5,2020.2.10,Win32,60,60a5f9bf14d0aa2821c4bb84,,,2509,77,28,1,0,0,response1disk,,6,19,-5,1,0,0,rectangle,19,-5,1,0,0,7,"[144,297,48,70,144,97,300,189,261,180,63,96,261,86,18,232,266,275,28,166]",19,-5,1,0,0,1,82,243,139,1,,,
,,,,,,,,,,,,,FF,,,,,,,,1.11651,,,,,,,,,,,,,,,,,,,,,,,,,6093db807d15df55e6990a28,60a7d7fab29dd492543b156e,2021-05-21_17h56.41.412,Simcolourproject_2stim_asymm_v5,2020.2.10,Win32,60,60a5f9bf14d0aa2821c4bb84,,,3005,-39,-113,1,0,0,response5disk,,3,-23,-17,1,0,0,rectangle,-23,-17,1,0,0,5,"[144,297,48,70,144,97,300,189,261,180,63,96,261,86,18,232,266,275,28,166]",-23,-17,1,0,0,1,83,244,35,1,,,
,,,,,,,,,,,,,FF,,,,,,,,1.116465,,,,,,,,,,,,,,,,,,,,,,,,,6093db807d15df55e6990a28,60a7d7fab29dd492543b156e,2021-05-21_17h56.41.412,Simcolourproject_2stim_asymm_v5,2020.2.10,Win32,60,60a5f9bf14d0aa2821c4bb84,,,3724,51,-91,1,0,0,response3disk,,4,20,-2,1,0,0,rectangle,20,-2,1,0,0,3,"[144,297,48,70,144,97,300,189,261,180,63,96,261,86,18,232,266,275,28,166]",20,-2,1,0,0,1,84,245,66,1,,,
,,,,,,,,,,,,,FF,,,,,,,,0.833285,,,,,,,,,,,,,,,,,,,,,,,,,6093db807d15df55e6990a28,60a7d7fab29dd492543b156e,2021-05-21_17h56.41.412,Simcolourproject_2stim_asymm_v5,2020.2.10,Win32,60,60a5f9bf14d0aa2821c4bb84,,,1346,114,44,1,0,0,response1disk,,6,33,-2,1,0,0,rectangle,33,-2,1,0,0,7,"[144,297,48,70,144,97,300,189,261,180,63,96,261,86,18,232,266,275,28,166]",33,-2,1,0,0,1,85,246,14,1,,,
,,,,,,,,,,,,,FF,,,,,,,,0.666765,,,,,,,,,,,,,,,,,,,,,,,,,6093db807d15df55e6990a28,60a7d7fab29dd492543b156e,2021-05-21_17h56.41.412,Simcolourproject_2stim_asymm_v5,2020.2.10,Win32,60,60a5f9bf14d0aa2821c4bb84,,,1115,46,100,1,0,0,response1disk,,7,20,20,1,0,0,rectangle,20,20,1,0,0,0,"[144,297,48,70,144,97,300,189,261,180,63,96,261,86,18,232,266,275,28,166]",20,20,1,0,0,1,86,247,58,1,,,
,,,,,,,,,,,,,FF,,,,,,,,1.183385,,,,,,,,,,,,,,,,,,,,,,,,,6093db807d15df55e6990a28,60a7d7fab29dd492543b156e,2021-05-21_17h56.41.412,Simcolourproject_2stim_asymm_v5,2020.2.10,Win32,60,60a5f9bf14d0aa2821c4bb84,,,1303,-43,-110,1,0,0,response5disk,,3,-15,-6,1,0,0,rectangle,-15,-6,1,0,0,4,"[144,297,48,70,144,97,300,189,261,180,63,96,261,86,18,232,266,275,28,166]",-15,-6,1,0,0,1,87,248,36,1,,,
,,,,,,,,,,,,,FF,,,,,,,,0.683605,,,,,,,,,,,,,,,,,,,,,,,,,6093db807d15df55e6990a28,60a7d7fab29dd492543b156e,2021-05-21_17h56.41.412,Simcolourproject_2stim_asymm_v5,2020.2.10,Win32,60,60a5f9bf14d0aa2821c4bb84,,,3077,119,63,1,0,0,response1disk,,6,43,-11,1,0,0,rectangle,43,-11,1,0,0,5,"[144,297,48,70,144,97,300,189,261,180,63,96,261,86,18,232,266,275,28,166]",43,-11,1,0,0,1,88,249,123,1,,,
