key_resp.keys,key_resp.rt,key_resp_14.keys,key_resp_14.rt,key_resp_15.keys,key_resp_15.rt,key_resp_17.keys,key_resp_17.rt,key_resp_9.keys,key_resp_9.rt,key_resp_10.keys,key_resp_10.rt,practice_comparison,Ecc,mouse_5.x,mouse_5.y,mouse_5.leftButton,mouse_5.midButton,mouse_5.rightButton,mouse_5.clicked_name,pracsimilarity,response_time,mouse_10.x,mouse_10.y,mouse_10.leftButton,mouse_10.midButton,mouse_10.rightButton,mouse_10.clicked_name,mouse_7.x,mouse_7.y,mouse_7.leftButton,mouse_7.midButton,mouse_7.rightButton,mouse_7.clicked_name,catchnumberprac,mouse_6.x,mouse_6.y,mouse_6.leftButton,mouse_6.midButton,mouse_6.rightButton,mouse_6.clicked_name,duringprac.thisRepN,duringprac.thisTrialN,duringprac.thisN,duringprac.thisIndex,duringprac.ran,participant,session,date,expName,psychopyVersion,OS,frameRate,study_id,,realcomparison,similarity,realcomparison,similarity,mouse_2.x,mouse_2.y,mouse_2.leftButton,mouse_2.midButton,mouse_2.rightButton,mouse_2.clicked_name,mouse_3.x,mouse_3.y,mouse_3.leftButton,mouse_3.midButton,mouse_3.rightButton,catchnumber,catchtrialorder,mouse_11.x,mouse_11.y,mouse_11.leftButton,mouse_11.midButton,mouse_11.rightButton,trials_2.thisRepN,trials_2.thisTrialN,trials_2.thisN,trials_2.thisIndex,trials_2.ran,Colour1,mouse_3.clicked_name,mouse_11.clicked_name
space,2.501,space,9.668,space,30.885,space,2.626,space,1.293,space,2.788,68,FF,229.5,116.5,1,0,0,response1disk_5,6,10.671,-23.5,-6.5,1,0,0,rectangle_8,-80.5,229.5,1,0,0,response7disk_7,0,-3.5,-0.5,1,0,0,rectangle_4,0,0,0,3,1,5c5cad3e4ee81200018eafe2,60a7d8a0e00e07df34c64a83,2021-05-21_17h00.15.713,Simcolourproject_2stim_asymm_v5,2020.2.10,Win32,60,60a5f9bf14d0aa2821c4bb84,,,,,,,,,,,,,,,,,,,,,,,,,,,,,,,
,,,,,,,,,,,,88,PF,163.5,249.5,1,0,0,response1disk_5,7,4.05,-20.5,23.5,1,0,0,rectangle_8,-20.5,23.5,1,0,0,,0,-20.5,23.5,1,0,0,,0,1,1,4,1,5c5cad3e4ee81200018eafe2,60a7d8a0e00e07df34c64a83,2021-05-21_17h00.15.713,Simcolourproject_2stim_asymm_v5,2020.2.10,Win32,60,60a5f9bf14d0aa2821c4bb84,,,,,,,,,,,,,,,,,,,,,,,,,,,,,,,
,,,,,,,,,,,,76,FF,256.5,-110.5,1,0,0,response3disk_5,5,4.55,-16.5,-20.5,1,0,0,rectangle_8,-156.5,263.5,1,0,0,response7disk_7,0,9.5,-30.5,1,0,0,rectangle_4,0,2,2,5,1,5c5cad3e4ee81200018eafe2,60a7d8a0e00e07df34c64a83,2021-05-21_17h00.15.713,Simcolourproject_2stim_asymm_v5,2020.2.10,Win32,60,60a5f9bf14d0aa2821c4bb84,,,,,,,,,,,,,,,,,,,,,,,,,,,,,,,
,,,,,,,,,,,,32,PF,156.5,-296.5,1,0,0,response3disk_5,4,4.261,-3.5,6.5,1,0,0,rectangle_8,-3.5,6.5,1,0,0,,0,-3.5,6.5,1,0,0,,0,3,3,6,1,5c5cad3e4ee81200018eafe2,60a7d8a0e00e07df34c64a83,2021-05-21_17h00.15.713,Simcolourproject_2stim_asymm_v5,2020.2.10,Win32,60,60a5f9bf14d0aa2821c4bb84,,,,,,,,,,,,,,,,,,,,,,,,,,,,,,,
,,,,,,,,,,,,35,PF,146.5,279.5,1,0,0,response1disk_5,7,1.8,3.5,6.5,1,0,0,rectangle_8,3.5,6.5,1,0,0,,0,3.5,6.5,1,0,0,,0,4,4,2,1,5c5cad3e4ee81200018eafe2,60a7d8a0e00e07df34c64a83,2021-05-21_17h00.15.713,Simcolourproject_2stim_asymm_v5,2020.2.10,Win32,60,60a5f9bf14d0aa2821c4bb84,,,,,,,,,,,,,,,,,,,,,,,,,,,,,,,
,,,,,,,,,,,,2,FF,109.5,-326.5,1,0,0,response3disk_5,4,2.1,-26.5,-3.5,1,0,0,rectangle_8,-26.5,-3.5,1,0,0,,0,-26.5,-3.5,1,0,0,,0,5,5,0,1,5c5cad3e4ee81200018eafe2,60a7d8a0e00e07df34c64a83,2021-05-21_17h00.15.713,Simcolourproject_2stim_asymm_v5,2020.2.10,Win32,60,60a5f9bf14d0aa2821c4bb84,,,,,,,,,,,,,,,,,,,,,,,,,,,,,,,
,,,,,,,,,,,,159,PF,189.5,286.5,1,0,0,response1disk_5,7,1.651,6.5,-13.5,1,0,0,rectangle_8,6.5,-13.5,1,0,0,,0,6.5,-13.5,1,0,0,,0,6,6,1,1,5c5cad3e4ee81200018eafe2,60a7d8a0e00e07df34c64a83,2021-05-21_17h00.15.713,Simcolourproject_2stim_asymm_v5,2020.2.10,Win32,60,60a5f9bf14d0aa2821c4bb84,,,,,,,,,,,,,,,,,,,,,,,,,,,,,,,
,,,,,,,,,,,,,FF,,,,,,,,1.746,,,,,,,,,,,,,,,,,,,,,,,,,5c5cad3e4ee81200018eafe2,60a7d8a0e00e07df34c64a83,2021-05-21_17h00.15.713,Simcolourproject_2stim_asymm_v5,2020.2.10,Win32,60,60a5f9bf14d0aa2821c4bb84,1,2458,7,2458,7,46.5,9.5,1,0,0,rectangle,46.5,9.5,1,0,0,0,"[71,135,167,160,183,133,22,49,147,141,109,62,281,40,58,188,125,148,200,19]",46.5,9.5,1,0,0,0,0,0,77,1,,,
,,,,,,,,,,,,,FF,,,,,,,,2.121,,,,,,,,,,,,,,,,,,,,,,,,,5c5cad3e4ee81200018eafe2,60a7d8a0e00e07df34c64a83,2021-05-21_17h00.15.713,Simcolourproject_2stim_asymm_v5,2020.2.10,Win32,60,60a5f9bf14d0aa2821c4bb84,2,3632,7,3632,7,23.5,-3.5,1,0,0,rectangle,23.5,-3.5,1,0,0,4,"[71,135,167,160,183,133,22,49,147,141,109,62,281,40,58,188,125,148,200,19]",23.5,-3.5,1,0,0,0,1,1,124,1,,,
,,,,,,,,,,,,,FF,,,,,,,,2.65,,,,,,,,,,,,,,,,,,,,,,,,,5c5cad3e4ee81200018eafe2,60a7d8a0e00e07df34c64a83,2021-05-21_17h00.15.713,Simcolourproject_2stim_asymm_v5,2020.2.10,Win32,60,60a5f9bf14d0aa2821c4bb84,3,3676,4,3676,4,3.5,-6.5,1,0,0,rectangle,3.5,-6.5,1,0,0,0,"[71,135,167,160,183,133,22,49,147,141,109,62,281,40,58,188,125,148,200,19]",3.5,-6.5,1,0,0,0,2,2,11,1,,,
,,,,,,,,,,,,,FF,,,,,,,,1.931,,,,,,,,,,,,,,,,,,,,,,,,,5c5cad3e4ee81200018eafe2,60a7d8a0e00e07df34c64a83,2021-05-21_17h00.15.713,Simcolourproject_2stim_asymm_v5,2020.2.10,Win32,60,60a5f9bf14d0aa2821c4bb84,4,3374,3,3374,3,33.5,16.5,1,0,0,rectangle,33.5,16.5,1,0,0,6,"[71,135,167,160,183,133,22,49,147,141,109,62,281,40,58,188,125,148,200,19]",33.5,16.5,1,0,0,0,3,3,76,1,,,
,,,,,,,,,,,,,FF,,,,,,,,1.719,,,,,,,,,,,,,,,,,,,,,,,,,5c5cad3e4ee81200018eafe2,60a7d8a0e00e07df34c64a83,2021-05-21_17h00.15.713,Simcolourproject_2stim_asymm_v5,2020.2.10,Win32,60,60a5f9bf14d0aa2821c4bb84,5,2681,5,2681,5,6.5,-3.5,1,0,0,rectangle,6.5,-3.5,1,0,0,0,"[71,135,167,160,183,133,22,49,147,141,109,62,281,40,58,188,125,148,200,19]",6.5,-3.5,1,0,0,0,4,4,118,1,,,
,,,,,,,,,,,,,FF,,,,,,,,1.921,,,,,,,,,,,,,,,,,,,,,,,,,5c5cad3e4ee81200018eafe2,60a7d8a0e00e07df34c64a83,2021-05-21_17h00.15.713,Simcolourproject_2stim_asymm_v5,2020.2.10,Win32,60,60a5f9bf14d0aa2821c4bb84,6,391,7,391,7,23.5,-0.5,1,0,0,rectangle,23.5,-0.5,1,0,0,2,"[71,135,167,160,183,133,22,49,147,141,109,62,281,40,58,188,125,148,200,19]",23.5,-0.5,1,0,0,0,5,5,137,1,,,
,,,,,,,,,,,,,FF,,,,,,,,2.181,,,,,,,,,,,,,,,,,,,,,,,,,5c5cad3e4ee81200018eafe2,60a7d8a0e00e07df34c64a83,2021-05-21_17h00.15.713,Simcolourproject_2stim_asymm_v5,2020.2.10,Win32,60,60a5f9bf14d0aa2821c4bb84,7,3245,3,3245,3,26.5,9.5,1,0,0,rectangle,26.5,9.5,1,0,0,4,"[71,135,167,160,183,133,22,49,147,141,109,62,281,40,58,188,125,148,200,19]",26.5,9.5,1,0,0,0,6,6,32,1,,,
,,,,,,,,,,,,,FF,,,,,,,,1.73,,,,,,,,,,,,,,,,,,,,,,,,,5c5cad3e4ee81200018eafe2,60a7d8a0e00e07df34c64a83,2021-05-21_17h00.15.713,Simcolourproject_2stim_asymm_v5,2020.2.10,Win32,60,60a5f9bf14d0aa2821c4bb84,8,740,5,740,5,-16.5,-3.5,1,0,0,rectangle,-16.5,-3.5,1,0,0,2,"[71,135,167,160,183,133,22,49,147,141,109,62,281,40,58,188,125,148,200,19]",-16.5,-3.5,1,0,0,0,7,7,6,1,,,
,,,,,,,,,,,,,FF,,,,,,,,1.62,,,,,,,,,,,,,,,,,,,,,,,,,5c5cad3e4ee81200018eafe2,60a7d8a0e00e07df34c64a83,2021-05-21_17h00.15.713,Simcolourproject_2stim_asymm_v5,2020.2.10,Win32,60,60a5f9bf14d0aa2821c4bb84,9,3832,5,3832,5,43.5,-0.5,1,0,0,rectangle,43.5,-0.5,1,0,0,0,"[71,135,167,160,183,133,22,49,147,141,109,62,281,40,58,188,125,148,200,19]",43.5,-0.5,1,0,0,0,8,8,24,1,,,
,,,,,,,,,,,,,FF,,,,,,,,1.95,,,,,,,,,,,,,,,,,,,,,,,,,5c5cad3e4ee81200018eafe2,60a7d8a0e00e07df34c64a83,2021-05-21_17h00.15.713,Simcolourproject_2stim_asymm_v5,2020.2.10,Win32,60,60a5f9bf14d0aa2821c4bb84,10,3006,4,3006,4,26.5,-20.5,1,0,0,rectangle,26.5,-20.5,1,0,0,4,"[71,135,167,160,183,133,22,49,147,141,109,62,281,40,58,188,125,148,200,19]",26.5,-20.5,1,0,0,0,9,9,1,1,,,
,,,,,,,,,,,,,FF,,,,,,,,1.266,,,,,,,,,,,,,,,,,,,,,,,,,5c5cad3e4ee81200018eafe2,60a7d8a0e00e07df34c64a83,2021-05-21_17h00.15.713,Simcolourproject_2stim_asymm_v5,2020.2.10,Win32,60,60a5f9bf14d0aa2821c4bb84,11,3183,7,3183,7,33.5,3.5,1,0,0,rectangle,33.5,3.5,1,0,0,4,"[71,135,167,160,183,133,22,49,147,141,109,62,281,40,58,188,125,148,200,19]",33.5,3.5,1,0,0,0,10,10,134,1,,,
,,,,,,,,,,,,,FF,,,,,,,,0.83,,,,,,,,,,,,,,,,,,,,,,,,,5c5cad3e4ee81200018eafe2,60a7d8a0e00e07df34c64a83,2021-05-21_17h00.15.713,Simcolourproject_2stim_asymm_v5,2020.2.10,Win32,60,60a5f9bf14d0aa2821c4bb84,12,1929,7,1929,7,26.5,3.5,1,0,0,rectangle,26.5,3.5,1,0,0,3,"[71,135,167,160,183,133,22,49,147,141,109,62,281,40,58,188,125,148,200,19]",26.5,3.5,1,0,0,0,11,11,128,1,,,
,,,,,,,,,,,,,FF,,,,,,,,1.73,,,,,,,,,,,,,,,,,,,,,,,,,5c5cad3e4ee81200018eafe2,60a7d8a0e00e07df34c64a83,2021-05-21_17h00.15.713,Simcolourproject_2stim_asymm_v5,2020.2.10,Win32,60,60a5f9bf14d0aa2821c4bb84,13,2417,7,2417,7,13.5,-26.5,1,0,0,rectangle,13.5,-26.5,1,0,0,5,"[71,135,167,160,183,133,22,49,147,141,109,62,281,40,58,188,125,148,200,19]",13.5,-26.5,1,0,0,0,12,12,55,1,,,
,,,,,,,,,,,,,FF,,,,,,,,1.771,,,,,,,,,,,,,,,,,,,,,,,,,5c5cad3e4ee81200018eafe2,60a7d8a0e00e07df34c64a83,2021-05-21_17h00.15.713,Simcolourproject_2stim_asymm_v5,2020.2.10,Win32,60,60a5f9bf14d0aa2821c4bb84,14,4327,0,4327,0,3.5,9.5,1,0,0,rectangle,3.5,9.5,1,0,0,0,"[71,135,167,160,183,133,22,49,147,141,109,62,281,40,58,188,125,148,200,19]",3.5,9.5,1,0,0,0,13,13,103,1,,,
,,,,,,,,,,,,,FF,,,,,,,,1.901,,,,,,,,,,,,,,,,,,,,,,,,,5c5cad3e4ee81200018eafe2,60a7d8a0e00e07df34c64a83,2021-05-21_17h00.15.713,Simcolourproject_2stim_asymm_v5,2020.2.10,Win32,60,60a5f9bf14d0aa2821c4bb84,15,1416,6,1416,6,9.5,19.5,1,0,0,rectangle,9.5,19.5,1,0,0,4,"[71,135,167,160,183,133,22,49,147,141,109,62,281,40,58,188,125,148,200,19]",9.5,19.5,1,0,0,0,14,14,159,1,,,
,,,,,,,,,,,,,FF,,,,,,,,1,,,,,,,,,,,,,,,,,,,,,,,,,5c5cad3e4ee81200018eafe2,60a7d8a0e00e07df34c64a83,2021-05-21_17h00.15.713,Simcolourproject_2stim_asymm_v5,2020.2.10,Win32,60,60a5f9bf14d0aa2821c4bb84,16,3027,7,3027,7,6.5,9.5,1,0,0,rectangle,6.5,9.5,1,0,0,7,"[71,135,167,160,183,133,22,49,147,141,109,62,281,40,58,188,125,148,200,19]",6.5,9.5,1,0,0,0,15,15,57,1,,,
,,,,,,,,,,,,,FF,,,,,,,,3.8,,,,,,,,,,,,,,,,,,,,,,,,,5c5cad3e4ee81200018eafe2,60a7d8a0e00e07df34c64a83,2021-05-21_17h00.15.713,Simcolourproject_2stim_asymm_v5,2020.2.10,Win32,60,60a5f9bf14d0aa2821c4bb84,17,2837,4,2837,4,9.5,-3.5,1,0,0,rectangle,9.5,-3.5,1,0,0,6,"[71,135,167,160,183,133,22,49,147,141,109,62,281,40,58,188,125,148,200,19]",9.5,-3.5,1,0,0,0,16,16,59,1,,,
,,,,,,,,,,,,,FF,,,,,,,,1.449,,,,,,,,,,,,,,,,,,,,,,,,,5c5cad3e4ee81200018eafe2,60a7d8a0e00e07df34c64a83,2021-05-21_17h00.15.713,Simcolourproject_2stim_asymm_v5,2020.2.10,Win32,60,60a5f9bf14d0aa2821c4bb84,18,2862,6,2862,6,13.5,16.5,1,0,0,rectangle,13.5,16.5,1,0,0,7,"[71,135,167,160,183,133,22,49,147,141,109,62,281,40,58,188,125,148,200,19]",13.5,16.5,1,0,0,0,17,17,113,1,,,
,,,,,,,,,,,,,FF,,,,,,,,1.12,,,,,,,,,,,,,,,,,,,,,,,,,5c5cad3e4ee81200018eafe2,60a7d8a0e00e07df34c64a83,2021-05-21_17h00.15.713,Simcolourproject_2stim_asymm_v5,2020.2.10,Win32,60,60a5f9bf14d0aa2821c4bb84,19,3313,7,3313,7,3.5,-13.5,1,0,0,rectangle,-143.5,253.5,1,0,0,0,"[71,135,167,160,183,133,22,49,147,141,109,62,281,40,58,188,125,148,200,19]",9.5,16.5,1,0,0,0,18,18,75,1,,response7disk_3,rectangle
,,,,,,,,,,,,,FF,,,,,,,,1.45,,,,,,,,,,,,,,,,,,,,,,,,,5c5cad3e4ee81200018eafe2,60a7d8a0e00e07df34c64a83,2021-05-21_17h00.15.713,Simcolourproject_2stim_asymm_v5,2020.2.10,Win32,60,60a5f9bf14d0aa2821c4bb84,20,3794,4,3794,4,-13.5,9.5,1,0,0,rectangle,-13.5,9.5,1,0,0,7,"[71,135,167,160,183,133,22,49,147,141,109,62,281,40,58,188,125,148,200,19]",-13.5,9.5,1,0,0,0,19,19,142,1,,,
,,,,,,,,,,,,,FF,,,,,,,,1.121,,,,,,,,,,,,,,,,,,,,,,,,,5c5cad3e4ee81200018eafe2,60a7d8a0e00e07df34c64a83,2021-05-21_17h00.15.713,Simcolourproject_2stim_asymm_v5,2020.2.10,Win32,60,60a5f9bf14d0aa2821c4bb84,21,2860,6,2860,6,26.5,19.5,1,0,0,rectangle,26.5,19.5,1,0,0,7,"[71,135,167,160,183,133,22,49,147,141,109,62,281,40,58,188,125,148,200,19]",26.5,19.5,1,0,0,0,20,20,4,1,,,
,,,,,,,,,,,,,FF,,,,,,,,0.9,,,,,,,,,,,,,,,,,,,,,,,,,5c5cad3e4ee81200018eafe2,60a7d8a0e00e07df34c64a83,2021-05-21_17h00.15.713,Simcolourproject_2stim_asymm_v5,2020.2.10,Win32,60,60a5f9bf14d0aa2821c4bb84,22,692,6,692,6,13.5,9.5,1,0,0,rectangle,269.5,133.5,1,0,0,6,"[71,135,167,160,183,133,22,49,147,141,109,62,281,40,58,188,125,148,200,19]",-3.5,9.5,1,0,0,0,21,21,86,1,,response1disk_3,rectangle
,,,,,,,,,,,,,FF,,,,,,,,1.383,,,,,,,,,,,,,,,,,,,,,,,,,5c5cad3e4ee81200018eafe2,60a7d8a0e00e07df34c64a83,2021-05-21_17h00.15.713,Simcolourproject_2stim_asymm_v5,2020.2.10,Win32,60,60a5f9bf14d0aa2821c4bb84,23,2558,6,2558,6,33.5,16.5,1,0,0,rectangle,33.5,16.5,1,0,0,2,"[71,135,167,160,183,133,22,49,147,141,109,62,281,40,58,188,125,148,200,19]",33.5,16.5,1,0,0,0,22,22,13,1,,,
,,,,,,,,,,,,,FF,,,,,,,,0.95,,,,,,,,,,,,,,,,,,,,,,,,,5c5cad3e4ee81200018eafe2,60a7d8a0e00e07df34c64a83,2021-05-21_17h00.15.713,Simcolourproject_2stim_asymm_v5,2020.2.10,Win32,60,60a5f9bf14d0aa2821c4bb84,24,3500,7,3500,7,3.5,-0.5,1,0,0,rectangle,3.5,-0.5,1,0,0,6,"[71,135,167,160,183,133,22,49,147,141,109,62,281,40,58,188,125,148,200,19]",3.5,-0.5,1,0,0,0,23,23,27,1,,,
,,,,,,,,,,,,,FF,,,,,,,,2.35,,,,,,,,,,,,,,,,,,,,,,,,,5c5cad3e4ee81200018eafe2,60a7d8a0e00e07df34c64a83,2021-05-21_17h00.15.713,Simcolourproject_2stim_asymm_v5,2020.2.10,Win32,60,60a5f9bf14d0aa2821c4bb84,25,3049,3,3049,3,23.5,9.5,1,0,0,rectangle,23.5,9.5,1,0,0,6,"[71,135,167,160,183,133,22,49,147,141,109,62,281,40,58,188,125,148,200,19]",23.5,9.5,1,0,0,0,24,24,78,1,,,
,,,,,,,,,,,,,FF,,,,,,,,1.43,,,,,,,,,,,,,,,,,,,,,,,,,5c5cad3e4ee81200018eafe2,60a7d8a0e00e07df34c64a83,2021-05-21_17h00.15.713,Simcolourproject_2stim_asymm_v5,2020.2.10,Win32,60,60a5f9bf14d0aa2821c4bb84,26,1291,3,1291,3,19.5,-6.5,1,0,0,rectangle,19.5,-6.5,1,0,0,3,"[71,135,167,160,183,133,22,49,147,141,109,62,281,40,58,188,125,148,200,19]",19.5,-6.5,1,0,0,0,25,25,147,1,,,
,,,,,,,,,,,,,FF,,,,,,,,1.2,,,,,,,,,,,,,,,,,,,,,,,,,5c5cad3e4ee81200018eafe2,60a7d8a0e00e07df34c64a83,2021-05-21_17h00.15.713,Simcolourproject_2stim_asymm_v5,2020.2.10,Win32,60,60a5f9bf14d0aa2821c4bb84,27,2416,4,2416,4,9.5,-6.5,1,0,0,rectangle,9.5,-6.5,1,0,0,2,"[71,135,167,160,183,133,22,49,147,141,109,62,281,40,58,188,125,148,200,19]",9.5,-6.5,1,0,0,0,26,26,151,1,,,
,,,,,,,,,,,,,FF,,,,,,,,2.379,,,,,,,,,,,,,,,,,,,,,,,,,5c5cad3e4ee81200018eafe2,60a7d8a0e00e07df34c64a83,2021-05-21_17h00.15.713,Simcolourproject_2stim_asymm_v5,2020.2.10,Win32,60,60a5f9bf14d0aa2821c4bb84,28,2533,4,2533,4,9.5,-10.5,1,0,0,rectangle,9.5,-10.5,1,0,0,3,"[71,135,167,160,183,133,22,49,147,141,109,62,281,40,58,188,125,148,200,19]",9.5,-10.5,1,0,0,0,27,27,43,1,,,
,,,,,,,,,,,,,FF,,,,,,,,2.681,,,,,,,,,,,,,,,,,,,,,,,,,5c5cad3e4ee81200018eafe2,60a7d8a0e00e07df34c64a83,2021-05-21_17h00.15.713,Simcolourproject_2stim_asymm_v5,2020.2.10,Win32,60,60a5f9bf14d0aa2821c4bb84,29,1961,3,1961,3,13.5,-0.5,1,0,0,rectangle,13.5,-0.5,1,0,0,0,"[71,135,167,160,183,133,22,49,147,141,109,62,281,40,58,188,125,148,200,19]",13.5,-0.5,1,0,0,0,28,28,10,1,,,
,,,,,,,,,,,,,FF,,,,,,,,1.201,,,,,,,,,,,,,,,,,,,,,,,,,5c5cad3e4ee81200018eafe2,60a7d8a0e00e07df34c64a83,2021-05-21_17h00.15.713,Simcolourproject_2stim_asymm_v5,2020.2.10,Win32,60,60a5f9bf14d0aa2821c4bb84,30,42,5,42,5,-0.5,-13.5,1,0,0,rectangle,-0.5,-13.5,1,0,0,3,"[71,135,167,160,183,133,22,49,147,141,109,62,281,40,58,188,125,148,200,19]",-0.5,-13.5,1,0,0,0,29,29,98,1,,,
,,,,,,,,,,,,,FF,,,,,,,,1.629,,,,,,,,,,,,,,,,,,,,,,,,,5c5cad3e4ee81200018eafe2,60a7d8a0e00e07df34c64a83,2021-05-21_17h00.15.713,Simcolourproject_2stim_asymm_v5,2020.2.10,Win32,60,60a5f9bf14d0aa2821c4bb84,31,1622,6,1622,6,19.5,16.5,1,0,0,rectangle,19.5,16.5,1,0,0,1,"[71,135,167,160,183,133,22,49,147,141,109,62,281,40,58,188,125,148,200,19]",19.5,16.5,1,0,0,0,30,30,71,1,,,
,,,,,,,,,,,,,FF,,,,,,,,1.1,,,,,,,,,,,,,,,,,,,,,,,,,5c5cad3e4ee81200018eafe2,60a7d8a0e00e07df34c64a83,2021-05-21_17h00.15.713,Simcolourproject_2stim_asymm_v5,2020.2.10,Win32,60,60a5f9bf14d0aa2821c4bb84,32,708,7,708,7,19.5,3.5,1,0,0,rectangle,19.5,3.5,1,0,0,2,"[71,135,167,160,183,133,22,49,147,141,109,62,281,40,58,188,125,148,200,19]",19.5,3.5,1,0,0,0,31,31,99,1,,,
,,,,,,,,,,,,,FF,,,,,,,,2.051,,,,,,,,,,,,,,,,,,,,,,,,,5c5cad3e4ee81200018eafe2,60a7d8a0e00e07df34c64a83,2021-05-21_17h00.15.713,Simcolourproject_2stim_asymm_v5,2020.2.10,Win32,60,60a5f9bf14d0aa2821c4bb84,33,435,3,435,3,13.5,6.5,1,0,0,rectangle,13.5,6.5,1,0,0,3,"[71,135,167,160,183,133,22,49,147,141,109,62,281,40,58,188,125,148,200,19]",13.5,6.5,1,0,0,0,32,32,2,1,,,
,,,,,,,,,,,,,FF,,,,,,,,1.22,,,,,,,,,,,,,,,,,,,,,,,,,5c5cad3e4ee81200018eafe2,60a7d8a0e00e07df34c64a83,2021-05-21_17h00.15.713,Simcolourproject_2stim_asymm_v5,2020.2.10,Win32,60,60a5f9bf14d0aa2821c4bb84,34,951,4,951,4,13.5,-26.5,1,0,0,rectangle,13.5,-26.5,1,0,0,5,"[71,135,167,160,183,133,22,49,147,141,109,62,281,40,58,188,125,148,200,19]",13.5,-26.5,1,0,0,0,33,33,31,1,,,
,,,,,,,,,,,,,FF,,,,,,,,1.48,,,,,,,,,,,,,,,,,,,,,,,,,5c5cad3e4ee81200018eafe2,60a7d8a0e00e07df34c64a83,2021-05-21_17h00.15.713,Simcolourproject_2stim_asymm_v5,2020.2.10,Win32,60,60a5f9bf14d0aa2821c4bb84,35,3634,6,3634,6,-3.5,9.5,1,0,0,rectangle,-3.5,9.5,1,0,0,6,"[71,135,167,160,183,133,22,49,147,141,109,62,281,40,58,188,125,148,200,19]",-3.5,9.5,1,0,0,0,34,34,136,1,,,
,,,,,,,,,,,,,FF,,,,,,,,0.881,,,,,,,,,,,,,,,,,,,,,,,,,5c5cad3e4ee81200018eafe2,60a7d8a0e00e07df34c64a83,2021-05-21_17h00.15.713,Simcolourproject_2stim_asymm_v5,2020.2.10,Win32,60,60a5f9bf14d0aa2821c4bb84,36,2331,7,2331,7,26.5,-3.5,1,0,0,rectangle,26.5,-3.5,1,0,0,3,"[71,135,167,160,183,133,22,49,147,141,109,62,281,40,58,188,125,148,200,19]",26.5,-3.5,1,0,0,0,35,35,138,1,,,
,,,,,,,,,,,,,FF,,,,,,,,2.02,,,,,,,,,,,,,,,,,,,,,,,,,5c5cad3e4ee81200018eafe2,60a7d8a0e00e07df34c64a83,2021-05-21_17h00.15.713,Simcolourproject_2stim_asymm_v5,2020.2.10,Win32,60,60a5f9bf14d0aa2821c4bb84,37,4164,4,4164,4,3.5,-26.5,1,0,0,rectangle,3.5,-26.5,1,0,0,2,"[71,135,167,160,183,133,22,49,147,141,109,62,281,40,58,188,125,148,200,19]",3.5,-26.5,1,0,0,0,36,36,145,1,,,
,,,,,,,,,,,,,FF,,,,,,,,1.102,,,,,,,,,,,,,,,,,,,,,,,,,5c5cad3e4ee81200018eafe2,60a7d8a0e00e07df34c64a83,2021-05-21_17h00.15.713,Simcolourproject_2stim_asymm_v5,2020.2.10,Win32,60,60a5f9bf14d0aa2821c4bb84,38,319,6,319,6,29.5,13.5,1,0,0,rectangle,29.5,13.5,1,0,0,5,"[71,135,167,160,183,133,22,49,147,141,109,62,281,40,58,188,125,148,200,19]",29.5,13.5,1,0,0,0,37,37,110,1,,,
,,,,,,,,,,,,,FF,,,,,,,,0.8,,,,,,,,,,,,,,,,,,,,,,,,,5c5cad3e4ee81200018eafe2,60a7d8a0e00e07df34c64a83,2021-05-21_17h00.15.713,Simcolourproject_2stim_asymm_v5,2020.2.10,Win32,60,60a5f9bf14d0aa2821c4bb84,39,2689,7,2689,7,-3.5,-3.5,1,0,0,rectangle,-3.5,-3.5,1,0,0,2,"[71,135,167,160,183,133,22,49,147,141,109,62,281,40,58,188,125,148,200,19]",-3.5,-3.5,1,0,0,0,38,38,111,1,,,
,,,,,,,,,,,,,FF,,,,,,,,1.47,,,,,,,,,,,,,,,,,,,,,,,,,5c5cad3e4ee81200018eafe2,60a7d8a0e00e07df34c64a83,2021-05-21_17h00.15.713,Simcolourproject_2stim_asymm_v5,2020.2.10,Win32,60,60a5f9bf14d0aa2821c4bb84,40,1209,7,1209,7,9.5,-30.5,1,0,0,rectangle,239.5,-120.5,1,0,0,5,"[71,135,167,160,183,133,22,49,147,141,109,62,281,40,58,188,125,148,200,19]",-36.5,-13.5,1,0,0,0,39,39,108,1,,response3disk_3,rectangle
,,,,,,,,,,,,,FF,,,,,,,,0.851,,,,,,,,,,,,,,,,,,,,,,,,,5c5cad3e4ee81200018eafe2,60a7d8a0e00e07df34c64a83,2021-05-21_17h00.15.713,Simcolourproject_2stim_asymm_v5,2020.2.10,Win32,60,60a5f9bf14d0aa2821c4bb84,41,3289,7,3289,7,-6.5,16.5,1,0,0,rectangle,-6.5,16.5,1,0,0,6,"[71,135,167,160,183,133,22,49,147,141,109,62,281,40,58,188,125,148,200,19]",-6.5,16.5,1,0,0,0,40,40,125,1,,,
,,,,,,,,,,,,,FF,,,,,,,,0.97,,,,,,,,,,,,,,,,,,,,,,,,,5c5cad3e4ee81200018eafe2,60a7d8a0e00e07df34c64a83,2021-05-21_17h00.15.713,Simcolourproject_2stim_asymm_v5,2020.2.10,Win32,60,60a5f9bf14d0aa2821c4bb84,42,514,7,514,7,-33.5,-6.5,1,0,0,rectangle,-33.5,-6.5,1,0,0,1,"[71,135,167,160,183,133,22,49,147,141,109,62,281,40,58,188,125,148,200,19]",-33.5,-6.5,1,0,0,0,41,41,58,1,,,
,,,,,,,,,,,,,FF,,,,,,,,1.801,,,,,,,,,,,,,,,,,,,,,,,,,5c5cad3e4ee81200018eafe2,60a7d8a0e00e07df34c64a83,2021-05-21_17h00.15.713,Simcolourproject_2stim_asymm_v5,2020.2.10,Win32,60,60a5f9bf14d0aa2821c4bb84,43,3248,3,3248,3,-0.5,3.5,1,0,0,rectangle,-0.5,3.5,1,0,0,3,"[71,135,167,160,183,133,22,49,147,141,109,62,281,40,58,188,125,148,200,19]",-0.5,3.5,1,0,0,0,42,42,155,1,,,
,,,,,,,,,,,,,FF,,,,,,,,1.379,,,,,,,,,,,,,,,,,,,,,,,,,5c5cad3e4ee81200018eafe2,60a7d8a0e00e07df34c64a83,2021-05-21_17h00.15.713,Simcolourproject_2stim_asymm_v5,2020.2.10,Win32,60,60a5f9bf14d0aa2821c4bb84,44,643,5,643,5,-3.5,-16.5,1,0,0,rectangle,-3.5,-16.5,1,0,0,2,"[71,135,167,160,183,133,22,49,147,141,109,62,281,40,58,188,125,148,200,19]",-3.5,-16.5,1,0,0,0,43,43,107,1,,,
,,,,,,,,,,,,,FF,,,,,,,,2.12,,,,,,,,,,,,,,,,,,,,,,,,,5c5cad3e4ee81200018eafe2,60a7d8a0e00e07df34c64a83,2021-05-21_17h00.15.713,Simcolourproject_2stim_asymm_v5,2020.2.10,Win32,60,60a5f9bf14d0aa2821c4bb84,45,1970,3,1970,3,3.5,-3.5,1,0,0,rectangle,3.5,-3.5,1,0,0,4,"[71,135,167,160,183,133,22,49,147,141,109,62,281,40,58,188,125,148,200,19]",3.5,-3.5,1,0,0,0,44,44,122,1,,,
,,,,,,,,,,,,,FF,,,,,,,,1.329,,,,,,,,,,,,,,,,,,,,,,,,,5c5cad3e4ee81200018eafe2,60a7d8a0e00e07df34c64a83,2021-05-21_17h00.15.713,Simcolourproject_2stim_asymm_v5,2020.2.10,Win32,60,60a5f9bf14d0aa2821c4bb84,46,3611,5,3611,5,6.5,19.5,1,0,0,rectangle,6.5,19.5,1,0,0,4,"[71,135,167,160,183,133,22,49,147,141,109,62,281,40,58,188,125,148,200,19]",6.5,19.5,1,0,0,0,45,45,36,1,,,
,,,,,,,,,,,,,FF,,,,,,,,1.67,,,,,,,,,,,,,,,,,,,,,,,,,5c5cad3e4ee81200018eafe2,60a7d8a0e00e07df34c64a83,2021-05-21_17h00.15.713,Simcolourproject_2stim_asymm_v5,2020.2.10,Win32,60,60a5f9bf14d0aa2821c4bb84,47,785,5,785,5,-13.5,-6.5,1,0,0,rectangle,-13.5,-6.5,1,0,0,6,"[71,135,167,160,183,133,22,49,147,141,109,62,281,40,58,188,125,148,200,19]",-13.5,-6.5,1,0,0,0,46,46,82,1,,,
,,,,,,,,,,,,,FF,,,,,,,,1.532,,,,,,,,,,,,,,,,,,,,,,,,,5c5cad3e4ee81200018eafe2,60a7d8a0e00e07df34c64a83,2021-05-21_17h00.15.713,Simcolourproject_2stim_asymm_v5,2020.2.10,Win32,60,60a5f9bf14d0aa2821c4bb84,48,3898,4,3898,4,-26.5,16.5,1,0,0,rectangle,-26.5,16.5,1,0,0,5,"[71,135,167,160,183,133,22,49,147,141,109,62,281,40,58,188,125,148,200,19]",-26.5,16.5,1,0,0,0,47,47,115,1,,,
,,,,,,,,,,,,,FF,,,,,,,,1.299,,,,,,,,,,,,,,,,,,,,,,,,,5c5cad3e4ee81200018eafe2,60a7d8a0e00e07df34c64a83,2021-05-21_17h00.15.713,Simcolourproject_2stim_asymm_v5,2020.2.10,Win32,60,60a5f9bf14d0aa2821c4bb84,49,1011,6,1011,6,23.5,9.5,1,0,0,rectangle,256.5,-123.5,1,0,0,5,"[71,135,167,160,183,133,22,49,147,141,109,62,281,40,58,188,125,148,200,19]",13.5,13.5,1,0,0,0,48,48,120,1,,response3disk_3,rectangle
,,,,,,,,,,,,,FF,,,,,,,,1.549,,,,,,,,,,,,,,,,,,,,,,,,,5c5cad3e4ee81200018eafe2,60a7d8a0e00e07df34c64a83,2021-05-21_17h00.15.713,Simcolourproject_2stim_asymm_v5,2020.2.10,Win32,60,60a5f9bf14d0aa2821c4bb84,50,949,6,949,6,16.5,-0.5,1,0,0,rectangle,16.5,-0.5,1,0,0,1,"[71,135,167,160,183,133,22,49,147,141,109,62,281,40,58,188,125,148,200,19]",16.5,-0.5,1,0,0,0,49,49,160,1,,,
,,,,,,,,,,,,,FF,,,,,,,,3.382,,,,,,,,,,,,,,,,,,,,,,,,,5c5cad3e4ee81200018eafe2,60a7d8a0e00e07df34c64a83,2021-05-21_17h00.15.713,Simcolourproject_2stim_asymm_v5,2020.2.10,Win32,60,60a5f9bf14d0aa2821c4bb84,51,2946,6,2946,6,9.5,9.5,1,0,0,rectangle,9.5,9.5,1,0,0,1,"[71,135,167,160,183,133,22,49,147,141,109,62,281,40,58,188,125,148,200,19]",9.5,9.5,1,0,0,0,50,50,67,1,,,
,,,,,,,,,,,,,FF,,,,,,,,2.151,,,,,,,,,,,,,,,,,,,,,,,,,5c5cad3e4ee81200018eafe2,60a7d8a0e00e07df34c64a83,2021-05-21_17h00.15.713,Simcolourproject_2stim_asymm_v5,2020.2.10,Win32,60,60a5f9bf14d0aa2821c4bb84,52,1591,5,1591,5,16.5,-0.5,1,0,0,rectangle,16.5,-0.5,1,0,0,1,"[71,135,167,160,183,133,22,49,147,141,109,62,281,40,58,188,125,148,200,19]",16.5,-0.5,1,0,0,0,51,51,48,1,,,
,,,,,,,,,,,,,FF,,,,,,,,3.201,,,,,,,,,,,,,,,,,,,,,,,,,5c5cad3e4ee81200018eafe2,60a7d8a0e00e07df34c64a83,2021-05-21_17h00.15.713,Simcolourproject_2stim_asymm_v5,2020.2.10,Win32,60,60a5f9bf14d0aa2821c4bb84,53,2797,6,2797,6,9.5,9.5,1,0,0,rectangle,9.5,9.5,1,0,0,4,"[71,135,167,160,183,133,22,49,147,141,109,62,281,40,58,188,125,148,200,19]",9.5,9.5,1,0,0,0,52,52,105,1,,,
,,,,,,,,,,,,,FF,,,,,,,,1.199,,,,,,,,,,,,,,,,,,,,,,,,,5c5cad3e4ee81200018eafe2,60a7d8a0e00e07df34c64a83,2021-05-21_17h00.15.713,Simcolourproject_2stim_asymm_v5,2020.2.10,Win32,60,60a5f9bf14d0aa2821c4bb84,54,2233,1,2233,1,3.5,6.5,1,0,0,rectangle,3.5,6.5,1,0,0,5,"[71,135,167,160,183,133,22,49,147,141,109,62,281,40,58,188,125,148,200,19]",3.5,6.5,1,0,0,0,53,53,90,1,,,
,,,,,,,,,,,,,FF,,,,,,,,1.2,,,,,,,,,,,,,,,,,,,,,,,,,5c5cad3e4ee81200018eafe2,60a7d8a0e00e07df34c64a83,2021-05-21_17h00.15.713,Simcolourproject_2stim_asymm_v5,2020.2.10,Win32,60,60a5f9bf14d0aa2821c4bb84,55,3972,1,3972,1,26.5,9.5,1,0,0,rectangle,26.5,9.5,1,0,0,5,"[71,135,167,160,183,133,22,49,147,141,109,62,281,40,58,188,125,148,200,19]",26.5,9.5,1,0,0,0,54,54,149,1,,,
,,,,,,,,,,,,,FF,,,,,,,,1.88,,,,,,,,,,,,,,,,,,,,,,,,,5c5cad3e4ee81200018eafe2,60a7d8a0e00e07df34c64a83,2021-05-21_17h00.15.713,Simcolourproject_2stim_asymm_v5,2020.2.10,Win32,60,60a5f9bf14d0aa2821c4bb84,56,310,6,310,6,19.5,-0.5,1,0,0,rectangle,19.5,-0.5,1,0,0,0,"[71,135,167,160,183,133,22,49,147,141,109,62,281,40,58,188,125,148,200,19]",19.5,-0.5,1,0,0,0,55,55,68,1,,,
,,,,,,,,,,,,,FF,,,,,,,,0.98,,,,,,,,,,,,,,,,,,,,,,,,,5c5cad3e4ee81200018eafe2,60a7d8a0e00e07df34c64a83,2021-05-21_17h00.15.713,Simcolourproject_2stim_asymm_v5,2020.2.10,Win32,60,60a5f9bf14d0aa2821c4bb84,57,497,6,497,6,3.5,-13.5,1,0,0,rectangle,3.5,-13.5,1,0,0,3,"[71,135,167,160,183,133,22,49,147,141,109,62,281,40,58,188,125,148,200,19]",3.5,-13.5,1,0,0,0,56,56,23,1,,,
,,,,,,,,,,,,,FF,,,,,,,,1.05,,,,,,,,,,,,,,,,,,,,,,,,,5c5cad3e4ee81200018eafe2,60a7d8a0e00e07df34c64a83,2021-05-21_17h00.15.713,Simcolourproject_2stim_asymm_v5,2020.2.10,Win32,60,60a5f9bf14d0aa2821c4bb84,58,401,7,401,7,26.5,-3.5,1,0,0,rectangle,-126.5,-303.5,1,0,0,3,"[71,135,167,160,183,133,22,49,147,141,109,62,281,40,58,188,125,148,200,19]",19.5,26.5,1,0,0,0,57,57,28,1,,response5disk_3,rectangle
,,,,,,,,,,,,,FF,,,,,,,,1.12,,,,,,,,,,,,,,,,,,,,,,,,,5c5cad3e4ee81200018eafe2,60a7d8a0e00e07df34c64a83,2021-05-21_17h00.15.713,Simcolourproject_2stim_asymm_v5,2020.2.10,Win32,60,60a5f9bf14d0aa2821c4bb84,59,1570,5,1570,5,16.5,39.5,1,0,0,rectangle,16.5,39.5,1,0,0,4,"[71,135,167,160,183,133,22,49,147,141,109,62,281,40,58,188,125,148,200,19]",16.5,39.5,1,0,0,0,58,58,130,1,,,
,,,,,,,,,,,,,FF,,,,,,,,1.38,,,,,,,,,,,,,,,,,,,,,,,,,5c5cad3e4ee81200018eafe2,60a7d8a0e00e07df34c64a83,2021-05-21_17h00.15.713,Simcolourproject_2stim_asymm_v5,2020.2.10,Win32,60,60a5f9bf14d0aa2821c4bb84,60,3862,6,3862,6,16.5,33.5,1,0,0,rectangle,16.5,33.5,1,0,0,4,"[71,135,167,160,183,133,22,49,147,141,109,62,281,40,58,188,125,148,200,19]",16.5,33.5,1,0,0,0,59,59,139,1,,,
,,,,,,,,,,,,,FF,,,,,,,,2.05,,,,,,,,,,,,,,,,,,,,,,,,,5c5cad3e4ee81200018eafe2,60a7d8a0e00e07df34c64a83,2021-05-21_17h00.15.713,Simcolourproject_2stim_asymm_v5,2020.2.10,Win32,60,60a5f9bf14d0aa2821c4bb84,61,4,3,4,3,19.5,16.5,1,0,0,rectangle,19.5,16.5,1,0,0,3,"[71,135,167,160,183,133,22,49,147,141,109,62,281,40,58,188,125,148,200,19]",19.5,16.5,1,0,0,0,60,60,132,1,,,
,,,,,,,,,,,,,FF,,,,,,,,0.749,,,,,,,,,,,,,,,,,,,,,,,,,5c5cad3e4ee81200018eafe2,60a7d8a0e00e07df34c64a83,2021-05-21_17h00.15.713,Simcolourproject_2stim_asymm_v5,2020.2.10,Win32,60,60a5f9bf14d0aa2821c4bb84,62,4209,7,4209,7,16.5,9.5,1,0,0,rectangle,253.5,-103.5,1,0,0,5,"[71,135,167,160,183,133,22,49,147,141,109,62,281,40,58,188,125,148,200,19]",-16.5,16.5,1,0,0,0,61,61,126,1,,response3disk_3,rectangle
,,,,,,,,,,,,,FF,,,,,,,,1.43,,,,,,,,,,,,,,,,,,,,,,,,,5c5cad3e4ee81200018eafe2,60a7d8a0e00e07df34c64a83,2021-05-21_17h00.15.713,Simcolourproject_2stim_asymm_v5,2020.2.10,Win32,60,60a5f9bf14d0aa2821c4bb84,63,2682,6,2682,6,19.5,23.5,1,0,0,rectangle,19.5,23.5,1,0,0,1,"[71,135,167,160,183,133,22,49,147,141,109,62,281,40,58,188,125,148,200,19]",19.5,23.5,1,0,0,0,62,62,144,1,,,
,,,,,,,,,,,,,FF,,,,,,,,0.9,,,,,,,,,,,,,,,,,,,,,,,,,5c5cad3e4ee81200018eafe2,60a7d8a0e00e07df34c64a83,2021-05-21_17h00.15.713,Simcolourproject_2stim_asymm_v5,2020.2.10,Win32,60,60a5f9bf14d0aa2821c4bb84,64,670,7,670,7,3.5,3.5,1,0,0,rectangle,3.5,3.5,1,0,0,0,"[71,135,167,160,183,133,22,49,147,141,109,62,281,40,58,188,125,148,200,19]",3.5,3.5,1,0,0,0,63,63,66,1,,,
,,,,,,,,,,,,,FF,,,,,,,,0.8,,,,,,,,,,,,,,,,,,,,,,,,,5c5cad3e4ee81200018eafe2,60a7d8a0e00e07df34c64a83,2021-05-21_17h00.15.713,Simcolourproject_2stim_asymm_v5,2020.2.10,Win32,60,60a5f9bf14d0aa2821c4bb84,65,1488,7,1488,7,3.5,-3.5,1,0,0,rectangle,3.5,-3.5,1,0,0,6,"[71,135,167,160,183,133,22,49,147,141,109,62,281,40,58,188,125,148,200,19]",3.5,-3.5,1,0,0,0,64,64,35,1,,,
,,,,,,,,,,,,,FF,,,,,,,,1.299,,,,,,,,,,,,,,,,,,,,,,,,,5c5cad3e4ee81200018eafe2,60a7d8a0e00e07df34c64a83,2021-05-21_17h00.15.713,Simcolourproject_2stim_asymm_v5,2020.2.10,Win32,60,60a5f9bf14d0aa2821c4bb84,66,1396,6,1396,6,33.5,19.5,1,0,0,rectangle,33.5,19.5,1,0,0,2,"[71,135,167,160,183,133,22,49,147,141,109,62,281,40,58,188,125,148,200,19]",33.5,19.5,1,0,0,0,65,65,38,1,,,
,,,,,,,,,,,,,FF,,,,,,,,1.049,,,,,,,,,,,,,,,,,,,,,,,,,5c5cad3e4ee81200018eafe2,60a7d8a0e00e07df34c64a83,2021-05-21_17h00.15.713,Simcolourproject_2stim_asymm_v5,2020.2.10,Win32,60,60a5f9bf14d0aa2821c4bb84,67,2501,7,2501,7,16.5,-0.5,1,0,0,rectangle,16.5,-0.5,1,0,0,1,"[71,135,167,160,183,133,22,49,147,141,109,62,281,40,58,188,125,148,200,19]",16.5,-0.5,1,0,0,0,66,66,123,1,,,
,,,,,,,,,,,,,FF,,,,,,,,1.421,,,,,,,,,,,,,,,,,,,,,,,,,5c5cad3e4ee81200018eafe2,60a7d8a0e00e07df34c64a83,2021-05-21_17h00.15.713,Simcolourproject_2stim_asymm_v5,2020.2.10,Win32,60,60a5f9bf14d0aa2821c4bb84,68,344,6,344,6,33.5,9.5,1,0,0,rectangle,33.5,9.5,1,0,0,2,"[71,135,167,160,183,133,22,49,147,141,109,62,281,40,58,188,125,148,200,19]",33.5,9.5,1,0,0,0,67,67,47,1,,,
,,,,,,,,,,,,,FF,,,,,,,,1.629,,,,,,,,,,,,,,,,,,,,,,,,,5c5cad3e4ee81200018eafe2,60a7d8a0e00e07df34c64a83,2021-05-21_17h00.15.713,Simcolourproject_2stim_asymm_v5,2020.2.10,Win32,60,60a5f9bf14d0aa2821c4bb84,69,3882,5,3882,5,33.5,-6.5,1,0,0,rectangle,33.5,-6.5,1,0,0,2,"[71,135,167,160,183,133,22,49,147,141,109,62,281,40,58,188,125,148,200,19]",33.5,-6.5,1,0,0,0,68,68,94,1,,,
,,,,,,,,,,,,,FF,,,,,,,,1.03,,,,,,,,,,,,,,,,,,,,,,,,,5c5cad3e4ee81200018eafe2,60a7d8a0e00e07df34c64a83,2021-05-21_17h00.15.713,Simcolourproject_2stim_asymm_v5,2020.2.10,Win32,60,60a5f9bf14d0aa2821c4bb84,70,592,5,592,5,29.5,-3.5,1,0,0,rectangle,29.5,-3.5,1,0,0,1,"[71,135,167,160,183,133,22,49,147,141,109,62,281,40,58,188,125,148,200,19]",29.5,-3.5,1,0,0,0,69,69,16,1,,,
,,,,,,,,,,,,,FF,,,,,,,,1.033,,,,,,,,,,,,,,,,,,,,,,,,,5c5cad3e4ee81200018eafe2,60a7d8a0e00e07df34c64a83,2021-05-21_17h00.15.713,Simcolourproject_2stim_asymm_v5,2020.2.10,Win32,60,60a5f9bf14d0aa2821c4bb84,71,225,5,225,5,16.5,-10.5,1,0,0,rectangle,303.5,-126.5,1,0,0,5,"[71,135,167,160,183,133,22,49,147,141,109,62,281,40,58,188,125,148,200,19]",36.5,3.5,1,0,0,0,70,70,44,1,,response3disk_3,rectangle
,,,,,,,,,,,,,FF,,,,,,,,1.28,,,,,,,,,,,,,,,,,,,,,,,,,5c5cad3e4ee81200018eafe2,60a7d8a0e00e07df34c64a83,2021-05-21_17h00.15.713,Simcolourproject_2stim_asymm_v5,2020.2.10,Win32,60,60a5f9bf14d0aa2821c4bb84,72,1524,3,1524,3,3.5,16.5,1,0,0,rectangle,3.5,16.5,1,0,0,6,"[71,135,167,160,183,133,22,49,147,141,109,62,281,40,58,188,125,148,200,19]",3.5,16.5,1,0,0,0,71,71,91,1,,,
,,,,,,,,,,,,,FF,,,,,,,,1.503,,,,,,,,,,,,,,,,,,,,,,,,,5c5cad3e4ee81200018eafe2,60a7d8a0e00e07df34c64a83,2021-05-21_17h00.15.713,Simcolourproject_2stim_asymm_v5,2020.2.10,Win32,60,60a5f9bf14d0aa2821c4bb84,73,2431,4,2431,4,-16.5,-0.5,1,0,0,rectangle,-16.5,-0.5,1,0,0,4,"[71,135,167,160,183,133,22,49,147,141,109,62,281,40,58,188,125,148,200,19]",-16.5,-0.5,1,0,0,0,72,72,40,1,,,
,,,,,,,,,,,,,FF,,,,,,,,1.199,,,,,,,,,,,,,,,,,,,,,,,,,5c5cad3e4ee81200018eafe2,60a7d8a0e00e07df34c64a83,2021-05-21_17h00.15.713,Simcolourproject_2stim_asymm_v5,2020.2.10,Win32,60,60a5f9bf14d0aa2821c4bb84,74,1596,0,1596,0,-6.5,3.5,1,0,0,rectangle,-6.5,3.5,1,0,0,7,"[71,135,167,160,183,133,22,49,147,141,109,62,281,40,58,188,125,148,200,19]",-6.5,3.5,1,0,0,0,73,73,72,1,,,
,,,,,,,,,,,,,FF,,,,,,,,2.471,,,,,,,,,,,,,,,,,,,,,,,,,5c5cad3e4ee81200018eafe2,60a7d8a0e00e07df34c64a83,2021-05-21_17h00.15.713,Simcolourproject_2stim_asymm_v5,2020.2.10,Win32,60,60a5f9bf14d0aa2821c4bb84,75,3367,6,3367,6,23.5,-3.5,1,0,0,rectangle,23.5,-3.5,1,0,0,0,"[71,135,167,160,183,133,22,49,147,141,109,62,281,40,58,188,125,148,200,19]",23.5,-3.5,1,0,0,0,74,74,61,1,,,
,,,,,,,,,,,,,FF,,,,,,,,1.23,,,,,,,,,,,,,,,,,,,,,,,,,5c5cad3e4ee81200018eafe2,60a7d8a0e00e07df34c64a83,2021-05-21_17h00.15.713,Simcolourproject_2stim_asymm_v5,2020.2.10,Win32,60,60a5f9bf14d0aa2821c4bb84,76,3142,6,3142,6,13.5,19.5,1,0,0,rectangle,13.5,19.5,1,0,0,0,"[71,135,167,160,183,133,22,49,147,141,109,62,281,40,58,188,125,148,200,19]",13.5,19.5,1,0,0,0,75,75,117,1,,,
,,,,,,,,,,,,,FF,,,,,,,,0.969,,,,,,,,,,,,,,,,,,,,,,,,,5c5cad3e4ee81200018eafe2,60a7d8a0e00e07df34c64a83,2021-05-21_17h00.15.713,Simcolourproject_2stim_asymm_v5,2020.2.10,Win32,60,60a5f9bf14d0aa2821c4bb84,77,1151,6,1151,6,13.5,3.5,1,0,0,rectangle,13.5,3.5,1,0,0,5,"[71,135,167,160,183,133,22,49,147,141,109,62,281,40,58,188,125,148,200,19]",13.5,3.5,1,0,0,0,76,76,156,1,,,
,,,,,,,,,,,,,FF,,,,,,,,1.103,,,,,,,,,,,,,,,,,,,,,,,,,5c5cad3e4ee81200018eafe2,60a7d8a0e00e07df34c64a83,2021-05-21_17h00.15.713,Simcolourproject_2stim_asymm_v5,2020.2.10,Win32,60,60a5f9bf14d0aa2821c4bb84,78,276,1,276,1,-40.5,29.5,1,0,0,rectangle,-40.5,29.5,1,0,0,6,"[71,135,167,160,183,133,22,49,147,141,109,62,281,40,58,188,125,148,200,19]",-40.5,29.5,1,0,0,0,77,77,9,1,,,
,,,,,,,,,,,,,FF,,,,,,,,1.121,,,,,,,,,,,,,,,,,,,,,,,,,5c5cad3e4ee81200018eafe2,60a7d8a0e00e07df34c64a83,2021-05-21_17h00.15.713,Simcolourproject_2stim_asymm_v5,2020.2.10,Win32,60,60a5f9bf14d0aa2821c4bb84,79,938,7,938,7,13.5,-3.5,1,0,0,rectangle,13.5,-3.5,1,0,0,5,"[71,135,167,160,183,133,22,49,147,141,109,62,281,40,58,188,125,148,200,19]",13.5,-3.5,1,0,0,0,78,78,46,1,,,
,,,,,,,,,,,,,FF,,,,,,,,1.885,,,,,,,,,,,,,,,,,,,,,,,,,5c5cad3e4ee81200018eafe2,60a7d8a0e00e07df34c64a83,2021-05-21_17h00.15.713,Simcolourproject_2stim_asymm_v5,2020.2.10,Win32,60,60a5f9bf14d0aa2821c4bb84,80,544,5,544,5,-10.5,-3.5,1,0,0,rectangle,-10.5,-3.5,1,0,0,4,"[71,135,167,160,183,133,22,49,147,141,109,62,281,40,58,188,125,148,200,19]",-10.5,-3.5,1,0,0,0,79,79,8,1,,,
,,,,,,,,,,,,,FF,,,,,,,,2.28,,,,,,,,,,,,,,,,,,,,,,,,,5c5cad3e4ee81200018eafe2,60a7d8a0e00e07df34c64a83,2021-05-21_17h00.15.713,Simcolourproject_2stim_asymm_v5,2020.2.10,Win32,60,60a5f9bf14d0aa2821c4bb84,81,1682,3,1682,3,13.5,9.5,1,0,0,rectangle,13.5,9.5,1,0,0,3,"[71,135,167,160,183,133,22,49,147,141,109,62,281,40,58,188,125,148,200,19]",13.5,9.5,1,0,0,0,80,80,116,1,,,
,,,,,,,,,,,,,FF,,,,,,,,1.121,,,,,,,,,,,,,,,,,,,,,,,,,5c5cad3e4ee81200018eafe2,60a7d8a0e00e07df34c64a83,2021-05-21_17h00.15.713,Simcolourproject_2stim_asymm_v5,2020.2.10,Win32,60,60a5f9bf14d0aa2821c4bb84,82,2026,3,2026,3,16.5,23.5,1,0,0,rectangle,16.5,23.5,1,0,0,4,"[71,135,167,160,183,133,22,49,147,141,109,62,281,40,58,188,125,148,200,19]",16.5,23.5,1,0,0,0,81,81,152,1,,,
,,,,,,,,,,,,,FF,,,,,,,,3.07,,,,,,,,,,,,,,,,,,,,,,,,,5c5cad3e4ee81200018eafe2,60a7d8a0e00e07df34c64a83,2021-05-21_17h00.15.713,Simcolourproject_2stim_asymm_v5,2020.2.10,Win32,60,60a5f9bf14d0aa2821c4bb84,83,3876,5,3876,5,43.5,-20.5,1,0,0,rectangle,43.5,-20.5,1,0,0,5,"[71,135,167,160,183,133,22,49,147,141,109,62,281,40,58,188,125,148,200,19]",43.5,-20.5,1,0,0,0,82,82,133,1,,,
,,,,,,,,,,,,,FF,,,,,,,,1.131,,,,,,,,,,,,,,,,,,,,,,,,,5c5cad3e4ee81200018eafe2,60a7d8a0e00e07df34c64a83,2021-05-21_17h00.15.713,Simcolourproject_2stim_asymm_v5,2020.2.10,Win32,60,60a5f9bf14d0aa2821c4bb84,84,3994,5,3994,5,-40.5,-0.5,1,0,0,rectangle,-40.5,-0.5,1,0,0,2,"[71,135,167,160,183,133,22,49,147,141,109,62,281,40,58,188,125,148,200,19]",-40.5,-0.5,1,0,0,0,83,83,102,1,,,
,,,,,,,,,,,,,FF,,,,,,,,1.529,,,,,,,,,,,,,,,,,,,,,,,,,5c5cad3e4ee81200018eafe2,60a7d8a0e00e07df34c64a83,2021-05-21_17h00.15.713,Simcolourproject_2stim_asymm_v5,2020.2.10,Win32,60,60a5f9bf14d0aa2821c4bb84,85,1162,6,1162,6,53.5,-6.5,1,0,0,rectangle,53.5,-6.5,1,0,0,2,"[71,135,167,160,183,133,22,49,147,141,109,62,281,40,58,188,125,148,200,19]",53.5,-6.5,1,0,0,0,84,84,56,1,,,
,,,,,,,,,,,,,FF,,,,,,,,0.828,,,,,,,,,,,,,,,,,,,,,,,,,5c5cad3e4ee81200018eafe2,60a7d8a0e00e07df34c64a83,2021-05-21_17h00.15.713,Simcolourproject_2stim_asymm_v5,2020.2.10,Win32,60,60a5f9bf14d0aa2821c4bb84,86,4180,7,4180,7,29.5,16.5,1,0,0,rectangle,29.5,16.5,1,0,0,6,"[71,135,167,160,183,133,22,49,147,141,109,62,281,40,58,188,125,148,200,19]",29.5,16.5,1,0,0,0,85,85,85,1,,,
,,,,,,,,,,,,,FF,,,,,,,,0.9,,,,,,,,,,,,,,,,,,,,,,,,,5c5cad3e4ee81200018eafe2,60a7d8a0e00e07df34c64a83,2021-05-21_17h00.15.713,Simcolourproject_2stim_asymm_v5,2020.2.10,Win32,60,60a5f9bf14d0aa2821c4bb84,87,267,7,267,7,-20.5,-0.5,1,0,0,rectangle,-20.5,-0.5,1,0,0,4,"[71,135,167,160,183,133,22,49,147,141,109,62,281,40,58,188,125,148,200,19]",-20.5,-0.5,1,0,0,0,86,86,34,1,,,
,,,,,,,,,,,,,FF,,,,,,,,1.329,,,,,,,,,,,,,,,,,,,,,,,,,5c5cad3e4ee81200018eafe2,60a7d8a0e00e07df34c64a83,2021-05-21_17h00.15.713,Simcolourproject_2stim_asymm_v5,2020.2.10,Win32,60,60a5f9bf14d0aa2821c4bb84,88,1166,6,1166,6,26.5,-30.5,1,0,0,rectangle,26.5,-30.5,1,0,0,7,"[71,135,167,160,183,133,22,49,147,141,109,62,281,40,58,188,125,148,200,19]",26.5,-30.5,1,0,0,0,87,87,51,1,,,
,,,,,,,,,,,,,FF,,,,,,,,0.949,,,,,,,,,,,,,,,,,,,,,,,,,5c5cad3e4ee81200018eafe2,60a7d8a0e00e07df34c64a83,2021-05-21_17h00.15.713,Simcolourproject_2stim_asymm_v5,2020.2.10,Win32,60,60a5f9bf14d0aa2821c4bb84,89,2124,7,2124,7,19.5,16.5,1,0,0,rectangle,19.5,16.5,1,0,0,7,"[71,135,167,160,183,133,22,49,147,141,109,62,281,40,58,188,125,148,200,19]",19.5,16.5,1,0,0,0,88,88,153,1,,,
,,,,,,,,,,,,,FF,,,,,,,,0.951,,,,,,,,,,,,,,,,,,,,,,,,,5c5cad3e4ee81200018eafe2,60a7d8a0e00e07df34c64a83,2021-05-21_17h00.15.713,Simcolourproject_2stim_asymm_v5,2020.2.10,Win32,60,60a5f9bf14d0aa2821c4bb84,90,1170,7,1170,7,-0.5,3.5,1,0,0,rectangle,-0.5,3.5,1,0,0,3,"[71,135,167,160,183,133,22,49,147,141,109,62,281,40,58,188,125,148,200,19]",-0.5,3.5,1,0,0,0,89,89,53,1,,,
,,,,,,,,,,,,,FF,,,,,,,,1.979,,,,,,,,,,,,,,,,,,,,,,,,,5c5cad3e4ee81200018eafe2,60a7d8a0e00e07df34c64a83,2021-05-21_17h00.15.713,Simcolourproject_2stim_asymm_v5,2020.2.10,Win32,60,60a5f9bf14d0aa2821c4bb84,91,4288,7,4288,7,-3.5,-0.5,1,0,0,rectangle,-3.5,-0.5,1,0,0,6,"[71,135,167,160,183,133,22,49,147,141,109,62,281,40,58,188,125,148,200,19]",-3.5,-0.5,1,0,0,0,90,90,79,1,,,
,,,,,,,,,,,,,FF,,,,,,,,0.921,,,,,,,,,,,,,,,,,,,,,,,,,5c5cad3e4ee81200018eafe2,60a7d8a0e00e07df34c64a83,2021-05-21_17h00.15.713,Simcolourproject_2stim_asymm_v5,2020.2.10,Win32,60,60a5f9bf14d0aa2821c4bb84,92,928,7,928,7,13.5,6.5,1,0,0,rectangle,13.5,6.5,1,0,0,4,"[71,135,167,160,183,133,22,49,147,141,109,62,281,40,58,188,125,148,200,19]",13.5,6.5,1,0,0,0,91,91,30,1,,,
,,,,,,,,,,,,,FF,,,,,,,,1.071,,,,,,,,,,,,,,,,,,,,,,,,,5c5cad3e4ee81200018eafe2,60a7d8a0e00e07df34c64a83,2021-05-21_17h00.15.713,Simcolourproject_2stim_asymm_v5,2020.2.10,Win32,60,60a5f9bf14d0aa2821c4bb84,93,1174,7,1174,7,-10.5,6.5,1,0,0,rectangle,-10.5,6.5,1,0,0,6,"[71,135,167,160,183,133,22,49,147,141,109,62,281,40,58,188,125,148,200,19]",-10.5,6.5,1,0,0,0,92,92,97,1,,,
,,,,,,,,,,,,,FF,,,,,,,,2.122,,,,,,,,,,,,,,,,,,,,,,,,,5c5cad3e4ee81200018eafe2,60a7d8a0e00e07df34c64a83,2021-05-21_17h00.15.713,Simcolourproject_2stim_asymm_v5,2020.2.10,Win32,60,60a5f9bf14d0aa2821c4bb84,94,2419,4,2419,4,3.5,6.5,1,0,0,rectangle,3.5,6.5,1,0,0,7,"[71,135,167,160,183,133,22,49,147,141,109,62,281,40,58,188,125,148,200,19]",3.5,6.5,1,0,0,0,93,93,81,1,,,
,,,,,,,,,,,,,FF,,,,,,,,1.05,,,,,,,,,,,,,,,,,,,,,,,,,5c5cad3e4ee81200018eafe2,60a7d8a0e00e07df34c64a83,2021-05-21_17h00.15.713,Simcolourproject_2stim_asymm_v5,2020.2.10,Win32,60,60a5f9bf14d0aa2821c4bb84,95,916,5,916,5,6.5,-10.5,1,0,0,rectangle,6.5,-10.5,1,0,0,0,"[71,135,167,160,183,133,22,49,147,141,109,62,281,40,58,188,125,148,200,19]",6.5,-10.5,1,0,0,0,94,94,12,1,,,
,,,,,,,,,,,,,FF,,,,,,,,0.85,,,,,,,,,,,,,,,,,,,,,,,,,5c5cad3e4ee81200018eafe2,60a7d8a0e00e07df34c64a83,2021-05-21_17h00.15.713,Simcolourproject_2stim_asymm_v5,2020.2.10,Win32,60,60a5f9bf14d0aa2821c4bb84,96,3017,7,3017,7,23.5,13.5,1,0,0,rectangle,23.5,13.5,1,0,0,5,"[71,135,167,160,183,133,22,49,147,141,109,62,281,40,58,188,125,148,200,19]",23.5,13.5,1,0,0,0,95,95,45,1,,,
,,,,,,,,,,,,,FF,,,,,,,,0.82,,,,,,,,,,,,,,,,,,,,,,,,,5c5cad3e4ee81200018eafe2,60a7d8a0e00e07df34c64a83,2021-05-21_17h00.15.713,Simcolourproject_2stim_asymm_v5,2020.2.10,Win32,60,60a5f9bf14d0aa2821c4bb84,97,87,7,87,7,6.5,9.5,1,0,0,rectangle,6.5,9.5,1,0,0,7,"[71,135,167,160,183,133,22,49,147,141,109,62,281,40,58,188,125,148,200,19]",6.5,9.5,1,0,0,0,96,96,49,1,,,
,,,,,,,,,,,,,FF,,,,,,,,1.783,,,,,,,,,,,,,,,,,,,,,,,,,5c5cad3e4ee81200018eafe2,60a7d8a0e00e07df34c64a83,2021-05-21_17h00.15.713,Simcolourproject_2stim_asymm_v5,2020.2.10,Win32,60,60a5f9bf14d0aa2821c4bb84,98,3386,4,3386,4,16.5,-10.5,1,0,0,rectangle,16.5,-10.5,1,0,0,7,"[71,135,167,160,183,133,22,49,147,141,109,62,281,40,58,188,125,148,200,19]",16.5,-10.5,1,0,0,0,97,97,150,1,,,
,,,,,,,,,,,,,FF,,,,,,,,2.771,,,,,,,,,,,,,,,,,,,,,,,,,5c5cad3e4ee81200018eafe2,60a7d8a0e00e07df34c64a83,2021-05-21_17h00.15.713,Simcolourproject_2stim_asymm_v5,2020.2.10,Win32,60,60a5f9bf14d0aa2821c4bb84,99,368,4,368,4,-3.5,3.5,1,0,0,rectangle,-3.5,3.5,1,0,0,3,"[71,135,167,160,183,133,22,49,147,141,109,62,281,40,58,188,125,148,200,19]",-3.5,3.5,1,0,0,0,98,98,19,1,,,
,,,,,,,,,,,,,FF,,,,,,,,2.099,,,,,,,,,,,,,,,,,,,,,,,,,5c5cad3e4ee81200018eafe2,60a7d8a0e00e07df34c64a83,2021-05-21_17h00.15.713,Simcolourproject_2stim_asymm_v5,2020.2.10,Win32,60,60a5f9bf14d0aa2821c4bb84,100,947,6,947,6,33.5,-13.5,1,0,0,rectangle,33.5,-13.5,1,0,0,2,"[71,135,167,160,183,133,22,49,147,141,109,62,281,40,58,188,125,148,200,19]",33.5,-13.5,1,0,0,0,99,99,21,1,,,
,,,,,,,,,,,,,FF,,,,,,,,1.6,,,,,,,,,,,,,,,,,,,,,,,,,5c5cad3e4ee81200018eafe2,60a7d8a0e00e07df34c64a83,2021-05-21_17h00.15.713,Simcolourproject_2stim_asymm_v5,2020.2.10,Win32,60,60a5f9bf14d0aa2821c4bb84,101,1914,5,1914,5,-10.5,-10.5,1,0,0,rectangle,-10.5,-10.5,1,0,0,0,"[71,135,167,160,183,133,22,49,147,141,109,62,281,40,58,188,125,148,200,19]",-10.5,-10.5,1,0,0,0,100,100,146,1,,,
,,,,,,,,,,,,,FF,,,,,,,,0.92,,,,,,,,,,,,,,,,,,,,,,,,,5c5cad3e4ee81200018eafe2,60a7d8a0e00e07df34c64a83,2021-05-21_17h00.15.713,Simcolourproject_2stim_asymm_v5,2020.2.10,Win32,60,60a5f9bf14d0aa2821c4bb84,102,4217,7,4217,7,29.5,23.5,1,0,0,rectangle,29.5,23.5,1,0,0,7,"[71,135,167,160,183,133,22,49,147,141,109,62,281,40,58,188,125,148,200,19]",29.5,23.5,1,0,0,0,101,101,54,1,,,
,,,,,,,,,,,,,FF,,,,,,,,0.849,,,,,,,,,,,,,,,,,,,,,,,,,5c5cad3e4ee81200018eafe2,60a7d8a0e00e07df34c64a83,2021-05-21_17h00.15.713,Simcolourproject_2stim_asymm_v5,2020.2.10,Win32,60,60a5f9bf14d0aa2821c4bb84,103,294,7,294,7,13.5,6.5,1,0,0,rectangle,13.5,6.5,1,0,0,0,"[71,135,167,160,183,133,22,49,147,141,109,62,281,40,58,188,125,148,200,19]",13.5,6.5,1,0,0,0,102,102,33,1,,,
,,,,,,,,,,,,,FF,,,,,,,,1.531,,,,,,,,,,,,,,,,,,,,,,,,,5c5cad3e4ee81200018eafe2,60a7d8a0e00e07df34c64a83,2021-05-21_17h00.15.713,Simcolourproject_2stim_asymm_v5,2020.2.10,Win32,60,60a5f9bf14d0aa2821c4bb84,104,2949,6,2949,6,19.5,-20.5,1,0,0,rectangle,19.5,-20.5,1,0,0,5,"[71,135,167,160,183,133,22,49,147,141,109,62,281,40,58,188,125,148,200,19]",19.5,-20.5,1,0,0,0,103,103,52,1,,,
,,,,,,,,,,,,,FF,,,,,,,,1.431,,,,,,,,,,,,,,,,,,,,,,,,,5c5cad3e4ee81200018eafe2,60a7d8a0e00e07df34c64a83,2021-05-21_17h00.15.713,Simcolourproject_2stim_asymm_v5,2020.2.10,Win32,60,60a5f9bf14d0aa2821c4bb84,105,1911,5,1911,5,36.5,-23.5,1,0,0,rectangle,36.5,-23.5,1,0,0,2,"[71,135,167,160,183,133,22,49,147,141,109,62,281,40,58,188,125,148,200,19]",36.5,-23.5,1,0,0,0,104,104,14,1,,,
,,,,,,,,,,,,,FF,,,,,,,,0.78,,,,,,,,,,,,,,,,,,,,,,,,,5c5cad3e4ee81200018eafe2,60a7d8a0e00e07df34c64a83,2021-05-21_17h00.15.713,Simcolourproject_2stim_asymm_v5,2020.2.10,Win32,60,60a5f9bf14d0aa2821c4bb84,106,3025,7,3025,7,29.5,9.5,1,0,0,rectangle,29.5,9.5,1,0,0,6,"[71,135,167,160,183,133,22,49,147,141,109,62,281,40,58,188,125,148,200,19]",29.5,9.5,1,0,0,0,105,105,140,1,,,
,,,,,,,,,,,,,FF,,,,,,,,1.32,,,,,,,,,,,,,,,,,,,,,,,,,5c5cad3e4ee81200018eafe2,60a7d8a0e00e07df34c64a83,2021-05-21_17h00.15.713,Simcolourproject_2stim_asymm_v5,2020.2.10,Win32,60,60a5f9bf14d0aa2821c4bb84,107,2039,3,2039,3,-23.5,23.5,1,0,0,rectangle,-23.5,23.5,1,0,0,6,"[71,135,167,160,183,133,22,49,147,141,109,62,281,40,58,188,125,148,200,19]",-23.5,23.5,1,0,0,0,106,106,92,1,,,
,,,,,,,,,,,,,FF,,,,,,,,1.3,,,,,,,,,,,,,,,,,,,,,,,,,5c5cad3e4ee81200018eafe2,60a7d8a0e00e07df34c64a83,2021-05-21_17h00.15.713,Simcolourproject_2stim_asymm_v5,2020.2.10,Win32,60,60a5f9bf14d0aa2821c4bb84,108,2550,4,2550,4,43.5,-3.5,1,0,0,rectangle,43.5,-3.5,1,0,0,1,"[71,135,167,160,183,133,22,49,147,141,109,62,281,40,58,188,125,148,200,19]",43.5,-3.5,1,0,0,0,107,107,135,1,,,
,,,,,,,,,,,,,FF,,,,,,,,1.35,,,,,,,,,,,,,,,,,,,,,,,,,5c5cad3e4ee81200018eafe2,60a7d8a0e00e07df34c64a83,2021-05-21_17h00.15.713,Simcolourproject_2stim_asymm_v5,2020.2.10,Win32,60,60a5f9bf14d0aa2821c4bb84,109,3746,4,3746,4,23.5,-0.5,1,0,0,rectangle,143.5,266.5,1,0,0,7,"[71,135,167,160,183,133,22,49,147,141,109,62,281,40,58,188,125,148,200,19]",19.5,26.5,1,0,0,0,108,108,83,1,,response1disk_3,rectangle
,,,,,,,,,,,,,FF,,,,,,,,0.93,,,,,,,,,,,,,,,,,,,,,,,,,5c5cad3e4ee81200018eafe2,60a7d8a0e00e07df34c64a83,2021-05-21_17h00.15.713,Simcolourproject_2stim_asymm_v5,2020.2.10,Win32,60,60a5f9bf14d0aa2821c4bb84,110,2334,7,2334,7,26.5,-3.5,1,0,0,rectangle,26.5,-3.5,1,0,0,5,"[71,135,167,160,183,133,22,49,147,141,109,62,281,40,58,188,125,148,200,19]",26.5,-3.5,1,0,0,0,109,109,157,1,,,
,,,,,,,,,,,,,FF,,,,,,,,0.78,,,,,,,,,,,,,,,,,,,,,,,,,5c5cad3e4ee81200018eafe2,60a7d8a0e00e07df34c64a83,2021-05-21_17h00.15.713,Simcolourproject_2stim_asymm_v5,2020.2.10,Win32,60,60a5f9bf14d0aa2821c4bb84,111,3614,7,3614,7,33.5,-3.5,1,0,0,rectangle,33.5,-3.5,1,0,0,0,"[71,135,167,160,183,133,22,49,147,141,109,62,281,40,58,188,125,148,200,19]",33.5,-3.5,1,0,0,0,110,110,5,1,,,
,,,,,,,,,,,,,FF,,,,,,,,1.15,,,,,,,,,,,,,,,,,,,,,,,,,5c5cad3e4ee81200018eafe2,60a7d8a0e00e07df34c64a83,2021-05-21_17h00.15.713,Simcolourproject_2stim_asymm_v5,2020.2.10,Win32,60,60a5f9bf14d0aa2821c4bb84,112,2352,5,2352,5,16.5,-0.5,1,0,0,rectangle,16.5,-0.5,1,0,0,5,"[71,135,167,160,183,133,22,49,147,141,109,62,281,40,58,188,125,148,200,19]",16.5,-0.5,1,0,0,0,111,111,62,1,,,
,,,,,,,,,,,,,FF,,,,,,,,1.649,,,,,,,,,,,,,,,,,,,,,,,,,5c5cad3e4ee81200018eafe2,60a7d8a0e00e07df34c64a83,2021-05-21_17h00.15.713,Simcolourproject_2stim_asymm_v5,2020.2.10,Win32,60,60a5f9bf14d0aa2821c4bb84,113,3062,6,3062,6,53.5,-23.5,1,0,0,rectangle,53.5,-23.5,1,0,0,7,"[71,135,167,160,183,133,22,49,147,141,109,62,281,40,58,188,125,148,200,19]",53.5,-23.5,1,0,0,0,112,112,100,1,,,
,,,,,,,,,,,,,FF,,,,,,,,0.8,,,,,,,,,,,,,,,,,,,,,,,,,5c5cad3e4ee81200018eafe2,60a7d8a0e00e07df34c64a83,2021-05-21_17h00.15.713,Simcolourproject_2stim_asymm_v5,2020.2.10,Win32,60,60a5f9bf14d0aa2821c4bb84,114,3225,7,3225,7,53.5,13.5,1,0,0,rectangle,53.5,13.5,1,0,0,7,"[71,135,167,160,183,133,22,49,147,141,109,62,281,40,58,188,125,148,200,19]",53.5,13.5,1,0,0,0,113,113,74,1,,,
,,,,,,,,,,,,,FF,,,,,,,,0.867,,,,,,,,,,,,,,,,,,,,,,,,,5c5cad3e4ee81200018eafe2,60a7d8a0e00e07df34c64a83,2021-05-21_17h00.15.713,Simcolourproject_2stim_asymm_v5,2020.2.10,Win32,60,60a5f9bf14d0aa2821c4bb84,115,2632,7,2632,7,39.5,23.5,1,0,0,rectangle,39.5,23.5,1,0,0,1,"[71,135,167,160,183,133,22,49,147,141,109,62,281,40,58,188,125,148,200,19]",39.5,23.5,1,0,0,0,114,114,80,1,,,
,,,,,,,,,,,,,FF,,,,,,,,0.981,,,,,,,,,,,,,,,,,,,,,,,,,5c5cad3e4ee81200018eafe2,60a7d8a0e00e07df34c64a83,2021-05-21_17h00.15.713,Simcolourproject_2stim_asymm_v5,2020.2.10,Win32,60,60a5f9bf14d0aa2821c4bb84,116,738,7,738,7,29.5,9.5,1,0,0,rectangle,29.5,9.5,1,0,0,3,"[71,135,167,160,183,133,22,49,147,141,109,62,281,40,58,188,125,148,200,19]",29.5,9.5,1,0,0,0,115,115,154,1,,,
,,,,,,,,,,,,,FF,,,,,,,,2.05,,,,,,,,,,,,,,,,,,,,,,,,,5c5cad3e4ee81200018eafe2,60a7d8a0e00e07df34c64a83,2021-05-21_17h00.15.713,Simcolourproject_2stim_asymm_v5,2020.2.10,Win32,60,60a5f9bf14d0aa2821c4bb84,117,720,3,720,3,19.5,-6.5,1,0,0,rectangle,19.5,-6.5,1,0,0,7,"[71,135,167,160,183,133,22,49,147,141,109,62,281,40,58,188,125,148,200,19]",19.5,-6.5,1,0,0,0,116,116,39,1,,,
,,,,,,,,,,,,,FF,,,,,,,,1.47,,,,,,,,,,,,,,,,,,,,,,,,,5c5cad3e4ee81200018eafe2,60a7d8a0e00e07df34c64a83,2021-05-21_17h00.15.713,Simcolourproject_2stim_asymm_v5,2020.2.10,Win32,60,60a5f9bf14d0aa2821c4bb84,118,1978,5,1978,5,9.5,-3.5,1,0,0,rectangle,9.5,-3.5,1,0,0,6,"[71,135,167,160,183,133,22,49,147,141,109,62,281,40,58,188,125,148,200,19]",9.5,-3.5,1,0,0,0,117,117,109,1,,,
,,,,,,,,,,,,,FF,,,,,,,,1.18,,,,,,,,,,,,,,,,,,,,,,,,,5c5cad3e4ee81200018eafe2,60a7d8a0e00e07df34c64a83,2021-05-21_17h00.15.713,Simcolourproject_2stim_asymm_v5,2020.2.10,Win32,60,60a5f9bf14d0aa2821c4bb84,119,3830,5,3830,5,-16.5,-16.5,1,0,0,rectangle,-16.5,-16.5,1,0,0,2,"[71,135,167,160,183,133,22,49,147,141,109,62,281,40,58,188,125,148,200,19]",-16.5,-16.5,1,0,0,0,118,118,60,1,,,
,,,,,,,,,,,,,FF,,,,,,,,1.132,,,,,,,,,,,,,,,,,,,,,,,,,5c5cad3e4ee81200018eafe2,60a7d8a0e00e07df34c64a83,2021-05-21_17h00.15.713,Simcolourproject_2stim_asymm_v5,2020.2.10,Win32,60,60a5f9bf14d0aa2821c4bb84,120,3146,0,3146,0,16.5,-10.5,1,0,0,rectangle,16.5,-10.5,1,0,0,6,"[71,135,167,160,183,133,22,49,147,141,109,62,281,40,58,188,125,148,200,19]",16.5,-10.5,1,0,0,0,119,119,95,1,,,
,,,,,,,,,,,,,FF,,,,,,,,1.28,,,,,,,,,,,,,,,,,,,,,,,,,5c5cad3e4ee81200018eafe2,60a7d8a0e00e07df34c64a83,2021-05-21_17h00.15.713,Simcolourproject_2stim_asymm_v5,2020.2.10,Win32,60,60a5f9bf14d0aa2821c4bb84,121,3711,0,3711,0,16.5,-13.5,1,0,0,rectangle,16.5,-13.5,1,0,0,6,"[71,135,167,160,183,133,22,49,147,141,109,62,281,40,58,188,125,148,200,19]",16.5,-13.5,1,0,0,0,120,120,69,1,,,
,,,,,,,,,,,,,FF,,,,,,,,0.999,,,,,,,,,,,,,,,,,,,,,,,,,5c5cad3e4ee81200018eafe2,60a7d8a0e00e07df34c64a83,2021-05-21_17h00.15.713,Simcolourproject_2stim_asymm_v5,2020.2.10,Win32,60,60a5f9bf14d0aa2821c4bb84,122,2425,0,2425,0,-10.5,-43.5,1,0,0,rectangle,-10.5,-43.5,1,0,0,2,"[71,135,167,160,183,133,22,49,147,141,109,62,281,40,58,188,125,148,200,19]",-10.5,-43.5,1,0,0,0,121,121,93,1,,,
,,,,,,,,,,,,,FF,,,,,,,,1.86,,,,,,,,,,,,,,,,,,,,,,,,,5c5cad3e4ee81200018eafe2,60a7d8a0e00e07df34c64a83,2021-05-21_17h00.15.713,Simcolourproject_2stim_asymm_v5,2020.2.10,Win32,60,60a5f9bf14d0aa2821c4bb84,123,1695,5,1695,5,23.5,-3.5,1,0,0,rectangle,23.5,-3.5,1,0,0,7,"[71,135,167,160,183,133,22,49,147,141,109,62,281,40,58,188,125,148,200,19]",23.5,-3.5,1,0,0,0,122,122,41,1,,,
,,,,,,,,,,,,,FF,,,,,,,,1.38,,,,,,,,,,,,,,,,,,,,,,,,,5c5cad3e4ee81200018eafe2,60a7d8a0e00e07df34c64a83,2021-05-21_17h00.15.713,Simcolourproject_2stim_asymm_v5,2020.2.10,Win32,60,60a5f9bf14d0aa2821c4bb84,124,3884,7,3884,7,9.5,-6.5,1,0,0,rectangle,9.5,-6.5,1,0,0,1,"[71,135,167,160,183,133,22,49,147,141,109,62,281,40,58,188,125,148,200,19]",9.5,-6.5,1,0,0,0,123,123,148,1,,,
,,,,,,,,,,,,,FF,,,,,,,,1.37,,,,,,,,,,,,,,,,,,,,,,,,,5c5cad3e4ee81200018eafe2,60a7d8a0e00e07df34c64a83,2021-05-21_17h00.15.713,Simcolourproject_2stim_asymm_v5,2020.2.10,Win32,60,60a5f9bf14d0aa2821c4bb84,125,2570,6,2570,6,23.5,16.5,1,0,0,rectangle,-250.5,-133.5,1,0,0,2,"[71,135,167,160,183,133,22,49,147,141,109,62,281,40,58,188,125,148,200,19]",-10.5,23.5,1,0,0,0,124,124,121,1,,response5disk_3,rectangle
,,,,,,,,,,,,,FF,,,,,,,,1.53,,,,,,,,,,,,,,,,,,,,,,,,,5c5cad3e4ee81200018eafe2,60a7d8a0e00e07df34c64a83,2021-05-21_17h00.15.713,Simcolourproject_2stim_asymm_v5,2020.2.10,Win32,60,60a5f9bf14d0aa2821c4bb84,126,561,5,561,5,-3.5,6.5,1,0,0,rectangle,-3.5,6.5,1,0,0,6,"[71,135,167,160,183,133,22,49,147,141,109,62,281,40,58,188,125,148,200,19]",-3.5,6.5,1,0,0,0,125,125,96,1,,,
,,,,,,,,,,,,,FF,,,,,,,,0.871,,,,,,,,,,,,,,,,,,,,,,,,,5c5cad3e4ee81200018eafe2,60a7d8a0e00e07df34c64a83,2021-05-21_17h00.15.713,Simcolourproject_2stim_asymm_v5,2020.2.10,Win32,60,60a5f9bf14d0aa2821c4bb84,127,1418,7,1418,7,-0.5,-20.5,1,0,0,rectangle,-0.5,-20.5,1,0,0,0,"[71,135,167,160,183,133,22,49,147,141,109,62,281,40,58,188,125,148,200,19]",-0.5,-20.5,1,0,0,0,126,126,73,1,,,
,,,,,,,,,,,,,FF,,,,,,,,1.479,,,,,,,,,,,,,,,,,,,,,,,,,5c5cad3e4ee81200018eafe2,60a7d8a0e00e07df34c64a83,2021-05-21_17h00.15.713,Simcolourproject_2stim_asymm_v5,2020.2.10,Win32,60,60a5f9bf14d0aa2821c4bb84,128,3521,6,3521,6,26.5,-10.5,1,0,0,rectangle,26.5,-10.5,1,0,0,6,"[71,135,167,160,183,133,22,49,147,141,109,62,281,40,58,188,125,148,200,19]",26.5,-10.5,1,0,0,0,127,127,25,1,,,
,,,,,,,,,,,,,FF,,,,,,,,1.471,,,,,,,,,,,,,,,,,,,,,,,,,5c5cad3e4ee81200018eafe2,60a7d8a0e00e07df34c64a83,2021-05-21_17h00.15.713,Simcolourproject_2stim_asymm_v5,2020.2.10,Win32,60,60a5f9bf14d0aa2821c4bb84,129,1531,5,1531,5,-10.5,6.5,1,0,0,rectangle,-10.5,6.5,1,0,0,3,"[71,135,167,160,183,133,22,49,147,141,109,62,281,40,58,188,125,148,200,19]",-10.5,6.5,1,0,0,0,128,128,22,1,,,
,,,,,,,,,,,,,FF,,,,,,,,0.95,,,,,,,,,,,,,,,,,,,,,,,,,5c5cad3e4ee81200018eafe2,60a7d8a0e00e07df34c64a83,2021-05-21_17h00.15.713,Simcolourproject_2stim_asymm_v5,2020.2.10,Win32,60,60a5f9bf14d0aa2821c4bb84,130,4110,7,4110,7,-13.5,-0.5,1,0,0,rectangle,-13.5,-0.5,1,0,0,0,"[71,135,167,160,183,133,22,49,147,141,109,62,281,40,58,188,125,148,200,19]",-13.5,-0.5,1,0,0,0,129,129,119,1,,,
,,,,,,,,,,,,,FF,,,,,,,,2.931,,,,,,,,,,,,,,,,,,,,,,,,,5c5cad3e4ee81200018eafe2,60a7d8a0e00e07df34c64a83,2021-05-21_17h00.15.713,Simcolourproject_2stim_asymm_v5,2020.2.10,Win32,60,60a5f9bf14d0aa2821c4bb84,131,2841,3,2841,3,-3.5,3.5,1,0,0,rectangle,-3.5,3.5,1,0,0,4,"[71,135,167,160,183,133,22,49,147,141,109,62,281,40,58,188,125,148,200,19]",-3.5,3.5,1,0,0,0,130,130,104,1,,,
,,,,,,,,,,,,,FF,,,,,,,,1.42,,,,,,,,,,,,,,,,,,,,,,,,,5c5cad3e4ee81200018eafe2,60a7d8a0e00e07df34c64a83,2021-05-21_17h00.15.713,Simcolourproject_2stim_asymm_v5,2020.2.10,Win32,60,60a5f9bf14d0aa2821c4bb84,132,3082,6,3082,6,36.5,-0.5,1,0,0,rectangle,36.5,-0.5,1,0,0,1,"[71,135,167,160,183,133,22,49,147,141,109,62,281,40,58,188,125,148,200,19]",36.5,-0.5,1,0,0,0,131,131,18,1,,,
,,,,,,,,,,,,,FF,,,,,,,,1.401,,,,,,,,,,,,,,,,,,,,,,,,,5c5cad3e4ee81200018eafe2,60a7d8a0e00e07df34c64a83,2021-05-21_17h00.15.713,Simcolourproject_2stim_asymm_v5,2020.2.10,Win32,60,60a5f9bf14d0aa2821c4bb84,133,1146,6,1146,6,3.5,6.5,1,0,0,rectangle,-90.5,-260.5,1,0,0,3,"[71,135,167,160,183,133,22,49,147,141,109,62,281,40,58,188,125,148,200,19]",9.5,23.5,1,0,0,0,132,132,143,1,,response5disk_3,rectangle
,,,,,,,,,,,,,FF,,,,,,,,1.319,,,,,,,,,,,,,,,,,,,,,,,,,5c5cad3e4ee81200018eafe2,60a7d8a0e00e07df34c64a83,2021-05-21_17h00.15.713,Simcolourproject_2stim_asymm_v5,2020.2.10,Win32,60,60a5f9bf14d0aa2821c4bb84,134,2783,3,2783,3,-30.5,-33.5,1,0,0,rectangle,-30.5,-33.5,1,0,0,3,"[71,135,167,160,183,133,22,49,147,141,109,62,281,40,58,188,125,148,200,19]",-30.5,-33.5,1,0,0,0,133,133,20,1,,,
,,,,,,,,,,,,,FF,,,,,,,,1.32,,,,,,,,,,,,,,,,,,,,,,,,,5c5cad3e4ee81200018eafe2,60a7d8a0e00e07df34c64a83,2021-05-21_17h00.15.713,Simcolourproject_2stim_asymm_v5,2020.2.10,Win32,60,60a5f9bf14d0aa2821c4bb84,135,159,4,159,4,-6.5,16.5,1,0,0,rectangle,233.5,133.5,1,0,0,6,"[71,135,167,160,183,133,22,49,147,141,109,62,281,40,58,188,125,148,200,19]",3.5,-0.5,1,0,0,0,134,134,84,1,,response1disk_3,rectangle
,,,,,,,,,,,,,FF,,,,,,,,2.179,,,,,,,,,,,,,,,,,,,,,,,,,5c5cad3e4ee81200018eafe2,60a7d8a0e00e07df34c64a83,2021-05-21_17h00.15.713,Simcolourproject_2stim_asymm_v5,2020.2.10,Win32,60,60a5f9bf14d0aa2821c4bb84,136,3752,5,3752,5,16.5,6.5,1,0,0,rectangle,16.5,6.5,1,0,0,4,"[71,135,167,160,183,133,22,49,147,141,109,62,281,40,58,188,125,148,200,19]",16.5,6.5,1,0,0,0,135,135,88,1,,,
,,,,,,,,,,,,,FF,,,,,,,,0.8,,,,,,,,,,,,,,,,,,,,,,,,,5c5cad3e4ee81200018eafe2,60a7d8a0e00e07df34c64a83,2021-05-21_17h00.15.713,Simcolourproject_2stim_asymm_v5,2020.2.10,Win32,60,60a5f9bf14d0aa2821c4bb84,137,966,7,966,7,23.5,19.5,1,0,0,rectangle,23.5,19.5,1,0,0,2,"[71,135,167,160,183,133,22,49,147,141,109,62,281,40,58,188,125,148,200,19]",23.5,19.5,1,0,0,0,136,136,127,1,,,
,,,,,,,,,,,,,FF,,,,,,,,2.488,,,,,,,,,,,,,,,,,,,,,,,,,5c5cad3e4ee81200018eafe2,60a7d8a0e00e07df34c64a83,2021-05-21_17h00.15.713,Simcolourproject_2stim_asymm_v5,2020.2.10,Win32,60,60a5f9bf14d0aa2821c4bb84,138,2943,7,2943,7,-6.5,3.5,1,0,0,rectangle,-6.5,3.5,1,0,0,3,"[71,135,167,160,183,133,22,49,147,141,109,62,281,40,58,188,125,148,200,19]",-6.5,3.5,1,0,0,0,137,137,87,1,,,
,,,,,,,,,,,,,FF,,,,,,,,1.981,,,,,,,,,,,,,,,,,,,,,,,,,5c5cad3e4ee81200018eafe2,60a7d8a0e00e07df34c64a83,2021-05-21_17h00.15.713,Simcolourproject_2stim_asymm_v5,2020.2.10,Win32,60,60a5f9bf14d0aa2821c4bb84,139,1208,6,1208,6,29.5,-6.5,1,0,0,rectangle,29.5,-6.5,1,0,0,2,"[71,135,167,160,183,133,22,49,147,141,109,62,281,40,58,188,125,148,200,19]",29.5,-6.5,1,0,0,0,138,138,131,1,,,
,,,,,,,,,,,,,FF,,,,,,,,1.731,,,,,,,,,,,,,,,,,,,,,,,,,5c5cad3e4ee81200018eafe2,60a7d8a0e00e07df34c64a83,2021-05-21_17h00.15.713,Simcolourproject_2stim_asymm_v5,2020.2.10,Win32,60,60a5f9bf14d0aa2821c4bb84,140,1691,4,1691,4,13.5,3.5,1,0,0,rectangle,13.5,3.5,1,0,0,1,"[71,135,167,160,183,133,22,49,147,141,109,62,281,40,58,188,125,148,200,19]",13.5,3.5,1,0,0,0,139,139,129,1,,,
,,,,,,,,,,,,,FF,,,,,,,,1.45,,,,,,,,,,,,,,,,,,,,,,,,,5c5cad3e4ee81200018eafe2,60a7d8a0e00e07df34c64a83,2021-05-21_17h00.15.713,Simcolourproject_2stim_asymm_v5,2020.2.10,Win32,60,60a5f9bf14d0aa2821c4bb84,141,113,7,113,7,19.5,6.5,1,0,0,rectangle,-113.5,246.5,1,0,0,0,"[71,135,167,160,183,133,22,49,147,141,109,62,281,40,58,188,125,148,200,19]",26.5,26.5,1,0,0,0,140,140,70,1,,response7disk_3,rectangle
,,,,,,,,,,,,,FF,,,,,,,,1.9,,,,,,,,,,,,,,,,,,,,,,,,,5c5cad3e4ee81200018eafe2,60a7d8a0e00e07df34c64a83,2021-05-21_17h00.15.713,Simcolourproject_2stim_asymm_v5,2020.2.10,Win32,60,60a5f9bf14d0aa2821c4bb84,142,2810,7,2810,7,6.5,23.5,1,0,0,rectangle,6.5,23.5,1,0,0,0,"[71,135,167,160,183,133,22,49,147,141,109,62,281,40,58,188,125,148,200,19]",6.5,23.5,1,0,0,0,141,141,26,1,,,
,,,,,,,,,,,,,FF,,,,,,,,1.03,,,,,,,,,,,,,,,,,,,,,,,,,5c5cad3e4ee81200018eafe2,60a7d8a0e00e07df34c64a83,2021-05-21_17h00.15.713,Simcolourproject_2stim_asymm_v5,2020.2.10,Win32,60,60a5f9bf14d0aa2821c4bb84,143,3035,7,3035,7,23.5,3.5,1,0,0,rectangle,23.5,3.5,1,0,0,5,"[71,135,167,160,183,133,22,49,147,141,109,62,281,40,58,188,125,148,200,19]",23.5,3.5,1,0,0,0,142,142,158,1,,,
,,,,,,,,,,,,,FF,,,,,,,,1.27,,,,,,,,,,,,,,,,,,,,,,,,,5c5cad3e4ee81200018eafe2,60a7d8a0e00e07df34c64a83,2021-05-21_17h00.15.713,Simcolourproject_2stim_asymm_v5,2020.2.10,Win32,60,60a5f9bf14d0aa2821c4bb84,144,1455,7,1455,7,16.5,-23.5,1,0,0,rectangle,16.5,-23.5,1,0,0,6,"[71,135,167,160,183,133,22,49,147,141,109,62,281,40,58,188,125,148,200,19]",16.5,-23.5,1,0,0,0,143,143,17,1,,,
,,,,,,,,,,,,,FF,,,,,,,,1.75,,,,,,,,,,,,,,,,,,,,,,,,,5c5cad3e4ee81200018eafe2,60a7d8a0e00e07df34c64a83,2021-05-21_17h00.15.713,Simcolourproject_2stim_asymm_v5,2020.2.10,Win32,60,60a5f9bf14d0aa2821c4bb84,145,999,6,999,6,33.5,6.5,1,0,0,rectangle,33.5,6.5,1,0,0,5,"[71,135,167,160,183,133,22,49,147,141,109,62,281,40,58,188,125,148,200,19]",33.5,6.5,1,0,0,0,144,144,15,1,,,
,,,,,,,,,,,,,FF,,,,,,,,1.4,,,,,,,,,,,,,,,,,,,,,,,,,5c5cad3e4ee81200018eafe2,60a7d8a0e00e07df34c64a83,2021-05-21_17h00.15.713,Simcolourproject_2stim_asymm_v5,2020.2.10,Win32,60,60a5f9bf14d0aa2821c4bb84,146,2250,6,2250,6,9.5,6.5,1,0,0,rectangle,9.5,6.5,1,0,0,2,"[71,135,167,160,183,133,22,49,147,141,109,62,281,40,58,188,125,148,200,19]",9.5,6.5,1,0,0,0,145,145,106,1,,,
,,,,,,,,,,,,,FF,,,,,,,,1.72,,,,,,,,,,,,,,,,,,,,,,,,,5c5cad3e4ee81200018eafe2,60a7d8a0e00e07df34c64a83,2021-05-21_17h00.15.713,Simcolourproject_2stim_asymm_v5,2020.2.10,Win32,60,60a5f9bf14d0aa2821c4bb84,147,2348,6,2348,6,19.5,6.5,1,0,0,rectangle,-253.5,123.5,1,0,0,1,"[71,135,167,160,183,133,22,49,147,141,109,62,281,40,58,188,125,148,200,19]",-3.5,13.5,1,0,0,0,146,146,50,1,,response7disk_3,rectangle
,,,,,,,,,,,,,FF,,,,,,,,1.15,,,,,,,,,,,,,,,,,,,,,,,,,5c5cad3e4ee81200018eafe2,60a7d8a0e00e07df34c64a83,2021-05-21_17h00.15.713,Simcolourproject_2stim_asymm_v5,2020.2.10,Win32,60,60a5f9bf14d0aa2821c4bb84,148,2203,7,2203,7,26.5,23.5,1,0,0,rectangle,176.5,96.5,1,0,0,1,"[71,135,167,160,183,133,22,49,147,141,109,62,281,40,58,188,125,148,200,19]",43.5,13.5,1,0,0,0,147,147,3,1,,response1disk_3,rectangle
,,,,,,,,,,,,,FF,,,,,,,,0.969,,,,,,,,,,,,,,,,,,,,,,,,,5c5cad3e4ee81200018eafe2,60a7d8a0e00e07df34c64a83,2021-05-21_17h00.15.713,Simcolourproject_2stim_asymm_v5,2020.2.10,Win32,60,60a5f9bf14d0aa2821c4bb84,149,1074,6,1074,6,66.5,13.5,1,0,0,rectangle,66.5,13.5,1,0,0,2,"[71,135,167,160,183,133,22,49,147,141,109,62,281,40,58,188,125,148,200,19]",66.5,13.5,1,0,0,0,148,148,141,1,,,
,,,,,,,,,,,,,FF,,,,,,,,1.3,,,,,,,,,,,,,,,,,,,,,,,,,5c5cad3e4ee81200018eafe2,60a7d8a0e00e07df34c64a83,2021-05-21_17h00.15.713,Simcolourproject_2stim_asymm_v5,2020.2.10,Win32,60,60a5f9bf14d0aa2821c4bb84,150,3377,5,3377,5,29.5,3.5,1,0,0,rectangle,29.5,3.5,1,0,0,4,"[71,135,167,160,183,133,22,49,147,141,109,62,281,40,58,188,125,148,200,19]",29.5,3.5,1,0,0,0,149,149,0,1,,,
,,,,,,,,,,,,,FF,,,,,,,,0.8,,,,,,,,,,,,,,,,,,,,,,,,,5c5cad3e4ee81200018eafe2,60a7d8a0e00e07df34c64a83,2021-05-21_17h00.15.713,Simcolourproject_2stim_asymm_v5,2020.2.10,Win32,60,60a5f9bf14d0aa2821c4bb84,151,143,7,143,7,46.5,9.5,1,0,0,rectangle,46.5,9.5,1,0,0,7,"[71,135,167,160,183,133,22,49,147,141,109,62,281,40,58,188,125,148,200,19]",46.5,9.5,1,0,0,0,150,150,42,1,,,
,,,,,,,,,,,,,FF,,,,,,,,1.149,,,,,,,,,,,,,,,,,,,,,,,,,5c5cad3e4ee81200018eafe2,60a7d8a0e00e07df34c64a83,2021-05-21_17h00.15.713,Simcolourproject_2stim_asymm_v5,2020.2.10,Win32,60,60a5f9bf14d0aa2821c4bb84,152,1584,6,1584,6,13.5,3.5,1,0,0,rectangle,13.5,3.5,1,0,0,6,"[71,135,167,160,183,133,22,49,147,141,109,62,281,40,58,188,125,148,200,19]",13.5,3.5,1,0,0,0,151,151,64,1,,,
,,,,,,,,,,,,,FF,,,,,,,,2.329,,,,,,,,,,,,,,,,,,,,,,,,,5c5cad3e4ee81200018eafe2,60a7d8a0e00e07df34c64a83,2021-05-21_17h00.15.713,Simcolourproject_2stim_asymm_v5,2020.2.10,Win32,60,60a5f9bf14d0aa2821c4bb84,153,867,5,867,5,33.5,-10.5,1,0,0,rectangle,33.5,-10.5,1,0,0,4,"[71,135,167,160,183,133,22,49,147,141,109,62,281,40,58,188,125,148,200,19]",33.5,-10.5,1,0,0,0,152,152,114,1,,,
,,,,,,,,,,,,,FF,,,,,,,,1.401,,,,,,,,,,,,,,,,,,,,,,,,,5c5cad3e4ee81200018eafe2,60a7d8a0e00e07df34c64a83,2021-05-21_17h00.15.713,Simcolourproject_2stim_asymm_v5,2020.2.10,Win32,60,60a5f9bf14d0aa2821c4bb84,154,717,0,717,0,-0.5,19.5,1,0,0,rectangle,-0.5,19.5,1,0,0,6,"[71,135,167,160,183,133,22,49,147,141,109,62,281,40,58,188,125,148,200,19]",-0.5,19.5,1,0,0,0,153,153,37,1,,,
,,,,,,,,,,,,,FF,,,,,,,,1.62,,,,,,,,,,,,,,,,,,,,,,,,,5c5cad3e4ee81200018eafe2,60a7d8a0e00e07df34c64a83,2021-05-21_17h00.15.713,Simcolourproject_2stim_asymm_v5,2020.2.10,Win32,60,60a5f9bf14d0aa2821c4bb84,155,239,6,239,6,13.5,19.5,1,0,0,rectangle,13.5,19.5,1,0,0,2,"[71,135,167,160,183,133,22,49,147,141,109,62,281,40,58,188,125,148,200,19]",13.5,19.5,1,0,0,0,154,154,65,1,,,
,,,,,,,,,,,,,FF,,,,,,,,1.58,,,,,,,,,,,,,,,,,,,,,,,,,5c5cad3e4ee81200018eafe2,60a7d8a0e00e07df34c64a83,2021-05-21_17h00.15.713,Simcolourproject_2stim_asymm_v5,2020.2.10,Win32,60,60a5f9bf14d0aa2821c4bb84,156,1968,4,1968,4,56.5,-13.5,1,0,0,rectangle,56.5,-13.5,1,0,0,3,"[71,135,167,160,183,133,22,49,147,141,109,62,281,40,58,188,125,148,200,19]",56.5,-13.5,1,0,0,0,155,155,112,1,,,
,,,,,,,,,,,,,FF,,,,,,,,1.2,,,,,,,,,,,,,,,,,,,,,,,,,5c5cad3e4ee81200018eafe2,60a7d8a0e00e07df34c64a83,2021-05-21_17h00.15.713,Simcolourproject_2stim_asymm_v5,2020.2.10,Win32,60,60a5f9bf14d0aa2821c4bb84,157,2013,7,2013,7,26.5,19.5,1,0,0,rectangle,26.5,19.5,1,0,0,4,"[71,135,167,160,183,133,22,49,147,141,109,62,281,40,58,188,125,148,200,19]",26.5,19.5,1,0,0,0,156,156,29,1,,,
,,,,,,,,,,,,,FF,,,,,,,,0.881,,,,,,,,,,,,,,,,,,,,,,,,,5c5cad3e4ee81200018eafe2,60a7d8a0e00e07df34c64a83,2021-05-21_17h00.15.713,Simcolourproject_2stim_asymm_v5,2020.2.10,Win32,60,60a5f9bf14d0aa2821c4bb84,158,2445,7,2445,7,-0.5,13.5,1,0,0,rectangle,-0.5,13.5,1,0,0,7,"[71,135,167,160,183,133,22,49,147,141,109,62,281,40,58,188,125,148,200,19]",-0.5,13.5,1,0,0,0,157,157,7,1,,,
,,,,,,,,,,,,,FF,,,,,,,,2.051,,,,,,,,,,,,,,,,,,,,,,,,,5c5cad3e4ee81200018eafe2,60a7d8a0e00e07df34c64a83,2021-05-21_17h00.15.713,Simcolourproject_2stim_asymm_v5,2020.2.10,Win32,60,60a5f9bf14d0aa2821c4bb84,159,2367,3,2367,3,-10.5,-13.5,1,0,0,rectangle,-10.5,-13.5,1,0,0,6,"[71,135,167,160,183,133,22,49,147,141,109,62,281,40,58,188,125,148,200,19]",-10.5,-13.5,1,0,0,0,158,158,89,1,,,
,,,,,,,,,,,,,FF,,,,,,,,0.971,,,,,,,,,,,,,,,,,,,,,,,,,5c5cad3e4ee81200018eafe2,60a7d8a0e00e07df34c64a83,2021-05-21_17h00.15.713,Simcolourproject_2stim_asymm_v5,2020.2.10,Win32,60,60a5f9bf14d0aa2821c4bb84,160,2401,7,2401,7,29.5,-6.5,1,0,0,rectangle,-113.5,-253.5,1,0,0,3,"[71,135,167,160,183,133,22,49,147,141,109,62,281,40,58,188,125,148,200,19]",6.5,9.5,1,0,0,0,159,159,63,1,,response5disk_3,rectangle
,,,,,,,,,,,,,FF,,,,,,,,0.901,,,,,,,,,,,,,,,,,,,,,,,,,5c5cad3e4ee81200018eafe2,60a7d8a0e00e07df34c64a83,2021-05-21_17h00.15.713,Simcolourproject_2stim_asymm_v5,2020.2.10,Win32,60,60a5f9bf14d0aa2821c4bb84,161,229,7,229,7,9.5,13.5,1,0,0,rectangle,9.5,13.5,1,0,0,0,"[71,135,167,160,183,133,22,49,147,141,109,62,281,40,58,188,125,148,200,19]",9.5,13.5,1,0,0,0,160,160,101,1,,,
,,,,,,,,,,,,,FF,,,,,,,,0.9,,,,,,,,,,,,,,,,,,,,,,,,,5c5cad3e4ee81200018eafe2,60a7d8a0e00e07df34c64a83,2021-05-21_17h00.15.713,Simcolourproject_2stim_asymm_v5,2020.2.10,Win32,60,60a5f9bf14d0aa2821c4bb84,162,3165,7,3165,7,19.5,19.5,1,0,0,rectangle,19.5,19.5,1,0,0,4,"[71,135,167,160,183,133,22,49,147,141,109,62,281,40,58,188,125,148,200,19]",19.5,19.5,1,0,0,1,0,161,59,1,,,
,,,,,,,,,,,,,FF,,,,,,,,0.87,,,,,,,,,,,,,,,,,,,,,,,,,5c5cad3e4ee81200018eafe2,60a7d8a0e00e07df34c64a83,2021-05-21_17h00.15.713,Simcolourproject_2stim_asymm_v5,2020.2.10,Win32,60,60a5f9bf14d0aa2821c4bb84,163,670,7,670,7,9.5,9.5,1,0,0,rectangle,9.5,9.5,1,0,0,7,"[71,135,167,160,183,133,22,49,147,141,109,62,281,40,58,188,125,148,200,19]",9.5,9.5,1,0,0,1,1,162,130,1,,,
,,,,,,,,,,,,,FF,,,,,,,,0.929,,,,,,,,,,,,,,,,,,,,,,,,,5c5cad3e4ee81200018eafe2,60a7d8a0e00e07df34c64a83,2021-05-21_17h00.15.713,Simcolourproject_2stim_asymm_v5,2020.2.10,Win32,60,60a5f9bf14d0aa2821c4bb84,,3082,7,3082,7,9.5,-3.5,1,0,0,rectangle,9.5,-3.5,1,0,0,7,"[71,135,167,160,183,133,22,49,147,141,109,62,281,40,58,188,125,148,200,19]",9.5,-3.5,1,0,0,1,2,163,83,1,,,
,,,,,,,,,,,,,FF,,,,,,,,0.8,,,,,,,,,,,,,,,,,,,,,,,,,5c5cad3e4ee81200018eafe2,60a7d8a0e00e07df34c64a83,2021-05-21_17h00.15.713,Simcolourproject_2stim_asymm_v5,2020.2.10,Win32,60,60a5f9bf14d0aa2821c4bb84,,391,7,391,7,13.5,13.5,1,0,0,rectangle,13.5,13.5,1,0,0,5,"[71,135,167,160,183,133,22,49,147,141,109,62,281,40,58,188,125,148,200,19]",13.5,13.5,1,0,0,1,3,164,104,1,,,
,,,,,,,,,,,,,FF,,,,,,,,1.58,,,,,,,,,,,,,,,,,,,,,,,,,5c5cad3e4ee81200018eafe2,60a7d8a0e00e07df34c64a83,2021-05-21_17h00.15.713,Simcolourproject_2stim_asymm_v5,2020.2.10,Win32,60,60a5f9bf14d0aa2821c4bb84,,294,7,294,7,16.5,-33.5,1,0,0,rectangle,16.5,-33.5,1,0,0,4,"[71,135,167,160,183,133,22,49,147,141,109,62,281,40,58,188,125,148,200,19]",16.5,-33.5,1,0,0,1,4,165,24,1,,,
,,,,,,,,,,,,,FF,,,,,,,,1.352,,,,,,,,,,,,,,,,,,,,,,,,,5c5cad3e4ee81200018eafe2,60a7d8a0e00e07df34c64a83,2021-05-21_17h00.15.713,Simcolourproject_2stim_asymm_v5,2020.2.10,Win32,60,60a5f9bf14d0aa2821c4bb84,,717,0,717,0,63.5,-10.5,1,0,0,rectangle,69.5,293.5,1,0,0,7,"[71,135,167,160,183,133,22,49,147,141,109,62,281,40,58,188,125,148,200,19]",36.5,16.5,1,0,0,1,5,166,41,1,,response1disk_3,rectangle
,,,,,,,,,,,,,FF,,,,,,,,1.27,,,,,,,,,,,,,,,,,,,,,,,,,5c5cad3e4ee81200018eafe2,60a7d8a0e00e07df34c64a83,2021-05-21_17h00.15.713,Simcolourproject_2stim_asymm_v5,2020.2.10,Win32,60,60a5f9bf14d0aa2821c4bb84,,3676,7,3676,7,-6.5,-10.5,1,0,0,rectangle,-6.5,-10.5,1,0,0,4,"[71,135,167,160,183,133,22,49,147,141,109,62,281,40,58,188,125,148,200,19]",-6.5,-10.5,1,0,0,1,6,167,91,1,,,
,,,,,,,,,,,,,FF,,,,,,,,1.302,,,,,,,,,,,,,,,,,,,,,,,,,5c5cad3e4ee81200018eafe2,60a7d8a0e00e07df34c64a83,2021-05-21_17h00.15.713,Simcolourproject_2stim_asymm_v5,2020.2.10,Win32,60,60a5f9bf14d0aa2821c4bb84,,4,3,4,3,3.5,-0.5,1,0,0,rectangle,3.5,-0.5,1,0,0,4,"[71,135,167,160,183,133,22,49,147,141,109,62,281,40,58,188,125,148,200,19]",3.5,-0.5,1,0,0,1,7,168,80,1,,,
,,,,,,,,,,,,,FF,,,,,,,,0.999,,,,,,,,,,,,,,,,,,,,,,,,,5c5cad3e4ee81200018eafe2,60a7d8a0e00e07df34c64a83,2021-05-21_17h00.15.713,Simcolourproject_2stim_asymm_v5,2020.2.10,Win32,60,60a5f9bf14d0aa2821c4bb84,,2026,3,2026,3,26.5,9.5,1,0,0,rectangle,26.5,9.5,1,0,0,4,"[71,135,167,160,183,133,22,49,147,141,109,62,281,40,58,188,125,148,200,19]",26.5,9.5,1,0,0,1,8,169,154,1,,,
,,,,,,,,,,,,,FF,,,,,,,,1.069,,,,,,,,,,,,,,,,,,,,,,,,,5c5cad3e4ee81200018eafe2,60a7d8a0e00e07df34c64a83,2021-05-21_17h00.15.713,Simcolourproject_2stim_asymm_v5,2020.2.10,Win32,60,60a5f9bf14d0aa2821c4bb84,,643,6,643,6,33.5,-10.5,1,0,0,rectangle,33.5,-10.5,1,0,0,6,"[71,135,167,160,183,133,22,49,147,141,109,62,281,40,58,188,125,148,200,19]",33.5,-10.5,1,0,0,1,9,170,82,1,,,
,,,,,,,,,,,,,FF,,,,,,,,0.93,,,,,,,,,,,,,,,,,,,,,,,,,5c5cad3e4ee81200018eafe2,60a7d8a0e00e07df34c64a83,2021-05-21_17h00.15.713,Simcolourproject_2stim_asymm_v5,2020.2.10,Win32,60,60a5f9bf14d0aa2821c4bb84,,3611,7,3611,7,6.5,19.5,1,0,0,rectangle,6.5,19.5,1,0,0,7,"[71,135,167,160,183,133,22,49,147,141,109,62,281,40,58,188,125,148,200,19]",6.5,19.5,1,0,0,1,10,171,57,1,,,
,,,,,,,,,,,,,FF,,,,,,,,1.121,,,,,,,,,,,,,,,,,,,,,,,,,5c5cad3e4ee81200018eafe2,60a7d8a0e00e07df34c64a83,2021-05-21_17h00.15.713,Simcolourproject_2stim_asymm_v5,2020.2.10,Win32,60,60a5f9bf14d0aa2821c4bb84,,3248,3,3248,3,-16.5,-10.5,1,0,0,rectangle,-16.5,-10.5,1,0,0,7,"[71,135,167,160,183,133,22,49,147,141,109,62,281,40,58,188,125,148,200,19]",-16.5,-10.5,1,0,0,1,11,172,73,1,,,
,,,,,,,,,,,,,FF,,,,,,,,1.151,,,,,,,,,,,,,,,,,,,,,,,,,5c5cad3e4ee81200018eafe2,60a7d8a0e00e07df34c64a83,2021-05-21_17h00.15.713,Simcolourproject_2stim_asymm_v5,2020.2.10,Win32,60,60a5f9bf14d0aa2821c4bb84,,435,3,435,3,23.5,23.5,1,0,0,rectangle,23.5,23.5,1,0,0,2,"[71,135,167,160,183,133,22,49,147,141,109,62,281,40,58,188,125,148,200,19]",23.5,23.5,1,0,0,1,12,173,49,1,,,
,,,,,,,,,,,,,FF,,,,,,,,0.8,,,,,,,,,,,,,,,,,,,,,,,,,5c5cad3e4ee81200018eafe2,60a7d8a0e00e07df34c64a83,2021-05-21_17h00.15.713,Simcolourproject_2stim_asymm_v5,2020.2.10,Win32,60,60a5f9bf14d0aa2821c4bb84,,2458,7,2458,7,39.5,29.5,1,0,0,rectangle,39.5,29.5,1,0,0,2,"[71,135,167,160,183,133,22,49,147,141,109,62,281,40,58,188,125,148,200,19]",39.5,29.5,1,0,0,1,13,174,55,1,,,
,,,,,,,,,,,,,FF,,,,,,,,1.451,,,,,,,,,,,,,,,,,,,,,,,,,5c5cad3e4ee81200018eafe2,60a7d8a0e00e07df34c64a83,2021-05-21_17h00.15.713,Simcolourproject_2stim_asymm_v5,2020.2.10,Win32,60,60a5f9bf14d0aa2821c4bb84,,1914,5,1914,5,29.5,23.5,1,0,0,rectangle,29.5,23.5,1,0,0,3,"[71,135,167,160,183,133,22,49,147,141,109,62,281,40,58,188,125,148,200,19]",29.5,23.5,1,0,0,1,14,175,113,1,,,
,,,,,,,,,,,,,FF,,,,,,,,1.78,,,,,,,,,,,,,,,,,,,,,,,,,5c5cad3e4ee81200018eafe2,60a7d8a0e00e07df34c64a83,2021-05-21_17h00.15.713,Simcolourproject_2stim_asymm_v5,2020.2.10,Win32,60,60a5f9bf14d0aa2821c4bb84,,1911,6,1911,6,29.5,-6.5,1,0,0,rectangle,29.5,-6.5,1,0,0,3,"[71,135,167,160,183,133,22,49,147,141,109,62,281,40,58,188,125,148,200,19]",29.5,-6.5,1,0,0,1,15,176,76,1,,,
,,,,,,,,,,,,,FF,,,,,,,,0.92,,,,,,,,,,,,,,,,,,,,,,,,,5c5cad3e4ee81200018eafe2,60a7d8a0e00e07df34c64a83,2021-05-21_17h00.15.713,Simcolourproject_2stim_asymm_v5,2020.2.10,Win32,60,60a5f9bf14d0aa2821c4bb84,,4217,7,4217,7,-20.5,-23.5,1,0,0,rectangle,-20.5,-23.5,1,0,0,5,"[71,135,167,160,183,133,22,49,147,141,109,62,281,40,58,188,125,148,200,19]",-20.5,-23.5,1,0,0,1,16,177,86,1,,,
,,,,,,,,,,,,,FF,,,,,,,,0.8,,,,,,,,,,,,,,,,,,,,,,,,,5c5cad3e4ee81200018eafe2,60a7d8a0e00e07df34c64a83,2021-05-21_17h00.15.713,Simcolourproject_2stim_asymm_v5,2020.2.10,Win32,60,60a5f9bf14d0aa2821c4bb84,,1929,7,1929,7,26.5,26.5,1,0,0,rectangle,26.5,26.5,1,0,0,4,"[71,135,167,160,183,133,22,49,147,141,109,62,281,40,58,188,125,148,200,19]",26.5,26.5,1,0,0,1,17,178,16,1,,,
,,,,,,,,,,,,,FF,,,,,,,,0.921,,,,,,,,,,,,,,,,,,,,,,,,,5c5cad3e4ee81200018eafe2,60a7d8a0e00e07df34c64a83,2021-05-21_17h00.15.713,Simcolourproject_2stim_asymm_v5,2020.2.10,Win32,60,60a5f9bf14d0aa2821c4bb84,,692,7,692,7,-6.5,29.5,1,0,0,rectangle,-6.5,29.5,1,0,0,0,"[71,135,167,160,183,133,22,49,147,141,109,62,281,40,58,188,125,148,200,19]",-6.5,29.5,1,0,0,1,18,179,38,1,,,
,,,,,,,,,,,,,FF,,,,,,,,0.9,,,,,,,,,,,,,,,,,,,,,,,,,5c5cad3e4ee81200018eafe2,60a7d8a0e00e07df34c64a83,2021-05-21_17h00.15.713,Simcolourproject_2stim_asymm_v5,2020.2.10,Win32,60,60a5f9bf14d0aa2821c4bb84,,267,7,267,7,13.5,-0.5,1,0,0,rectangle,13.5,-0.5,1,0,0,4,"[71,135,167,160,183,133,22,49,147,141,109,62,281,40,58,188,125,148,200,19]",13.5,-0.5,1,0,0,1,19,180,42,1,,,
,,,,,,,,,,,,,FF,,,,,,,,0.829,,,,,,,,,,,,,,,,,,,,,,,,,5c5cad3e4ee81200018eafe2,60a7d8a0e00e07df34c64a83,2021-05-21_17h00.15.713,Simcolourproject_2stim_asymm_v5,2020.2.10,Win32,60,60a5f9bf14d0aa2821c4bb84,,2689,7,2689,7,19.5,6.5,1,0,0,rectangle,19.5,6.5,1,0,0,6,"[71,135,167,160,183,133,22,49,147,141,109,62,281,40,58,188,125,148,200,19]",19.5,6.5,1,0,0,1,20,181,101,1,,,
,,,,,,,,,,,,,FF,,,,,,,,2.08,,,,,,,,,,,,,,,,,,,,,,,,,5c5cad3e4ee81200018eafe2,60a7d8a0e00e07df34c64a83,2021-05-21_17h00.15.713,Simcolourproject_2stim_asymm_v5,2020.2.10,Win32,60,60a5f9bf14d0aa2821c4bb84,,3049,7,3049,7,-43.5,-16.5,1,0,0,rectangle,-126.5,289.5,1,0,0,0,"[71,135,167,160,183,133,22,49,147,141,109,62,281,40,58,188,125,148,200,19]",-10.5,6.5,1,0,0,1,21,182,56,1,,response7disk_3,rectangle
,,,,,,,,,,,,,FF,,,,,,,,0.93,,,,,,,,,,,,,,,,,,,,,,,,,5c5cad3e4ee81200018eafe2,60a7d8a0e00e07df34c64a83,2021-05-21_17h00.15.713,Simcolourproject_2stim_asymm_v5,2020.2.10,Win32,60,60a5f9bf14d0aa2821c4bb84,,2401,7,2401,7,16.5,-13.5,1,0,0,rectangle,16.5,-13.5,1,0,0,7,"[71,135,167,160,183,133,22,49,147,141,109,62,281,40,58,188,125,148,200,19]",16.5,-13.5,1,0,0,1,22,183,132,1,,,
,,,,,,,,,,,,,FF,,,,,,,,1.351,,,,,,,,,,,,,,,,,,,,,,,,,5c5cad3e4ee81200018eafe2,60a7d8a0e00e07df34c64a83,2021-05-21_17h00.15.713,Simcolourproject_2stim_asymm_v5,2020.2.10,Win32,60,60a5f9bf14d0aa2821c4bb84,,2533,3,2533,3,13.5,6.5,1,0,0,rectangle,13.5,6.5,1,0,0,3,"[71,135,167,160,183,133,22,49,147,141,109,62,281,40,58,188,125,148,200,19]",13.5,6.5,1,0,0,1,23,184,153,1,,,
,,,,,,,,,,,,,FF,,,,,,,,0.98,,,,,,,,,,,,,,,,,,,,,,,,,5c5cad3e4ee81200018eafe2,60a7d8a0e00e07df34c64a83,2021-05-21_17h00.15.713,Simcolourproject_2stim_asymm_v5,2020.2.10,Win32,60,60a5f9bf14d0aa2821c4bb84,,2558,7,2558,7,19.5,-23.5,1,0,0,rectangle,19.5,-23.5,1,0,0,5,"[71,135,167,160,183,133,22,49,147,141,109,62,281,40,58,188,125,148,200,19]",19.5,-23.5,1,0,0,1,24,185,93,1,,,
,,,,,,,,,,,,,FF,,,,,,,,0.889,,,,,,,,,,,,,,,,,,,,,,,,,5c5cad3e4ee81200018eafe2,60a7d8a0e00e07df34c64a83,2021-05-21_17h00.15.713,Simcolourproject_2stim_asymm_v5,2020.2.10,Win32,60,60a5f9bf14d0aa2821c4bb84,,2632,7,2632,7,-6.5,-3.5,1,0,0,rectangle,-6.5,-3.5,1,0,0,7,"[71,135,167,160,183,133,22,49,147,141,109,62,281,40,58,188,125,148,200,19]",-6.5,-3.5,1,0,0,1,25,186,75,1,,,
,,,,,,,,,,,,,FF,,,,,,,,0.8,,,,,,,,,,,,,,,,,,,,,,,,,5c5cad3e4ee81200018eafe2,60a7d8a0e00e07df34c64a83,2021-05-21_17h00.15.713,Simcolourproject_2stim_asymm_v5,2020.2.10,Win32,60,60a5f9bf14d0aa2821c4bb84,,2334,7,2334,7,-0.5,6.5,1,0,0,rectangle,139.5,236.5,1,0,0,7,"[71,135,167,160,183,133,22,49,147,141,109,62,281,40,58,188,125,148,200,19]",36.5,3.5,1,0,0,1,26,187,20,1,,response1disk_3,rectangle
,,,,,,,,,,,,,FF,,,,,,,,0.951,,,,,,,,,,,,,,,,,,,,,,,,,5c5cad3e4ee81200018eafe2,60a7d8a0e00e07df34c64a83,2021-05-21_17h00.15.713,Simcolourproject_2stim_asymm_v5,2020.2.10,Win32,60,60a5f9bf14d0aa2821c4bb84,,2810,7,2810,7,23.5,13.5,1,0,0,rectangle,23.5,13.5,1,0,0,6,"[71,135,167,160,183,133,22,49,147,141,109,62,281,40,58,188,125,148,200,19]",23.5,13.5,1,0,0,1,27,188,144,1,,,
,,,,,,,,,,,,,FF,,,,,,,,0.81,,,,,,,,,,,,,,,,,,,,,,,,,5c5cad3e4ee81200018eafe2,60a7d8a0e00e07df34c64a83,2021-05-21_17h00.15.713,Simcolourproject_2stim_asymm_v5,2020.2.10,Win32,60,60a5f9bf14d0aa2821c4bb84,,143,7,143,7,33.5,6.5,1,0,0,rectangle,33.5,6.5,1,0,0,7,"[71,135,167,160,183,133,22,49,147,141,109,62,281,40,58,188,125,148,200,19]",33.5,6.5,1,0,0,1,28,189,45,1,,,
,,,,,,,,,,,,,FF,,,,,,,,1.2,,,,,,,,,,,,,,,,,,,,,,,,,5c5cad3e4ee81200018eafe2,60a7d8a0e00e07df34c64a83,2021-05-21_17h00.15.713,Simcolourproject_2stim_asymm_v5,2020.2.10,Win32,60,60a5f9bf14d0aa2821c4bb84,,2837,3,2837,3,-0.5,-10.5,1,0,0,rectangle,-0.5,-10.5,1,0,0,0,"[71,135,167,160,183,133,22,49,147,141,109,62,281,40,58,188,125,148,200,19]",-0.5,-10.5,1,0,0,1,29,190,64,1,,,
,,,,,,,,,,,,,FF,,,,,,,,0.897,,,,,,,,,,,,,,,,,,,,,,,,,5c5cad3e4ee81200018eafe2,60a7d8a0e00e07df34c64a83,2021-05-21_17h00.15.713,Simcolourproject_2stim_asymm_v5,2020.2.10,Win32,60,60a5f9bf14d0aa2821c4bb84,,2039,3,2039,3,6.5,16.5,1,0,0,rectangle,6.5,16.5,1,0,0,0,"[71,135,167,160,183,133,22,49,147,141,109,62,281,40,58,188,125,148,200,19]",6.5,16.5,1,0,0,1,30,191,46,1,,,
,,,,,,,,,,,,,FF,,,,,,,,0.77,,,,,,,,,,,,,,,,,,,,,,,,,5c5cad3e4ee81200018eafe2,60a7d8a0e00e07df34c64a83,2021-05-21_17h00.15.713,Simcolourproject_2stim_asymm_v5,2020.2.10,Win32,60,60a5f9bf14d0aa2821c4bb84,,966,7,966,7,-3.5,-16.5,1,0,0,rectangle,-3.5,-16.5,1,0,0,3,"[71,135,167,160,183,133,22,49,147,141,109,62,281,40,58,188,125,148,200,19]",-3.5,-16.5,1,0,0,1,31,192,33,1,,,
,,,,,,,,,,,,,FF,,,,,,,,1.6,,,,,,,,,,,,,,,,,,,,,,,,,5c5cad3e4ee81200018eafe2,60a7d8a0e00e07df34c64a83,2021-05-21_17h00.15.713,Simcolourproject_2stim_asymm_v5,2020.2.10,Win32,60,60a5f9bf14d0aa2821c4bb84,,2419,4,2419,4,16.5,6.5,1,0,0,rectangle,16.5,6.5,1,0,0,0,"[71,135,167,160,183,133,22,49,147,141,109,62,281,40,58,188,125,148,200,19]",16.5,6.5,1,0,0,1,32,193,60,1,,,
,,,,,,,,,,,,,FF,,,,,,,,0.751,,,,,,,,,,,,,,,,,,,,,,,,,5c5cad3e4ee81200018eafe2,60a7d8a0e00e07df34c64a83,2021-05-21_17h00.15.713,Simcolourproject_2stim_asymm_v5,2020.2.10,Win32,60,60a5f9bf14d0aa2821c4bb84,,42,7,42,7,16.5,-3.5,1,0,0,rectangle,16.5,-3.5,1,0,0,6,"[71,135,167,160,183,133,22,49,147,141,109,62,281,40,58,188,125,148,200,19]",16.5,-3.5,1,0,0,1,33,194,23,1,,,
,,,,,,,,,,,,,FF,,,,,,,,0.881,,,,,,,,,,,,,,,,,,,,,,,,,5c5cad3e4ee81200018eafe2,60a7d8a0e00e07df34c64a83,2021-05-21_17h00.15.713,Simcolourproject_2stim_asymm_v5,2020.2.10,Win32,60,60a5f9bf14d0aa2821c4bb84,,1208,7,1208,7,9.5,-10.5,1,0,0,rectangle,9.5,-10.5,1,0,0,6,"[71,135,167,160,183,133,22,49,147,141,109,62,281,40,58,188,125,148,200,19]",9.5,-10.5,1,0,0,1,34,195,109,1,,,
,,,,,,,,,,,,,FF,,,,,,,,1.779,,,,,,,,,,,,,,,,,,,,,,,,,5c5cad3e4ee81200018eafe2,60a7d8a0e00e07df34c64a83,2021-05-21_17h00.15.713,Simcolourproject_2stim_asymm_v5,2020.2.10,Win32,60,60a5f9bf14d0aa2821c4bb84,,867,6,867,6,9.5,6.5,1,0,0,rectangle,9.5,6.5,1,0,0,2,"[71,135,167,160,183,133,22,49,147,141,109,62,281,40,58,188,125,148,200,19]",9.5,6.5,1,0,0,1,35,196,25,1,,,
,,,,,,,,,,,,,FF,,,,,,,,1.43,,,,,,,,,,,,,,,,,,,,,,,,,5c5cad3e4ee81200018eafe2,60a7d8a0e00e07df34c64a83,2021-05-21_17h00.15.713,Simcolourproject_2stim_asymm_v5,2020.2.10,Win32,60,60a5f9bf14d0aa2821c4bb84,,1691,5,1691,5,-43.5,-3.5,1,0,0,rectangle,-43.5,-3.5,1,0,0,1,"[71,135,167,160,183,133,22,49,147,141,109,62,281,40,58,188,125,148,200,19]",-43.5,-3.5,1,0,0,1,36,197,138,1,,,
,,,,,,,,,,,,,FF,,,,,,,,0.721,,,,,,,,,,,,,,,,,,,,,,,,,5c5cad3e4ee81200018eafe2,60a7d8a0e00e07df34c64a83,2021-05-21_17h00.15.713,Simcolourproject_2stim_asymm_v5,2020.2.10,Win32,60,60a5f9bf14d0aa2821c4bb84,,2124,7,2124,7,16.5,23.5,1,0,0,rectangle,16.5,23.5,1,0,0,7,"[71,135,167,160,183,133,22,49,147,141,109,62,281,40,58,188,125,148,200,19]",16.5,23.5,1,0,0,1,37,198,85,1,,,
,,,,,,,,,,,,,FF,,,,,,,,0.78,,,,,,,,,,,,,,,,,,,,,,,,,5c5cad3e4ee81200018eafe2,60a7d8a0e00e07df34c64a83,2021-05-21_17h00.15.713,Simcolourproject_2stim_asymm_v5,2020.2.10,Win32,60,60a5f9bf14d0aa2821c4bb84,,3614,7,3614,7,-20.5,-23.5,1,0,0,rectangle,249.5,-126.5,1,0,0,5,"[71,135,167,160,183,133,22,49,147,141,109,62,281,40,58,188,125,148,200,19]",3.5,6.5,1,0,0,1,38,199,58,1,,response3disk_3,rectangle
,,,,,,,,,,,,,FF,,,,,,,,1.819,,,,,,,,,,,,,,,,,,,,,,,,,5c5cad3e4ee81200018eafe2,60a7d8a0e00e07df34c64a83,2021-05-21_17h00.15.713,Simcolourproject_2stim_asymm_v5,2020.2.10,Win32,60,60a5f9bf14d0aa2821c4bb84,,1584,6,1584,6,33.5,16.5,1,0,0,rectangle,33.5,16.5,1,0,0,2,"[71,135,167,160,183,133,22,49,147,141,109,62,281,40,58,188,125,148,200,19]",33.5,16.5,1,0,0,1,39,200,61,1,,,
,,,,,,,,,,,,,FF,,,,,,,,1.25,,,,,,,,,,,,,,,,,,,,,,,,,5c5cad3e4ee81200018eafe2,60a7d8a0e00e07df34c64a83,2021-05-21_17h00.15.713,Simcolourproject_2stim_asymm_v5,2020.2.10,Win32,60,60a5f9bf14d0aa2821c4bb84,,3746,3,3746,3,3.5,-30.5,1,0,0,rectangle,3.5,-30.5,1,0,0,7,"[71,135,167,160,183,133,22,49,147,141,109,62,281,40,58,188,125,148,200,19]",3.5,-30.5,1,0,0,1,40,201,28,1,,,
,,,,,,,,,,,,,FF,,,,,,,,0.85,,,,,,,,,,,,,,,,,,,,,,,,,5c5cad3e4ee81200018eafe2,60a7d8a0e00e07df34c64a83,2021-05-21_17h00.15.713,Simcolourproject_2stim_asymm_v5,2020.2.10,Win32,60,60a5f9bf14d0aa2821c4bb84,,2233,0,2233,0,-26.5,43.5,1,0,0,rectangle,-26.5,43.5,1,0,0,3,"[71,135,167,160,183,133,22,49,147,141,109,62,281,40,58,188,125,148,200,19]",-26.5,43.5,1,0,0,1,41,202,34,1,,,
,,,,,,,,,,,,,FF,,,,,,,,1.88,,,,,,,,,,,,,,,,,,,,,,,,,5c5cad3e4ee81200018eafe2,60a7d8a0e00e07df34c64a83,2021-05-21_17h00.15.713,Simcolourproject_2stim_asymm_v5,2020.2.10,Win32,60,60a5f9bf14d0aa2821c4bb84,,3632,4,3632,4,-13.5,-0.5,1,0,0,rectangle,-13.5,-0.5,1,0,0,2,"[71,135,167,160,183,133,22,49,147,141,109,62,281,40,58,188,125,148,200,19]",-13.5,-0.5,1,0,0,1,42,203,118,1,,,
,,,,,,,,,,,,,FF,,,,,,,,0.851,,,,,,,,,,,,,,,,,,,,,,,,,5c5cad3e4ee81200018eafe2,60a7d8a0e00e07df34c64a83,2021-05-21_17h00.15.713,Simcolourproject_2stim_asymm_v5,2020.2.10,Win32,60,60a5f9bf14d0aa2821c4bb84,,4209,7,4209,7,3.5,23.5,1,0,0,rectangle,3.5,23.5,1,0,0,3,"[71,135,167,160,183,133,22,49,147,141,109,62,281,40,58,188,125,148,200,19]",3.5,23.5,1,0,0,1,43,204,145,1,,,
,,,,,,,,,,,,,FF,,,,,,,,1.05,,,,,,,,,,,,,,,,,,,,,,,,,5c5cad3e4ee81200018eafe2,60a7d8a0e00e07df34c64a83,2021-05-21_17h00.15.713,Simcolourproject_2stim_asymm_v5,2020.2.10,Win32,60,60a5f9bf14d0aa2821c4bb84,,3245,3,3245,3,-23.5,-10.5,1,0,0,rectangle,-23.5,-10.5,1,0,0,0,"[71,135,167,160,183,133,22,49,147,141,109,62,281,40,58,188,125,148,200,19]",-23.5,-10.5,1,0,0,1,44,205,117,1,,,
,,,,,,,,,,,,,FF,,,,,,,,1.15,,,,,,,,,,,,,,,,,,,,,,,,,5c5cad3e4ee81200018eafe2,60a7d8a0e00e07df34c64a83,2021-05-21_17h00.15.713,Simcolourproject_2stim_asymm_v5,2020.2.10,Win32,60,60a5f9bf14d0aa2821c4bb84,,951,4,951,4,6.5,3.5,1,0,0,rectangle,6.5,3.5,1,0,0,7,"[71,135,167,160,183,133,22,49,147,141,109,62,281,40,58,188,125,148,200,19]",6.5,3.5,1,0,0,1,45,206,30,1,,,
,,,,,,,,,,,,,FF,,,,,,,,2.4,,,,,,,,,,,,,,,,,,,,,,,,,5c5cad3e4ee81200018eafe2,60a7d8a0e00e07df34c64a83,2021-05-21_17h00.15.713,Simcolourproject_2stim_asymm_v5,2020.2.10,Win32,60,60a5f9bf14d0aa2821c4bb84,,544,3,544,3,26.5,-10.5,1,0,0,rectangle,26.5,-10.5,1,0,0,2,"[71,135,167,160,183,133,22,49,147,141,109,62,281,40,58,188,125,148,200,19]",26.5,-10.5,1,0,0,1,46,207,68,1,,,
,,,,,,,,,,,,,FF,,,,,,,,0.78,,,,,,,,,,,,,,,,,,,,,,,,,5c5cad3e4ee81200018eafe2,60a7d8a0e00e07df34c64a83,2021-05-21_17h00.15.713,Simcolourproject_2stim_asymm_v5,2020.2.10,Win32,60,60a5f9bf14d0aa2821c4bb84,,1416,7,1416,7,36.5,3.5,1,0,0,rectangle,36.5,3.5,1,0,0,7,"[71,135,167,160,183,133,22,49,147,141,109,62,281,40,58,188,125,148,200,19]",36.5,3.5,1,0,0,1,47,208,47,1,,,
,,,,,,,,,,,,,FF,,,,,,,,0.95,,,,,,,,,,,,,,,,,,,,,,,,,5c5cad3e4ee81200018eafe2,60a7d8a0e00e07df34c64a83,2021-05-21_17h00.15.713,Simcolourproject_2stim_asymm_v5,2020.2.10,Win32,60,60a5f9bf14d0aa2821c4bb84,,3165,7,3165,7,33.5,9.5,1,0,0,rectangle,33.5,9.5,1,0,0,0,"[71,135,167,160,183,133,22,49,147,141,109,62,281,40,58,188,125,148,200,19]",33.5,9.5,1,0,0,1,48,209,136,1,,,
,,,,,,,,,,,,,FF,,,,,,,,2.149,,,,,,,,,,,,,,,,,,,,,,,,,5c5cad3e4ee81200018eafe2,60a7d8a0e00e07df34c64a83,2021-05-21_17h00.15.713,Simcolourproject_2stim_asymm_v5,2020.2.10,Win32,60,60a5f9bf14d0aa2821c4bb84,,2783,3,2783,3,9.5,-13.5,1,0,0,rectangle,9.5,-13.5,1,0,0,6,"[71,135,167,160,183,133,22,49,147,141,109,62,281,40,58,188,125,148,200,19]",9.5,-13.5,1,0,0,1,49,210,84,1,,,
,,,,,,,,,,,,,FF,,,,,,,,0.729,,,,,,,,,,,,,,,,,,,,,,,,,5c5cad3e4ee81200018eafe2,60a7d8a0e00e07df34c64a83,2021-05-21_17h00.15.713,Simcolourproject_2stim_asymm_v5,2020.2.10,Win32,60,60a5f9bf14d0aa2821c4bb84,,3313,7,3313,7,13.5,16.5,1,0,0,rectangle,13.5,16.5,1,0,0,0,"[71,135,167,160,183,133,22,49,147,141,109,62,281,40,58,188,125,148,200,19]",13.5,16.5,1,0,0,1,50,211,48,1,,,
,,,,,,,,,,,,,FF,,,,,,,,1.38,,,,,,,,,,,,,,,,,,,,,,,,,5c5cad3e4ee81200018eafe2,60a7d8a0e00e07df34c64a83,2021-05-21_17h00.15.713,Simcolourproject_2stim_asymm_v5,2020.2.10,Win32,60,60a5f9bf14d0aa2821c4bb84,,2352,5,2352,5,6.5,33.5,1,0,0,rectangle,6.5,33.5,1,0,0,1,"[71,135,167,160,183,133,22,49,147,141,109,62,281,40,58,188,125,148,200,19]",6.5,33.5,1,0,0,1,51,212,22,1,,,
,,,,,,,,,,,,,FF,,,,,,,,1.25,,,,,,,,,,,,,,,,,,,,,,,,,5c5cad3e4ee81200018eafe2,60a7d8a0e00e07df34c64a83,2021-05-21_17h00.15.713,Simcolourproject_2stim_asymm_v5,2020.2.10,Win32,60,60a5f9bf14d0aa2821c4bb84,,2946,3,2946,3,-43.5,-23.5,1,0,0,rectangle,-43.5,-23.5,1,0,0,4,"[71,135,167,160,183,133,22,49,147,141,109,62,281,40,58,188,125,148,200,19]",-43.5,-23.5,1,0,0,1,52,213,149,1,,,
,,,,,,,,,,,,,FF,,,,,,,,1.752,,,,,,,,,,,,,,,,,,,,,,,,,5c5cad3e4ee81200018eafe2,60a7d8a0e00e07df34c64a83,2021-05-21_17h00.15.713,Simcolourproject_2stim_asymm_v5,2020.2.10,Win32,60,60a5f9bf14d0aa2821c4bb84,,1396,6,1396,6,26.5,-0.5,1,0,0,rectangle,26.5,-0.5,1,0,0,2,"[71,135,167,160,183,133,22,49,147,141,109,62,281,40,58,188,125,148,200,19]",26.5,-0.5,1,0,0,1,53,214,95,1,,,
,,,,,,,,,,,,,FF,,,,,,,,1.75,,,,,,,,,,,,,,,,,,,,,,,,,5c5cad3e4ee81200018eafe2,60a7d8a0e00e07df34c64a83,2021-05-21_17h00.15.713,Simcolourproject_2stim_asymm_v5,2020.2.10,Win32,60,60a5f9bf14d0aa2821c4bb84,,368,4,368,4,29.5,-33.5,1,0,0,rectangle,29.5,-33.5,1,0,0,6,"[71,135,167,160,183,133,22,49,147,141,109,62,281,40,58,188,125,148,200,19]",29.5,-33.5,1,0,0,1,54,215,4,1,,,
,,,,,,,,,,,,,FF,,,,,,,,0.951,,,,,,,,,,,,,,,,,,,,,,,,,5c5cad3e4ee81200018eafe2,60a7d8a0e00e07df34c64a83,2021-05-21_17h00.15.713,Simcolourproject_2stim_asymm_v5,2020.2.10,Win32,60,60a5f9bf14d0aa2821c4bb84,,3146,0,3146,0,-13.5,19.5,1,0,0,rectangle,-13.5,19.5,1,0,0,5,"[71,135,167,160,183,133,22,49,147,141,109,62,281,40,58,188,125,148,200,19]",-13.5,19.5,1,0,0,1,55,216,7,1,,,
,,,,,,,,,,,,,FF,,,,,,,,1.23,,,,,,,,,,,,,,,,,,,,,,,,,5c5cad3e4ee81200018eafe2,60a7d8a0e00e07df34c64a83,2021-05-21_17h00.15.713,Simcolourproject_2stim_asymm_v5,2020.2.10,Win32,60,60a5f9bf14d0aa2821c4bb84,,3386,3,3386,3,6.5,-3.5,1,0,0,rectangle,6.5,-3.5,1,0,0,0,"[71,135,167,160,183,133,22,49,147,141,109,62,281,40,58,188,125,148,200,19]",6.5,-3.5,1,0,0,1,56,217,159,1,,,
,,,,,,,,,,,,,FF,,,,,,,,1.15,,,,,,,,,,,,,,,,,,,,,,,,,5c5cad3e4ee81200018eafe2,60a7d8a0e00e07df34c64a83,2021-05-21_17h00.15.713,Simcolourproject_2stim_asymm_v5,2020.2.10,Win32,60,60a5f9bf14d0aa2821c4bb84,,1488,7,1488,7,29.5,-13.5,1,0,0,rectangle,29.5,-13.5,1,0,0,0,"[71,135,167,160,183,133,22,49,147,141,109,62,281,40,58,188,125,148,200,19]",29.5,-13.5,1,0,0,1,57,218,147,1,,,
,,,,,,,,,,,,,FF,,,,,,,,1.1,,,,,,,,,,,,,,,,,,,,,,,,,5c5cad3e4ee81200018eafe2,60a7d8a0e00e07df34c64a83,2021-05-21_17h00.15.713,Simcolourproject_2stim_asymm_v5,2020.2.10,Win32,60,60a5f9bf14d0aa2821c4bb84,,1968,3,1968,3,-10.5,-26.5,1,0,0,rectangle,-10.5,-26.5,1,0,0,0,"[71,135,167,160,183,133,22,49,147,141,109,62,281,40,58,188,125,148,200,19]",-10.5,-26.5,1,0,0,1,58,219,15,1,,,
,,,,,,,,,,,,,FF,,,,,,,,1.18,,,,,,,,,,,,,,,,,,,,,,,,,5c5cad3e4ee81200018eafe2,60a7d8a0e00e07df34c64a83,2021-05-21_17h00.15.713,Simcolourproject_2stim_asymm_v5,2020.2.10,Win32,60,60a5f9bf14d0aa2821c4bb84,,3711,3,3711,3,-0.5,-20.5,1,0,0,rectangle,-0.5,-20.5,1,0,0,6,"[71,135,167,160,183,133,22,49,147,141,109,62,281,40,58,188,125,148,200,19]",-0.5,-20.5,1,0,0,1,59,220,106,1,,,
,,,,,,,,,,,,,FF,,,,,,,,2,,,,,,,,,,,,,,,,,,,,,,,,,5c5cad3e4ee81200018eafe2,60a7d8a0e00e07df34c64a83,2021-05-21_17h00.15.713,Simcolourproject_2stim_asymm_v5,2020.2.10,Win32,60,60a5f9bf14d0aa2821c4bb84,,3377,5,3377,5,3.5,-0.5,1,0,0,rectangle,3.5,-0.5,1,0,0,5,"[71,135,167,160,183,133,22,49,147,141,109,62,281,40,58,188,125,148,200,19]",3.5,-0.5,1,0,0,1,60,221,54,1,,,
,,,,,,,,,,,,,FF,,,,,,,,1.18,,,,,,,,,,,,,,,,,,,,,,,,,5c5cad3e4ee81200018eafe2,60a7d8a0e00e07df34c64a83,2021-05-21_17h00.15.713,Simcolourproject_2stim_asymm_v5,2020.2.10,Win32,60,60a5f9bf14d0aa2821c4bb84,,947,7,947,7,33.5,6.5,1,0,0,rectangle,33.5,6.5,1,0,0,1,"[71,135,167,160,183,133,22,49,147,141,109,62,281,40,58,188,125,148,200,19]",33.5,6.5,1,0,0,1,61,222,150,1,,,
,,,,,,,,,,,,,FF,,,,,,,,1.221,,,,,,,,,,,,,,,,,,,,,,,,,5c5cad3e4ee81200018eafe2,60a7d8a0e00e07df34c64a83,2021-05-21_17h00.15.713,Simcolourproject_2stim_asymm_v5,2020.2.10,Win32,60,60a5f9bf14d0aa2821c4bb84,,2860,7,2860,7,26.5,-16.5,1,0,0,rectangle,26.5,-16.5,1,0,0,6,"[71,135,167,160,183,133,22,49,147,141,109,62,281,40,58,188,125,148,200,19]",26.5,-16.5,1,0,0,1,62,223,2,1,,,
,,,,,,,,,,,,,FF,,,,,,,,0.67,,,,,,,,,,,,,,,,,,,,,,,,,5c5cad3e4ee81200018eafe2,60a7d8a0e00e07df34c64a83,2021-05-21_17h00.15.713,Simcolourproject_2stim_asymm_v5,2020.2.10,Win32,60,60a5f9bf14d0aa2821c4bb84,,1074,7,1074,7,16.5,-0.5,1,0,0,rectangle,16.5,-0.5,1,0,0,3,"[71,135,167,160,183,133,22,49,147,141,109,62,281,40,58,188,125,148,200,19]",16.5,-0.5,1,0,0,1,63,224,115,1,,,
,,,,,,,,,,,,,FF,,,,,,,,0.82,,,,,,,,,,,,,,,,,,,,,,,,,5c5cad3e4ee81200018eafe2,60a7d8a0e00e07df34c64a83,2021-05-21_17h00.15.713,Simcolourproject_2stim_asymm_v5,2020.2.10,Win32,60,60a5f9bf14d0aa2821c4bb84,,87,7,87,7,6.5,3.5,1,0,0,rectangle,6.5,3.5,1,0,0,3,"[71,135,167,160,183,133,22,49,147,141,109,62,281,40,58,188,125,148,200,19]",6.5,3.5,1,0,0,1,64,225,87,1,,,
,,,,,,,,,,,,,FF,,,,,,,,0.899,,,,,,,,,,,,,,,,,,,,,,,,,5c5cad3e4ee81200018eafe2,60a7d8a0e00e07df34c64a83,2021-05-21_17h00.15.713,Simcolourproject_2stim_asymm_v5,2020.2.10,Win32,60,60a5f9bf14d0aa2821c4bb84,,2250,7,2250,7,-6.5,-0.5,1,0,0,rectangle,-6.5,-0.5,1,0,0,2,"[71,135,167,160,183,133,22,49,147,141,109,62,281,40,58,188,125,148,200,19]",-6.5,-0.5,1,0,0,1,65,226,120,1,,,
,,,,,,,,,,,,,FF,,,,,,,,0.799,,,,,,,,,,,,,,,,,,,,,,,,,5c5cad3e4ee81200018eafe2,60a7d8a0e00e07df34c64a83,2021-05-21_17h00.15.713,Simcolourproject_2stim_asymm_v5,2020.2.10,Win32,60,60a5f9bf14d0aa2821c4bb84,,3832,7,3832,7,26.5,-30.5,1,0,0,rectangle,26.5,-30.5,1,0,0,4,"[71,135,167,160,183,133,22,49,147,141,109,62,281,40,58,188,125,148,200,19]",26.5,-30.5,1,0,0,1,66,227,65,1,,,
,,,,,,,,,,,,,FF,,,,,,,,0.769,,,,,,,,,,,,,,,,,,,,,,,,,5c5cad3e4ee81200018eafe2,60a7d8a0e00e07df34c64a83,2021-05-21_17h00.15.713,Simcolourproject_2stim_asymm_v5,2020.2.10,Win32,60,60a5f9bf14d0aa2821c4bb84,,2682,7,2682,7,26.5,6.5,1,0,0,rectangle,26.5,6.5,1,0,0,7,"[71,135,167,160,183,133,22,49,147,141,109,62,281,40,58,188,125,148,200,19]",26.5,6.5,1,0,0,1,67,228,89,1,,,
,,,,,,,,,,,,,FF,,,,,,,,1.428,,,,,,,,,,,,,,,,,,,,,,,,,5c5cad3e4ee81200018eafe2,60a7d8a0e00e07df34c64a83,2021-05-21_17h00.15.713,Simcolourproject_2stim_asymm_v5,2020.2.10,Win32,60,60a5f9bf14d0aa2821c4bb84,,1622,6,1622,6,3.5,39.5,1,0,0,rectangle,3.5,39.5,1,0,0,4,"[71,135,167,160,183,133,22,49,147,141,109,62,281,40,58,188,125,148,200,19]",3.5,39.5,1,0,0,1,68,229,77,1,,,
,,,,,,,,,,,,,FF,,,,,,,,0.879,,,,,,,,,,,,,,,,,,,,,,,,,5c5cad3e4ee81200018eafe2,60a7d8a0e00e07df34c64a83,2021-05-21_17h00.15.713,Simcolourproject_2stim_asymm_v5,2020.2.10,Win32,60,60a5f9bf14d0aa2821c4bb84,,938,7,938,7,-20.5,16.5,1,0,0,rectangle,-20.5,16.5,1,0,0,7,"[71,135,167,160,183,133,22,49,147,141,109,62,281,40,58,188,125,148,200,19]",-20.5,16.5,1,0,0,1,69,230,143,1,,,
,,,,,,,,,,,,,FF,,,,,,,,0.871,,,,,,,,,,,,,,,,,,,,,,,,,5c5cad3e4ee81200018eafe2,60a7d8a0e00e07df34c64a83,2021-05-21_17h00.15.713,Simcolourproject_2stim_asymm_v5,2020.2.10,Win32,60,60a5f9bf14d0aa2821c4bb84,,2416,7,2416,7,-0.5,-0.5,1,0,0,rectangle,-0.5,-0.5,1,0,0,2,"[71,135,167,160,183,133,22,49,147,141,109,62,281,40,58,188,125,148,200,19]",-0.5,-0.5,1,0,0,1,70,231,81,1,,,
,,,,,,,,,,,,,FF,,,,,,,,1.469,,,,,,,,,,,,,,,,,,,,,,,,,5c5cad3e4ee81200018eafe2,60a7d8a0e00e07df34c64a83,2021-05-21_17h00.15.713,Simcolourproject_2stim_asymm_v5,2020.2.10,Win32,60,60a5f9bf14d0aa2821c4bb84,,785,6,785,6,13.5,-20.5,1,0,0,rectangle,13.5,-20.5,1,0,0,0,"[71,135,167,160,183,133,22,49,147,141,109,62,281,40,58,188,125,148,200,19]",13.5,-20.5,1,0,0,1,71,232,160,1,,,
,,,,,,,,,,,,,FF,,,,,,,,1.05,,,,,,,,,,,,,,,,,,,,,,,,,5c5cad3e4ee81200018eafe2,60a7d8a0e00e07df34c64a83,2021-05-21_17h00.15.713,Simcolourproject_2stim_asymm_v5,2020.2.10,Win32,60,60a5f9bf14d0aa2821c4bb84,,561,7,561,7,19.5,13.5,1,0,0,rectangle,19.5,13.5,1,0,0,4,"[71,135,167,160,183,133,22,49,147,141,109,62,281,40,58,188,125,148,200,19]",19.5,13.5,1,0,0,1,72,233,142,1,,,
,,,,,,,,,,,,,FF,,,,,,,,0.73,,,,,,,,,,,,,,,,,,,,,,,,,5c5cad3e4ee81200018eafe2,60a7d8a0e00e07df34c64a83,2021-05-21_17h00.15.713,Simcolourproject_2stim_asymm_v5,2020.2.10,Win32,60,60a5f9bf14d0aa2821c4bb84,,1209,7,1209,7,-10.5,6.5,1,0,0,rectangle,-10.5,6.5,1,0,0,6,"[71,135,167,160,183,133,22,49,147,141,109,62,281,40,58,188,125,148,200,19]",-10.5,6.5,1,0,0,1,73,234,94,1,,,
,,,,,,,,,,,,,FF,,,,,,,,1.03,,,,,,,,,,,,,,,,,,,,,,,,,5c5cad3e4ee81200018eafe2,60a7d8a0e00e07df34c64a83,2021-05-21_17h00.15.713,Simcolourproject_2stim_asymm_v5,2020.2.10,Win32,60,60a5f9bf14d0aa2821c4bb84,,2570,7,2570,7,-3.5,13.5,1,0,0,rectangle,-3.5,13.5,1,0,0,1,"[71,135,167,160,183,133,22,49,147,141,109,62,281,40,58,188,125,148,200,19]",-3.5,13.5,1,0,0,1,74,235,105,1,,,
,,,,,,,,,,,,,FF,,,,,,,,0.801,,,,,,,,,,,,,,,,,,,,,,,,,5c5cad3e4ee81200018eafe2,60a7d8a0e00e07df34c64a83,2021-05-21_17h00.15.713,Simcolourproject_2stim_asymm_v5,2020.2.10,Win32,60,60a5f9bf14d0aa2821c4bb84,,497,7,497,7,-16.5,33.5,1,0,0,rectangle,-16.5,33.5,1,0,0,7,"[71,135,167,160,183,133,22,49,147,141,109,62,281,40,58,188,125,148,200,19]",-16.5,33.5,1,0,0,1,75,236,92,1,,,
,,,,,,,,,,,,,FF,,,,,,,,1.001,,,,,,,,,,,,,,,,,,,,,,,,,5c5cad3e4ee81200018eafe2,60a7d8a0e00e07df34c64a83,2021-05-21_17h00.15.713,Simcolourproject_2stim_asymm_v5,2020.2.10,Win32,60,60a5f9bf14d0aa2821c4bb84,,225,7,225,7,-26.5,9.5,1,0,0,rectangle,-26.5,9.5,1,0,0,4,"[71,135,167,160,183,133,22,49,147,141,109,62,281,40,58,188,125,148,200,19]",-26.5,9.5,1,0,0,1,76,237,69,1,,,
,,,,,,,,,,,,,FF,,,,,,,,1.6,,,,,,,,,,,,,,,,,,,,,,,,,5c5cad3e4ee81200018eafe2,60a7d8a0e00e07df34c64a83,2021-05-21_17h00.15.713,Simcolourproject_2stim_asymm_v5,2020.2.10,Win32,60,60a5f9bf14d0aa2821c4bb84,,3062,6,3062,6,33.5,-13.5,1,0,0,rectangle,33.5,-13.5,1,0,0,0,"[71,135,167,160,183,133,22,49,147,141,109,62,281,40,58,188,125,148,200,19]",33.5,-13.5,1,0,0,1,77,238,121,1,,,
,,,,,,,,,,,,,FF,,,,,,,,0.72,,,,,,,,,,,,,,,,,,,,,,,,,5c5cad3e4ee81200018eafe2,60a7d8a0e00e07df34c64a83,2021-05-21_17h00.15.713,Simcolourproject_2stim_asymm_v5,2020.2.10,Win32,60,60a5f9bf14d0aa2821c4bb84,,3183,7,3183,7,-0.5,-13.5,1,0,0,rectangle,-0.5,-13.5,1,0,0,5,"[71,135,167,160,183,133,22,49,147,141,109,62,281,40,58,188,125,148,200,19]",-0.5,-13.5,1,0,0,1,78,239,129,1,,,
,,,,,,,,,,,,,FF,,,,,,,,0.819,,,,,,,,,,,,,,,,,,,,,,,,,5c5cad3e4ee81200018eafe2,60a7d8a0e00e07df34c64a83,2021-05-21_17h00.15.713,Simcolourproject_2stim_asymm_v5,2020.2.10,Win32,60,60a5f9bf14d0aa2821c4bb84,,3017,7,3017,7,3.5,19.5,1,0,0,rectangle,3.5,19.5,1,0,0,1,"[71,135,167,160,183,133,22,49,147,141,109,62,281,40,58,188,125,148,200,19]",3.5,19.5,1,0,0,1,79,240,72,1,,,
,,,,,,,,,,,,,FF,,,,,,,,0.75,,,,,,,,,,,,,,,,,,,,,,,,,5c5cad3e4ee81200018eafe2,60a7d8a0e00e07df34c64a83,2021-05-21_17h00.15.713,Simcolourproject_2stim_asymm_v5,2020.2.10,Win32,60,60a5f9bf14d0aa2821c4bb84,,1170,7,1170,7,29.5,6.5,1,0,0,rectangle,29.5,6.5,1,0,0,6,"[71,135,167,160,183,133,22,49,147,141,109,62,281,40,58,188,125,148,200,19]",29.5,6.5,1,0,0,1,80,241,148,1,,,
,,,,,,,,,,,,,FF,,,,,,,,1.4,,,,,,,,,,,,,,,,,,,,,,,,,5c5cad3e4ee81200018eafe2,60a7d8a0e00e07df34c64a83,2021-05-21_17h00.15.713,Simcolourproject_2stim_asymm_v5,2020.2.10,Win32,60,60a5f9bf14d0aa2821c4bb84,,3374,7,3374,7,-6.5,-26.5,1,0,0,rectangle,-6.5,-26.5,1,0,0,5,"[71,135,167,160,183,133,22,49,147,141,109,62,281,40,58,188,125,148,200,19]",-6.5,-26.5,1,0,0,1,81,242,79,1,,,
,,,,,,,,,,,,,FF,,,,,,,,0.671,,,,,,,,,,,,,,,,,,,,,,,,,5c5cad3e4ee81200018eafe2,60a7d8a0e00e07df34c64a83,2021-05-21_17h00.15.713,Simcolourproject_2stim_asymm_v5,2020.2.10,Win32,60,60a5f9bf14d0aa2821c4bb84,,2331,7,2331,7,33.5,26.5,1,0,0,rectangle,33.5,26.5,1,0,0,7,"[71,135,167,160,183,133,22,49,147,141,109,62,281,40,58,188,125,148,200,19]",33.5,26.5,1,0,0,1,82,243,43,1,,,
,,,,,,,,,,,,,FF,,,,,,,,1.55,,,,,,,,,,,,,,,,,,,,,,,,,5c5cad3e4ee81200018eafe2,60a7d8a0e00e07df34c64a83,2021-05-21_17h00.15.713,Simcolourproject_2stim_asymm_v5,2020.2.10,Win32,60,60a5f9bf14d0aa2821c4bb84,,1166,6,1166,6,19.5,-13.5,1,0,0,rectangle,19.5,-13.5,1,0,0,1,"[71,135,167,160,183,133,22,49,147,141,109,62,281,40,58,188,125,148,200,19]",19.5,-13.5,1,0,0,1,83,244,71,1,,,
,,,,,,,,,,,,,FF,,,,,,,,0.901,,,,,,,,,,,,,,,,,,,,,,,,,5c5cad3e4ee81200018eafe2,60a7d8a0e00e07df34c64a83,2021-05-21_17h00.15.713,Simcolourproject_2stim_asymm_v5,2020.2.10,Win32,60,60a5f9bf14d0aa2821c4bb84,,592,7,592,7,16.5,23.5,1,0,0,rectangle,16.5,23.5,1,0,0,7,"[71,135,167,160,183,133,22,49,147,141,109,62,281,40,58,188,125,148,200,19]",16.5,23.5,1,0,0,1,84,245,107,1,,,
,,,,,,,,,,,,,FF,,,,,,,,0.849,,,,,,,,,,,,,,,,,,,,,,,,,5c5cad3e4ee81200018eafe2,60a7d8a0e00e07df34c64a83,2021-05-21_17h00.15.713,Simcolourproject_2stim_asymm_v5,2020.2.10,Win32,60,60a5f9bf14d0aa2821c4bb84,,3521,7,3521,7,-0.5,16.5,1,0,0,rectangle,-0.5,16.5,1,0,0,0,"[71,135,167,160,183,133,22,49,147,141,109,62,281,40,58,188,125,148,200,19]",-0.5,16.5,1,0,0,1,85,246,67,1,,,
,,,,,,,,,,,,,FF,,,,,,,,1.36,,,,,,,,,,,,,,,,,,,,,,,,,5c5cad3e4ee81200018eafe2,60a7d8a0e00e07df34c64a83,2021-05-21_17h00.15.713,Simcolourproject_2stim_asymm_v5,2020.2.10,Win32,60,60a5f9bf14d0aa2821c4bb84,,2367,4,2367,4,39.5,29.5,1,0,0,rectangle,39.5,29.5,1,0,0,5,"[71,135,167,160,183,133,22,49,147,141,109,62,281,40,58,188,125,148,200,19]",39.5,29.5,1,0,0,1,86,247,158,1,,,
,,,,,,,,,,,,,FF,,,,,,,,0.78,,,,,,,,,,,,,,,,,,,,,,,,,5c5cad3e4ee81200018eafe2,60a7d8a0e00e07df34c64a83,2021-05-21_17h00.15.713,Simcolourproject_2stim_asymm_v5,2020.2.10,Win32,60,60a5f9bf14d0aa2821c4bb84,,2797,7,2797,7,29.5,-13.5,1,0,0,rectangle,29.5,-13.5,1,0,0,7,"[71,135,167,160,183,133,22,49,147,141,109,62,281,40,58,188,125,148,200,19]",29.5,-13.5,1,0,0,1,87,248,0,1,,,
,,,,,,,,,,,,,FF,,,,,,,,3.021,,,,,,,,,,,,,,,,,,,,,,,,,5c5cad3e4ee81200018eafe2,60a7d8a0e00e07df34c64a83,2021-05-21_17h00.15.713,Simcolourproject_2stim_asymm_v5,2020.2.10,Win32,60,60a5f9bf14d0aa2821c4bb84,,720,7,720,7,-6.5,-16.5,1,0,0,rectangle,-6.5,-16.5,1,0,0,1,"[71,135,167,160,183,133,22,49,147,141,109,62,281,40,58,188,125,148,200,19]",-6.5,-16.5,1,0,0,1,88,249,140,1,,,
,,,,,,,,,,,,,FF,,,,,,,,0.9,,,,,,,,,,,,,,,,,,,,,,,,,5c5cad3e4ee81200018eafe2,60a7d8a0e00e07df34c64a83,2021-05-21_17h00.15.713,Simcolourproject_2stim_asymm_v5,2020.2.10,Win32,60,60a5f9bf14d0aa2821c4bb84,,2943,7,2943,7,49.5,-0.5,1,0,0,rectangle,49.5,-0.5,1,0,0,1,"[71,135,167,160,183,133,22,49,147,141,109,62,281,40,58,188,125,148,200,19]",49.5,-0.5,1,0,0,1,89,250,155,1,,,
,,,,,,,,,,,,,FF,,,,,,,,1.229,,,,,,,,,,,,,,,,,,,,,,,,,5c5cad3e4ee81200018eafe2,60a7d8a0e00e07df34c64a83,2021-05-21_17h00.15.713,Simcolourproject_2stim_asymm_v5,2020.2.10,Win32,60,60a5f9bf14d0aa2821c4bb84,,2445,7,2445,7,16.5,-10.5,1,0,0,rectangle,16.5,-10.5,1,0,0,6,"[71,135,167,160,183,133,22,49,147,141,109,62,281,40,58,188,125,148,200,19]",16.5,-10.5,1,0,0,1,90,251,10,1,,,
,,,,,,,,,,,,,FF,,,,,,,,0.781,,,,,,,,,,,,,,,,,,,,,,,,,5c5cad3e4ee81200018eafe2,60a7d8a0e00e07df34c64a83,2021-05-21_17h00.15.713,Simcolourproject_2stim_asymm_v5,2020.2.10,Win32,60,60a5f9bf14d0aa2821c4bb84,,319,7,319,7,-0.5,-3.5,1,0,0,rectangle,-0.5,-3.5,1,0,0,5,"[71,135,167,160,183,133,22,49,147,141,109,62,281,40,58,188,125,148,200,19]",-0.5,-3.5,1,0,0,1,91,252,44,1,,,
,,,,,,,,,,,,,FF,,,,,,,,1.532,,,,,,,,,,,,,,,,,,,,,,,,,5c5cad3e4ee81200018eafe2,60a7d8a0e00e07df34c64a83,2021-05-21_17h00.15.713,Simcolourproject_2stim_asymm_v5,2020.2.10,Win32,60,60a5f9bf14d0aa2821c4bb84,,1531,5,1531,5,33.5,-10.5,1,0,0,rectangle,33.5,-10.5,1,0,0,2,"[71,135,167,160,183,133,22,49,147,141,109,62,281,40,58,188,125,148,200,19]",33.5,-10.5,1,0,0,1,92,253,97,1,,,
,,,,,,,,,,,,,FF,,,,,,,,1.049,,,,,,,,,,,,,,,,,,,,,,,,,5c5cad3e4ee81200018eafe2,60a7d8a0e00e07df34c64a83,2021-05-21_17h00.15.713,Simcolourproject_2stim_asymm_v5,2020.2.10,Win32,60,60a5f9bf14d0aa2821c4bb84,,3027,7,3027,7,29.5,-6.5,1,0,0,rectangle,29.5,-6.5,1,0,0,2,"[71,135,167,160,183,133,22,49,147,141,109,62,281,40,58,188,125,148,200,19]",29.5,-6.5,1,0,0,1,93,254,98,1,,,
,,,,,,,,,,,,,FF,,,,,,,,0.95,,,,,,,,,,,,,,,,,,,,,,,,,5c5cad3e4ee81200018eafe2,60a7d8a0e00e07df34c64a83,2021-05-21_17h00.15.713,Simcolourproject_2stim_asymm_v5,2020.2.10,Win32,60,60a5f9bf14d0aa2821c4bb84,,1596,0,1596,0,-50.5,26.5,1,0,0,rectangle,-50.5,26.5,1,0,0,1,"[71,135,167,160,183,133,22,49,147,141,109,62,281,40,58,188,125,148,200,19]",-50.5,26.5,1,0,0,1,94,255,53,1,,,
,,,,,,,,,,,,,FF,,,,,,,,1.219,,,,,,,,,,,,,,,,,,,,,,,,,5c5cad3e4ee81200018eafe2,60a7d8a0e00e07df34c64a83,2021-05-21_17h00.15.713,Simcolourproject_2stim_asymm_v5,2020.2.10,Win32,60,60a5f9bf14d0aa2821c4bb84,,1682,1,1682,1,-16.5,-3.5,1,0,0,rectangle,-16.5,-3.5,1,0,0,5,"[71,135,167,160,183,133,22,49,147,141,109,62,281,40,58,188,125,148,200,19]",-16.5,-3.5,1,0,0,1,95,256,116,1,,,
