key_resp.keys,key_resp.rt,key_resp_14.keys,key_resp_14.rt,key_resp_15.keys,key_resp_15.rt,key_resp_17.keys,key_resp_17.rt,key_resp_9.keys,key_resp_9.rt,key_resp_10.keys,key_resp_10.rt,practice_comparison,Ecc,mouse_5.x,mouse_5.y,mouse_5.leftButton,mouse_5.midButton,mouse_5.rightButton,mouse_5.clicked_name,pracsimilarity,response_time,mouse_10.x,mouse_10.y,mouse_10.leftButton,mouse_10.midButton,mouse_10.rightButton,mouse_10.clicked_name,mouse_7.x,mouse_7.y,mouse_7.leftButton,mouse_7.midButton,mouse_7.rightButton,mouse_6.x,mouse_6.y,mouse_6.leftButton,mouse_6.midButton,mouse_6.rightButton,duringprac.thisRepN,duringprac.thisTrialN,duringprac.thisN,duringprac.thisIndex,duringprac.ran,participant,session,date,expName,psychopyVersion,OS,frameRate,study_id,mouse_7.clicked_name,catchpracsimilarity,catch_response_time,catchnumberprac,catchtrialorderprac,mouse_6.clicked_name,key_resp_22.keys,key_resp_22.rt,realcomparison,mouse.x,mouse.y,mouse.leftButton,mouse.midButton,mouse.rightButton,mouse.clicked_name,Colour2,similarity,mouse_2.x,mouse_2.y,mouse_2.leftButton,mouse_2.midButton,mouse_2.rightButton,mouse_2.clicked_name,mouse_3.x,mouse_3.y,mouse_3.leftButton,mouse_3.midButton,mouse_3.rightButton,mouse_11.x,mouse_11.y,mouse_11.leftButton,mouse_11.midButton,mouse_11.rightButton,trials_2.thisRepN,trials_2.thisTrialN,trials_2.thisN,trials_2.thisIndex,trials_2.ran,Colour1,mouse_3.clicked_name,catchornah,catchsimilarity,catchnumber,catchtrialorder,catchRT,mouse_11.clicked_name
space,2.4106,space,3.4973,space,11.8773,space,6.1134,space,0.7992,space,3.0183,45,FF,103,-76,1,0,0,response3disk_5,5,32.1866,-18,-12,1,0,0,rectangle_8,-18,-12,1,0,0,-18,-12,1,0,0,0,0,0,3,1,5b4acec4ff74970001255857,60e5635a470138a233dcb485,2021-07-07_11h19.14.156,Simcolourproject_2stim_asymm_v5,2020.2.10,Win32,60,60e52e7cfedb1dae636df45f,,,,,,,,,,,,,,,,,,,,,,,,,,,,,,,,,,,,,,,,,,,,,,
,,,,,,,,,,,,139,PF,83,-123,1,0,0,response3disk_5,4,4.5002,4,-2,1,0,0,rectangle_8,142,56,1,0,0,22,-3,1,0,0,0,1,1,6,1,5b4acec4ff74970001255857,60e5635a470138a233dcb485,2021-07-07_11h19.14.156,Simcolourproject_2stim_asymm_v5,2020.2.10,Win32,60,60e52e7cfedb1dae636df45f,response1disk_7,6,2.0846,6,"[2,5]",rectangle_4,,,,,,,,,,,,,,,,,,,,,,,,,,,,,,,,,,,,,,,,
,,,,,,,,,,,,6,PF,123,-58,1,0,0,response3disk_5,5,3.5501,12,-6,1,0,0,rectangle_8,12,-6,1,0,0,12,-6,1,0,0,0,2,2,2,1,5b4acec4ff74970001255857,60e5635a470138a233dcb485,2021-07-07_11h19.14.156,Simcolourproject_2stim_asymm_v5,2020.2.10,Win32,60,60e52e7cfedb1dae636df45f,,,,,,,,,,,,,,,,,,,,,,,,,,,,,,,,,,,,,,,,,,,,,,
,,,,,,,,,,,,123,FF,109,40,1,0,0,response1disk_5,6,1.8666,7,-12,1,0,0,rectangle_8,7,-12,1,0,0,7,-12,1,0,0,0,3,3,0,1,5b4acec4ff74970001255857,60e5635a470138a233dcb485,2021-07-07_11h19.14.156,Simcolourproject_2stim_asymm_v5,2020.2.10,Win32,60,60e52e7cfedb1dae636df45f,,,,,,,,,,,,,,,,,,,,,,,,,,,,,,,,,,,,,,,,,,,,,,
,,,,,,,,,,,,136,PF,45,-121,1,0,0,response3disk_5,4,6.1335,20,-11,1,0,0,rectangle_8,151,30,1,0,0,32,-11,1,0,0,0,4,4,4,1,5b4acec4ff74970001255857,60e5635a470138a233dcb485,2021-07-07_11h19.14.156,Simcolourproject_2stim_asymm_v5,2020.2.10,Win32,60,60e52e7cfedb1dae636df45f,response1disk_7,6,2.0169,6,"[2,5]",rectangle_4,,,,,,,,,,,,,,,,,,,,,,,,,,,,,,,,,,,,,,,,
,,,,,,,,,,,,0,FF,93,42,1,0,0,response1disk_5,6,1.3665,-6,11,1,0,0,rectangle_8,-6,11,1,0,0,-6,11,1,0,0,0,5,5,5,1,5b4acec4ff74970001255857,60e5635a470138a233dcb485,2021-07-07_11h19.14.156,Simcolourproject_2stim_asymm_v5,2020.2.10,Win32,60,60e52e7cfedb1dae636df45f,,,,,,,,,,,,,,,,,,,,,,,,,,,,,,,,,,,,,,,,,,,,,,
,,,,,,,,,,,,155,PF,-100,-47,1,0,0,response5disk_5,2,1.8667,38,-4,1,0,0,rectangle_8,38,-4,1,0,0,38,-4,1,0,0,0,6,6,1,1,5b4acec4ff74970001255857,60e5635a470138a233dcb485,2021-07-07_11h19.14.156,Simcolourproject_2stim_asymm_v5,2020.2.10,Win32,60,60e52e7cfedb1dae636df45f,,,,,,,,,,,,,,,,,,,,,,,,,,,,,,,,,,,,,,,,,,,,,,
,,,,,,,,,,,,,FF,,,,,,,,2.2334,,,,,,,,,,,,,,,,,,,,,,5b4acec4ff74970001255857,60e5635a470138a233dcb485,2021-07-07_11h19.14.156,Simcolourproject_2stim_asymm_v5,2020.2.10,Win32,60,60e52e7cfedb1dae636df45f,,,,,,,space,3.5402,3911,83,-57,1,0,0,response3disk,,5,0,0,1,0,0,rectangle,0,0,1,0,0,0,0,1,0,0,0,0,0,44,1,,,,,,,,
,,,,,,,,,,,,,FF,,,,,,,,1.6334,,,,,,,,,,,,,,,,,,,,,,5b4acec4ff74970001255857,60e5635a470138a233dcb485,2021-07-07_11h19.14.156,Simcolourproject_2stim_asymm_v5,2020.2.10,Win32,60,60e52e7cfedb1dae636df45f,,,,,,,,,4009,113,-52,1,0,0,response3disk,,5,-1,14,1,0,0,rectangle,-1,14,1,0,0,-1,14,1,0,0,0,1,1,50,1,,,,,,,,
,,,,,,,,,,,,,FF,,,,,,,,2.9668,,,,,,,,,,,,,,,,,,,,,,5b4acec4ff74970001255857,60e5635a470138a233dcb485,2021-07-07_11h19.14.156,Simcolourproject_2stim_asymm_v5,2020.2.10,Win32,60,60e52e7cfedb1dae636df45f,,,,,,,,,4330,-122,-43,1,0,0,response5disk,,2,-21,-6,1,0,0,rectangle,-21,-6,1,0,0,-21,-6,1,0,0,0,2,2,114,1,,,,,,,,
,,,,,,,,,,,,,FF,,,,,,,,1.4169,,,,,,,,,,,,,,,,,,,,,,5b4acec4ff74970001255857,60e5635a470138a233dcb485,2021-07-07_11h19.14.156,Simcolourproject_2stim_asymm_v5,2020.2.10,Win32,60,60e52e7cfedb1dae636df45f,,,,,,,,,2802,-78,-45,1,0,0,response5disk,,2,-27,-8,1,0,0,rectangle,-27,-8,1,0,0,-27,-8,1,0,0,0,3,3,33,1,,,,,,,,
,,,,,,,,,,,,,FF,,,,,,,,1.6498,,,,,,,,,,,,,,,,,,,,,,5b4acec4ff74970001255857,60e5635a470138a233dcb485,2021-07-07_11h19.14.156,Simcolourproject_2stim_asymm_v5,2020.2.10,Win32,60,60e52e7cfedb1dae636df45f,,,,,,,,,4064,57,-95,1,0,0,response3disk,,4,16,-12,1,0,0,rectangle,16,-12,1,0,0,16,-12,1,0,0,0,4,4,61,1,,,,,,,,
,,,,,,,,,,,,,FF,,,,,,,,1.1833,,,,,,,,,,,,,,,,,,,,,,5b4acec4ff74970001255857,60e5635a470138a233dcb485,2021-07-07_11h19.14.156,Simcolourproject_2stim_asymm_v5,2020.2.10,Win32,60,60e52e7cfedb1dae636df45f,,,,,,,,,828,64,-103,1,0,0,response3disk,,4,14,-10,1,0,0,rectangle,14,-10,1,0,0,14,-10,1,0,0,0,5,5,92,1,,,,,,,,
,,,,,,,,,,,,,FF,,,,,,,,2.7167,,,,,,,,,,,,,,,,,,,,,,5b4acec4ff74970001255857,60e5635a470138a233dcb485,2021-07-07_11h19.14.156,Simcolourproject_2stim_asymm_v5,2020.2.10,Win32,60,60e52e7cfedb1dae636df45f,,,,,,,,,991,95,-62,1,0,0,response3disk,,5,0,6,1,0,0,rectangle,0,6,1,0,0,0,6,1,0,0,0,6,6,148,1,,,,,,,,
,,,,,,,,,,,,,FF,,,,,,,,1.1668,,,,,,,,,,,,,,,,,,,,,,5b4acec4ff74970001255857,60e5635a470138a233dcb485,2021-07-07_11h19.14.156,Simcolourproject_2stim_asymm_v5,2020.2.10,Win32,60,60e52e7cfedb1dae636df45f,,,,,,,,,4176,-154,-77,1,0,0,response5disk,,2,-5,-16,1,0,0,rectangle,-5,-16,1,0,0,-5,-16,1,0,0,0,7,7,88,1,,,,,,,,
,,,,,,,,,,,,,FF,,,,,,,,1.1172,,,,,,,,,,,,,,,,,,,,,,5b4acec4ff74970001255857,60e5635a470138a233dcb485,2021-07-07_11h19.14.156,Simcolourproject_2stim_asymm_v5,2020.2.10,Win32,60,60e52e7cfedb1dae636df45f,,,,,,,,,723,149,36,1,0,0,response1disk,,6,18,-21,1,0,0,rectangle,-49,122,1,0,0,9,-4,1,0,0,0,8,8,39,1,,response7disk_3,TRUE,0,0,"[134,162,297,9,242,270,171,78,221,316,25,46,270,120,53,270,164,305,158,306]",2.1672,rectangle
,,,,,,,,,,,,,FF,,,,,,,,8.3996,,,,,,,,,,,,,,,,,,,,,,5b4acec4ff74970001255857,60e5635a470138a233dcb485,2021-07-07_11h19.14.156,Simcolourproject_2stim_asymm_v5,2020.2.10,Win32,60,60e52e7cfedb1dae636df45f,,,,,,,,,847,-50,-89,1,0,0,response5disk,,3,-13,-4,1,0,0,rectangle,-13,-4,1,0,0,-13,-4,1,0,0,0,9,9,93,1,,,,,,,,
,,,,,,,,,,,,,FF,,,,,,,,1.1,,,,,,,,,,,,,,,,,,,,,,5b4acec4ff74970001255857,60e5635a470138a233dcb485,2021-07-07_11h19.14.156,Simcolourproject_2stim_asymm_v5,2020.2.10,Win32,60,60e52e7cfedb1dae636df45f,,,,,,,,,3199,127,-74,1,0,0,response3disk,,5,-6,-8,1,0,0,rectangle,-6,-8,1,0,0,-6,-8,1,0,0,0,10,10,84,1,,,,,,,,
,,,,,,,,,,,,,FF,,,,,,,,1.1832,,,,,,,,,,,,,,,,,,,,,,5b4acec4ff74970001255857,60e5635a470138a233dcb485,2021-07-07_11h19.14.156,Simcolourproject_2stim_asymm_v5,2020.2.10,Win32,60,60e52e7cfedb1dae636df45f,,,,,,,,,3450,65,-139,1,0,0,response3disk,,4,0,-16,1,0,0,rectangle,0,-16,1,0,0,0,-16,1,0,0,0,11,11,16,1,,,,,,,,
,,,,,,,,,,,,,FF,,,,,,,,1.816,,,,,,,,,,,,,,,,,,,,,,5b4acec4ff74970001255857,60e5635a470138a233dcb485,2021-07-07_11h19.14.156,Simcolourproject_2stim_asymm_v5,2020.2.10,Win32,60,60e52e7cfedb1dae636df45f,,,,,,,,,1864,-60,-33,1,0,0,response5disk,,2,21,20,1,0,0,rectangle,21,20,1,0,0,21,20,1,0,0,0,12,12,155,1,,,,,,,,
,,,,,,,,,,,,,FF,,,,,,,,1.2,,,,,,,,,,,,,,,,,,,,,,5b4acec4ff74970001255857,60e5635a470138a233dcb485,2021-07-07_11h19.14.156,Simcolourproject_2stim_asymm_v5,2020.2.10,Win32,60,60e52e7cfedb1dae636df45f,,,,,,,,,1746,91,-61,1,0,0,response3disk,,5,12,0,1,0,0,rectangle,12,0,1,0,0,12,0,1,0,0,0,13,13,4,1,,,,,,,,
,,,,,,,,,,,,,FF,,,,,,,,0.8334,,,,,,,,,,,,,,,,,,,,,,5b4acec4ff74970001255857,60e5635a470138a233dcb485,2021-07-07_11h19.14.156,Simcolourproject_2stim_asymm_v5,2020.2.10,Win32,60,60e52e7cfedb1dae636df45f,,,,,,,,,1365,119,-49,1,0,0,response3disk,,5,14,-2,1,0,0,rectangle,14,-2,1,0,0,14,-2,1,0,0,0,14,14,158,1,,,,,,,,
,,,,,,,,,,,,,FF,,,,,,,,0.7834,,,,,,,,,,,,,,,,,,,,,,5b4acec4ff74970001255857,60e5635a470138a233dcb485,2021-07-07_11h19.14.156,Simcolourproject_2stim_asymm_v5,2020.2.10,Win32,60,60e52e7cfedb1dae636df45f,,,,,,,,,1766,51,-125,1,0,0,response3disk,,4,-9,-14,1,0,0,rectangle,-9,-14,1,0,0,-9,-14,1,0,0,0,15,15,90,1,,,,,,,,
,,,,,,,,,,,,,FF,,,,,,,,2.167,,,,,,,,,,,,,,,,,,,,,,5b4acec4ff74970001255857,60e5635a470138a233dcb485,2021-07-07_11h19.14.156,Simcolourproject_2stim_asymm_v5,2020.2.10,Win32,60,60e52e7cfedb1dae636df45f,,,,,,,,,620,80,114,1,0,0,response1disk,,7,-14,11,1,0,0,rectangle,-14,11,1,0,0,-14,11,1,0,0,0,16,16,159,1,,,,,,,,
,,,,,,,,,,,,,FF,,,,,,,,0.6667,,,,,,,,,,,,,,,,,,,,,,5b4acec4ff74970001255857,60e5635a470138a233dcb485,2021-07-07_11h19.14.156,Simcolourproject_2stim_asymm_v5,2020.2.10,Win32,60,60e52e7cfedb1dae636df45f,,,,,,,,,2541,62,106,1,0,0,response1disk,,7,-25,3,1,0,0,rectangle,-25,3,1,0,0,-25,3,1,0,0,0,17,17,139,1,,,,,,,,
,,,,,,,,,,,,,FF,,,,,,,,1.7501,,,,,,,,,,,,,,,,,,,,,,5b4acec4ff74970001255857,60e5635a470138a233dcb485,2021-07-07_11h19.14.156,Simcolourproject_2stim_asymm_v5,2020.2.10,Win32,60,60e52e7cfedb1dae636df45f,,,,,,,,,1559,-94,-60,1,0,0,response5disk,,2,-37,-4,1,0,0,rectangle,-37,-4,1,0,0,-37,-4,1,0,0,0,18,18,156,1,,,,,,,,
,,,,,,,,,,,,,FF,,,,,,,,1.1834,,,,,,,,,,,,,,,,,,,,,,5b4acec4ff74970001255857,60e5635a470138a233dcb485,2021-07-07_11h19.14.156,Simcolourproject_2stim_asymm_v5,2020.2.10,Win32,60,60e52e7cfedb1dae636df45f,,,,,,,,,3902,67,-113,1,0,0,response3disk,,4,0,-18,1,0,0,rectangle,0,-18,1,0,0,0,-18,1,0,0,0,19,19,134,1,,,,,,,,
,,,,,,,,,,,,,FF,,,,,,,,1.2839,,,,,,,,,,,,,,,,,,,,,,5b4acec4ff74970001255857,60e5635a470138a233dcb485,2021-07-07_11h19.14.156,Simcolourproject_2stim_asymm_v5,2020.2.10,Win32,60,60e52e7cfedb1dae636df45f,,,,,,,,,3905,-57,-95,1,0,0,response5disk,,3,-3,12,1,0,0,rectangle,-3,12,1,0,0,-3,12,1,0,0,0,20,20,137,1,,,,,,,,
,,,,,,,,,,,,,FF,,,,,,,,1.1501,,,,,,,,,,,,,,,,,,,,,,5b4acec4ff74970001255857,60e5635a470138a233dcb485,2021-07-07_11h19.14.156,Simcolourproject_2stim_asymm_v5,2020.2.10,Win32,60,60e52e7cfedb1dae636df45f,,,,,,,,,81,99,-56,1,0,0,response3disk,,5,14,6,1,0,0,rectangle,14,6,1,0,0,14,6,1,0,0,0,21,21,81,1,,,,,,,,
,,,,,,,,,,,,,FF,,,,,,,,0.9,,,,,,,,,,,,,,,,,,,,,,5b4acec4ff74970001255857,60e5635a470138a233dcb485,2021-07-07_11h19.14.156,Simcolourproject_2stim_asymm_v5,2020.2.10,Win32,60,60e52e7cfedb1dae636df45f,,,,,,,,,1442,-100,-54,1,0,0,response5disk,,2,-13,-12,1,0,0,rectangle,-13,-12,1,0,0,-13,-12,1,0,0,0,22,22,25,1,,,,,,,,
,,,,,,,,,,,,,FF,,,,,,,,0.8002,,,,,,,,,,,,,,,,,,,,,,5b4acec4ff74970001255857,60e5635a470138a233dcb485,2021-07-07_11h19.14.156,Simcolourproject_2stim_asymm_v5,2020.2.10,Win32,60,60e52e7cfedb1dae636df45f,,,,,,,,,1057,95,-39,1,0,0,response3disk,,5,7,9,1,0,0,rectangle,7,9,1,0,0,7,9,1,0,0,0,23,23,46,1,,,,,,,,
,,,,,,,,,,,,,FF,,,,,,,,1.8335,,,,,,,,,,,,,,,,,,,,,,5b4acec4ff74970001255857,60e5635a470138a233dcb485,2021-07-07_11h19.14.156,Simcolourproject_2stim_asymm_v5,2020.2.10,Win32,60,60e52e7cfedb1dae636df45f,,,,,,,,,1363,-88,-41,1,0,0,response5disk,,2,-35,0,1,0,0,rectangle,143,88,1,0,0,26,-21,1,0,0,0,24,24,49,1,,response1disk_3,TRUE,6,6,"[134,162,297,9,242,270,171,78,221,316,25,46,270,120,53,270,164,305,158,306]",1.8004,rectangle
,,,,,,,,,,,,,FF,,,,,,,,1.3167,,,,,,,,,,,,,,,,,,,,,,5b4acec4ff74970001255857,60e5635a470138a233dcb485,2021-07-07_11h19.14.156,Simcolourproject_2stim_asymm_v5,2020.2.10,Win32,60,60e52e7cfedb1dae636df45f,,,,,,,,,4207,86,118,1,0,0,response1disk,,7,16,-12,1,0,0,rectangle,16,-12,1,0,0,16,-12,1,0,0,0,25,25,43,1,,,,,,,,
,,,,,,,,,,,,,FF,,,,,,,,0.9175,,,,,,,,,,,,,,,,,,,,,,5b4acec4ff74970001255857,60e5635a470138a233dcb485,2021-07-07_11h19.14.156,Simcolourproject_2stim_asymm_v5,2020.2.10,Win32,60,60e52e7cfedb1dae636df45f,,,,,,,,,2543,44,-87,1,0,0,response3disk,,4,40,-14,1,0,0,rectangle,40,-14,1,0,0,40,-14,1,0,0,0,26,26,3,1,,,,,,,,
,,,,,,,,,,,,,FF,,,,,,,,2.4833,,,,,,,,,,,,,,,,,,,,,,5b4acec4ff74970001255857,60e5635a470138a233dcb485,2021-07-07_11h19.14.156,Simcolourproject_2stim_asymm_v5,2020.2.10,Win32,60,60e52e7cfedb1dae636df45f,,,,,,,,,1619,-51,-83,1,0,0,response5disk,,3,-21,-4,1,0,0,rectangle,-21,-4,1,0,0,-21,-4,1,0,0,0,27,27,80,1,,,,,,,,
,,,,,,,,,,,,,FF,,,,,,,,0.9333,,,,,,,,,,,,,,,,,,,,,,5b4acec4ff74970001255857,60e5635a470138a233dcb485,2021-07-07_11h19.14.156,Simcolourproject_2stim_asymm_v5,2020.2.10,Win32,60,60e52e7cfedb1dae636df45f,,,,,,,,,1457,95,-41,1,0,0,response3disk,,5,28,3,1,0,0,rectangle,28,3,1,0,0,28,3,1,0,0,0,28,28,152,1,,,,,,,,
,,,,,,,,,,,,,FF,,,,,,,,0.7833,,,,,,,,,,,,,,,,,,,,,,5b4acec4ff74970001255857,60e5635a470138a233dcb485,2021-07-07_11h19.14.156,Simcolourproject_2stim_asymm_v5,2020.2.10,Win32,60,60e52e7cfedb1dae636df45f,,,,,,,,,2617,-90,-55,1,0,0,response5disk,,2,-21,10,1,0,0,rectangle,-21,10,1,0,0,-21,10,1,0,0,0,29,29,47,1,,,,,,,,
,,,,,,,,,,,,,FF,,,,,,,,0.9666,,,,,,,,,,,,,,,,,,,,,,5b4acec4ff74970001255857,60e5635a470138a233dcb485,2021-07-07_11h19.14.156,Simcolourproject_2stim_asymm_v5,2020.2.10,Win32,60,60e52e7cfedb1dae636df45f,,,,,,,,,3867,41,-101,1,0,0,response3disk,,4,12,-6,1,0,0,rectangle,12,-6,1,0,0,12,-6,1,0,0,0,30,30,58,1,,,,,,,,
,,,,,,,,,,,,,FF,,,,,,,,0.8334,,,,,,,,,,,,,,,,,,,,,,5b4acec4ff74970001255857,60e5635a470138a233dcb485,2021-07-07_11h19.14.156,Simcolourproject_2stim_asymm_v5,2020.2.10,Win32,60,60e52e7cfedb1dae636df45f,,,,,,,,,3623,97,-44,1,0,0,response3disk,,5,2,17,1,0,0,rectangle,2,17,1,0,0,2,17,1,0,0,0,31,31,72,1,,,,,,,,
,,,,,,,,,,,,,FF,,,,,,,,0.9834,,,,,,,,,,,,,,,,,,,,,,5b4acec4ff74970001255857,60e5635a470138a233dcb485,2021-07-07_11h19.14.156,Simcolourproject_2stim_asymm_v5,2020.2.10,Win32,60,60e52e7cfedb1dae636df45f,,,,,,,,,1071,87,-47,1,0,0,response3disk,,5,0,12,1,0,0,rectangle,0,12,1,0,0,0,12,1,0,0,0,32,32,126,1,,,,,,,,
,,,,,,,,,,,,,FF,,,,,,,,0.6674,,,,,,,,,,,,,,,,,,,,,,5b4acec4ff74970001255857,60e5635a470138a233dcb485,2021-07-07_11h19.14.156,Simcolourproject_2stim_asymm_v5,2020.2.10,Win32,60,60e52e7cfedb1dae636df45f,,,,,,,,,1382,107,-54,1,0,0,response3disk,,5,-20,0,1,0,0,rectangle,-20,0,1,0,0,-20,0,1,0,0,0,33,33,27,1,,,,,,,,
,,,,,,,,,,,,,FF,,,,,,,,0.6669,,,,,,,,,,,,,,,,,,,,,,5b4acec4ff74970001255857,60e5635a470138a233dcb485,2021-07-07_11h19.14.156,Simcolourproject_2stim_asymm_v5,2020.2.10,Win32,60,60e52e7cfedb1dae636df45f,,,,,,,,,3474,93,-45,1,0,0,response3disk,,5,0,8,1,0,0,rectangle,0,8,1,0,0,0,8,1,0,0,0,34,34,67,1,,,,,,,,
,,,,,,,,,,,,,FF,,,,,,,,1.4168,,,,,,,,,,,,,,,,,,,,,,5b4acec4ff74970001255857,60e5635a470138a233dcb485,2021-07-07_11h19.14.156,Simcolourproject_2stim_asymm_v5,2020.2.10,Win32,60,60e52e7cfedb1dae636df45f,,,,,,,,,2632,-104,30,1,0,0,response7disk,,1,1,-7,1,0,0,rectangle,1,-7,1,0,0,1,-7,1,0,0,0,35,35,40,1,,,,,,,,
,,,,,,,,,,,,,FF,,,,,,,,1.9834,,,,,,,,,,,,,,,,,,,,,,5b4acec4ff74970001255857,60e5635a470138a233dcb485,2021-07-07_11h19.14.156,Simcolourproject_2stim_asymm_v5,2020.2.10,Win32,60,60e52e7cfedb1dae636df45f,,,,,,,,,389,-59,-87,1,0,0,response5disk,,3,18,-4,1,0,0,rectangle,18,-4,1,0,0,18,-4,1,0,0,0,36,36,154,1,,,,,,,,
,,,,,,,,,,,,,FF,,,,,,,,0.7008,,,,,,,,,,,,,,,,,,,,,,5b4acec4ff74970001255857,60e5635a470138a233dcb485,2021-07-07_11h19.14.156,Simcolourproject_2stim_asymm_v5,2020.2.10,Win32,60,60e52e7cfedb1dae636df45f,,,,,,,,,2295,117,-43,1,0,0,response3disk,,5,22,-3,1,0,0,rectangle,22,-3,1,0,0,22,-3,1,0,0,0,37,37,144,1,,,,,,,,
,,,,,,,,,,,,,FF,,,,,,,,2.1334,,,,,,,,,,,,,,,,,,,,,,5b4acec4ff74970001255857,60e5635a470138a233dcb485,2021-07-07_11h19.14.156,Simcolourproject_2stim_asymm_v5,2020.2.10,Win32,60,60e52e7cfedb1dae636df45f,,,,,,,,,224,-67,-101,1,0,0,response5disk,,3,-21,0,1,0,0,rectangle,-21,0,1,0,0,-21,0,1,0,0,0,38,38,11,1,,,,,,,,
,,,,,,,,,,,,,FF,,,,,,,,1.8001,,,,,,,,,,,,,,,,,,,,,,5b4acec4ff74970001255857,60e5635a470138a233dcb485,2021-07-07_11h19.14.156,Simcolourproject_2stim_asymm_v5,2020.2.10,Win32,60,60e52e7cfedb1dae636df45f,,,,,,,,,599,43,-110,1,0,0,response3disk,,4,12,-12,1,0,0,rectangle,12,-12,1,0,0,12,-12,1,0,0,0,39,39,71,1,,,,,,,,
,,,,,,,,,,,,,FF,,,,,,,,1.3998,,,,,,,,,,,,,,,,,,,,,,5b4acec4ff74970001255857,60e5635a470138a233dcb485,2021-07-07_11h19.14.156,Simcolourproject_2stim_asymm_v5,2020.2.10,Win32,60,60e52e7cfedb1dae636df45f,,,,,,,,,3246,125,42,1,0,0,response1disk,,6,26,-3,1,0,0,rectangle,26,-3,1,0,0,26,-3,1,0,0,0,40,40,5,1,,,,,,,,
,,,,,,,,,,,,,FF,,,,,,,,0.6333,,,,,,,,,,,,,,,,,,,,,,5b4acec4ff74970001255857,60e5635a470138a233dcb485,2021-07-07_11h19.14.156,Simcolourproject_2stim_asymm_v5,2020.2.10,Win32,60,60e52e7cfedb1dae636df45f,,,,,,,,,1827,97,42,1,0,0,response1disk,,6,-8,11,1,0,0,rectangle,-8,11,1,0,0,-8,11,1,0,0,0,41,41,28,1,,,,,,,,
,,,,,,,,,,,,,FF,,,,,,,,1.9671,,,,,,,,,,,,,,,,,,,,,,5b4acec4ff74970001255857,60e5635a470138a233dcb485,2021-07-07_11h19.14.156,Simcolourproject_2stim_asymm_v5,2020.2.10,Win32,60,60e52e7cfedb1dae636df45f,,,,,,,,,3543,43,-79,1,0,0,response3disk,,4,6,-8,1,0,0,rectangle,6,-8,1,0,0,6,-8,1,0,0,0,42,42,85,1,,,,,,,,
,,,,,,,,,,,,,FF,,,,,,,,1.9336,,,,,,,,,,,,,,,,,,,,,,5b4acec4ff74970001255857,60e5635a470138a233dcb485,2021-07-07_11h19.14.156,Simcolourproject_2stim_asymm_v5,2020.2.10,Win32,60,60e52e7cfedb1dae636df45f,,,,,,,,,2350,-24,-107,1,0,0,response5disk,,3,-9,6,1,0,0,rectangle,-9,6,1,0,0,-9,6,1,0,0,0,43,43,9,1,,,,,,,,
,,,,,,,,,,,,,FF,,,,,,,,1.0166,,,,,,,,,,,,,,,,,,,,,,5b4acec4ff74970001255857,60e5635a470138a233dcb485,2021-07-07_11h19.14.156,Simcolourproject_2stim_asymm_v5,2020.2.10,Win32,60,60e52e7cfedb1dae636df45f,,,,,,,,,1901,113,-56,1,0,0,response3disk,,5,14,8,1,0,0,rectangle,14,8,1,0,0,14,8,1,0,0,0,44,44,136,1,,,,,,,,
,,,,,,,,,,,,,FF,,,,,,,,1.0669,,,,,,,,,,,,,,,,,,,,,,5b4acec4ff74970001255857,60e5635a470138a233dcb485,2021-07-07_11h19.14.156,Simcolourproject_2stim_asymm_v5,2020.2.10,Win32,60,60e52e7cfedb1dae636df45f,,,,,,,,,128,59,-111,1,0,0,response3disk,,4,4,-18,1,0,0,rectangle,-116,51,1,0,0,-13,1,1,0,0,0,45,45,98,1,,response7disk_3,TRUE,1,1,"[134,162,297,9,242,270,171,78,221,316,25,46,270,120,53,270,164,305,158,306]",1.6501,rectangle
,,,,,,,,,,,,,FF,,,,,,,,1.4334,,,,,,,,,,,,,,,,,,,,,,5b4acec4ff74970001255857,60e5635a470138a233dcb485,2021-07-07_11h19.14.156,Simcolourproject_2stim_asymm_v5,2020.2.10,Win32,60,60e52e7cfedb1dae636df45f,,,,,,,,,547,117,38,1,0,0,response1disk,,6,15,2,1,0,0,rectangle,15,2,1,0,0,15,2,1,0,0,0,46,46,56,1,,,,,,,,
,,,,,,,,,,,,,FF,,,,,,,,1.1007,,,,,,,,,,,,,,,,,,,,,,5b4acec4ff74970001255857,60e5635a470138a233dcb485,2021-07-07_11h19.14.156,Simcolourproject_2stim_asymm_v5,2020.2.10,Win32,60,60e52e7cfedb1dae636df45f,,,,,,,,,1890,121,40,1,0,0,response1disk,,6,-26,-3,1,0,0,rectangle,-26,-3,1,0,0,-26,-3,1,0,0,0,47,47,73,1,,,,,,,,
,,,,,,,,,,,,,FF,,,,,,,,1.25,,,,,,,,,,,,,,,,,,,,,,5b4acec4ff74970001255857,60e5635a470138a233dcb485,2021-07-07_11h19.14.156,Simcolourproject_2stim_asymm_v5,2020.2.10,Win32,60,60e52e7cfedb1dae636df45f,,,,,,,,,1481,53,-115,1,0,0,response3disk,,4,0,13,1,0,0,rectangle,0,13,1,0,0,0,13,1,0,0,0,48,48,18,1,,,,,,,,
,,,,,,,,,,,,,FF,,,,,,,,0.8165,,,,,,,,,,,,,,,,,,,,,,5b4acec4ff74970001255857,60e5635a470138a233dcb485,2021-07-07_11h19.14.156,Simcolourproject_2stim_asymm_v5,2020.2.10,Win32,60,60e52e7cfedb1dae636df45f,,,,,,,,,2575,62,-77,1,0,0,response3disk,,4,8,4,1,0,0,rectangle,8,4,1,0,0,8,4,1,0,0,0,49,49,123,1,,,,,,,,
,,,,,,,,,,,,,FF,,,,,,,,1.0169,,,,,,,,,,,,,,,,,,,,,,5b4acec4ff74970001255857,60e5635a470138a233dcb485,2021-07-07_11h19.14.156,Simcolourproject_2stim_asymm_v5,2020.2.10,Win32,60,60e52e7cfedb1dae636df45f,,,,,,,,,2150,62,-89,1,0,0,response3disk,,4,32,-8,1,0,0,rectangle,32,-8,1,0,0,32,-8,1,0,0,0,50,50,74,1,,,,,,,,
,,,,,,,,,,,,,FF,,,,,,,,0.9498,,,,,,,,,,,,,,,,,,,,,,5b4acec4ff74970001255857,60e5635a470138a233dcb485,2021-07-07_11h19.14.156,Simcolourproject_2stim_asymm_v5,2020.2.10,Win32,60,60e52e7cfedb1dae636df45f,,,,,,,,,3939,70,-101,1,0,0,response3disk,,4,11,-12,1,0,0,rectangle,11,-12,1,0,0,11,-12,1,0,0,0,51,51,32,1,,,,,,,,
,,,,,,,,,,,,,FF,,,,,,,,1.3495,,,,,,,,,,,,,,,,,,,,,,5b4acec4ff74970001255857,60e5635a470138a233dcb485,2021-07-07_11h19.14.156,Simcolourproject_2stim_asymm_v5,2020.2.10,Win32,60,60e52e7cfedb1dae636df45f,,,,,,,,,3186,-44,-109,1,0,0,response5disk,,3,31,8,1,0,0,rectangle,54,-103,1,0,0,8,-6,1,0,0,0,52,52,13,1,,response3disk_3,TRUE,4,4,"[134,162,297,9,242,270,171,78,221,316,25,46,270,120,53,270,164,305,158,306]",2.1332,rectangle
,,,,,,,,,,,,,FF,,,,,,,,0.8332,,,,,,,,,,,,,,,,,,,,,,5b4acec4ff74970001255857,60e5635a470138a233dcb485,2021-07-07_11h19.14.156,Simcolourproject_2stim_asymm_v5,2020.2.10,Win32,60,60e52e7cfedb1dae636df45f,,,,,,,,,2483,123,-56,1,0,0,response3disk,,5,6,6,1,0,0,rectangle,6,6,1,0,0,6,6,1,0,0,0,53,53,48,1,,,,,,,,
,,,,,,,,,,,,,FF,,,,,,,,4.5001,,,,,,,,,,,,,,,,,,,,,,5b4acec4ff74970001255857,60e5635a470138a233dcb485,2021-07-07_11h19.14.156,Simcolourproject_2stim_asymm_v5,2020.2.10,Win32,60,60e52e7cfedb1dae636df45f,,,,,,,,,3625,41,-101,1,0,0,response3disk,,4,8,-2,1,0,0,rectangle,8,-2,1,0,0,8,-2,1,0,0,0,54,54,75,1,,,,,,,,
,,,,,,,,,,,,,FF,,,,,,,,3.1668,,,,,,,,,,,,,,,,,,,,,,5b4acec4ff74970001255857,60e5635a470138a233dcb485,2021-07-07_11h19.14.156,Simcolourproject_2stim_asymm_v5,2020.2.10,Win32,60,60e52e7cfedb1dae636df45f,,,,,,,,,4309,-136,-48,1,0,0,response5disk,,2,-21,14,1,0,0,rectangle,-21,14,1,0,0,-21,14,1,0,0,0,55,55,116,1,,,,,,,,
,,,,,,,,,,,,,FF,,,,,,,,1.2165,,,,,,,,,,,,,,,,,,,,,,5b4acec4ff74970001255857,60e5635a470138a233dcb485,2021-07-07_11h19.14.156,Simcolourproject_2stim_asymm_v5,2020.2.10,Win32,60,60e52e7cfedb1dae636df45f,,,,,,,,,2980,39,-115,1,0,0,response3disk,,4,-9,-10,1,0,0,rectangle,-9,-10,1,0,0,-9,-10,1,0,0,0,56,56,99,1,,,,,,,,
,,,,,,,,,,,,,FF,,,,,,,,1.0668,,,,,,,,,,,,,,,,,,,,,,5b4acec4ff74970001255857,60e5635a470138a233dcb485,2021-07-07_11h19.14.156,Simcolourproject_2stim_asymm_v5,2020.2.10,Win32,60,60e52e7cfedb1dae636df45f,,,,,,,,,3652,-110,-56,1,0,0,response5disk,,2,-17,-4,1,0,0,rectangle,-17,-4,1,0,0,-17,-4,1,0,0,0,57,57,138,1,,,,,,,,
,,,,,,,,,,,,,FF,,,,,,,,2.2003,,,,,,,,,,,,,,,,,,,,,,5b4acec4ff74970001255857,60e5635a470138a233dcb485,2021-07-07_11h19.14.156,Simcolourproject_2stim_asymm_v5,2020.2.10,Win32,60,60e52e7cfedb1dae636df45f,,,,,,,,,697,-59,-111,1,0,0,response5disk,,3,-15,-6,1,0,0,rectangle,-15,-6,1,0,0,-15,-6,1,0,0,0,58,58,124,1,,,,,,,,
,,,,,,,,,,,,,FF,,,,,,,,0.9333,,,,,,,,,,,,,,,,,,,,,,5b4acec4ff74970001255857,60e5635a470138a233dcb485,2021-07-07_11h19.14.156,Simcolourproject_2stim_asymm_v5,2020.2.10,Win32,60,60e52e7cfedb1dae636df45f,,,,,,,,,634,107,58,1,0,0,response1disk,,6,16,21,1,0,0,rectangle,16,21,1,0,0,16,21,1,0,0,0,59,59,55,1,,,,,,,,
,,,,,,,,,,,,,FF,,,,,,,,1.2666,,,,,,,,,,,,,,,,,,,,,,5b4acec4ff74970001255857,60e5635a470138a233dcb485,2021-07-07_11h19.14.156,Simcolourproject_2stim_asymm_v5,2020.2.10,Win32,60,60e52e7cfedb1dae636df45f,,,,,,,,,229,-44,-135,1,0,0,response5disk,,3,29,-2,1,0,0,rectangle,29,-2,1,0,0,29,-2,1,0,0,0,60,60,102,1,,,,,,,,
,,,,,,,,,,,,,FF,,,,,,,,2.7333,,,,,,,,,,,,,,,,,,,,,,5b4acec4ff74970001255857,60e5635a470138a233dcb485,2021-07-07_11h19.14.156,Simcolourproject_2stim_asymm_v5,2020.2.10,Win32,60,60e52e7cfedb1dae636df45f,,,,,,,,,3091,95,-72,1,0,0,response3disk,,5,2,5,1,0,0,rectangle,2,5,1,0,0,2,5,1,0,0,0,61,61,64,1,,,,,,,,
,,,,,,,,,,,,,FF,,,,,,,,1.383,,,,,,,,,,,,,,,,,,,,,,5b4acec4ff74970001255857,60e5635a470138a233dcb485,2021-07-07_11h19.14.156,Simcolourproject_2stim_asymm_v5,2020.2.10,Win32,60,60e52e7cfedb1dae636df45f,,,,,,,,,2304,-40,-101,1,0,0,response5disk,,3,-19,-8,1,0,0,rectangle,-19,-8,1,0,0,-19,-8,1,0,0,0,62,62,143,1,,,,,,,,
,,,,,,,,,,,,,FF,,,,,,,,1.0499,,,,,,,,,,,,,,,,,,,,,,5b4acec4ff74970001255857,60e5635a470138a233dcb485,2021-07-07_11h19.14.156,Simcolourproject_2stim_asymm_v5,2020.2.10,Win32,60,60e52e7cfedb1dae636df45f,,,,,,,,,3477,128,36,1,0,0,response1disk,,6,8,-9,1,0,0,rectangle,8,-9,1,0,0,8,-9,1,0,0,0,63,63,145,1,,,,,,,,
,,,,,,,,,,,,,FF,,,,,,,,0.7835,,,,,,,,,,,,,,,,,,,,,,5b4acec4ff74970001255857,60e5635a470138a233dcb485,2021-07-07_11h19.14.156,Simcolourproject_2stim_asymm_v5,2020.2.10,Win32,60,60e52e7cfedb1dae636df45f,,,,,,,,,866,-34,-107,1,0,0,response5disk,,3,9,-4,1,0,0,rectangle,9,-4,1,0,0,9,-4,1,0,0,0,64,64,94,1,,,,,,,,
,,,,,,,,,,,,,FF,,,,,,,,2.2503,,,,,,,,,,,,,,,,,,,,,,5b4acec4ff74970001255857,60e5635a470138a233dcb485,2021-07-07_11h19.14.156,Simcolourproject_2stim_asymm_v5,2020.2.10,Win32,60,60e52e7cfedb1dae636df45f,,,,,,,,,2379,-47,-123,1,0,0,response5disk,,3,7,-6,1,0,0,rectangle,7,-6,1,0,0,7,-6,1,0,0,0,65,65,104,1,,,,,,,,
,,,,,,,,,,,,,FF,,,,,,,,1.4501,,,,,,,,,,,,,,,,,,,,,,5b4acec4ff74970001255857,60e5635a470138a233dcb485,2021-07-07_11h19.14.156,Simcolourproject_2stim_asymm_v5,2020.2.10,Win32,60,60e52e7cfedb1dae636df45f,,,,,,,,,3901,121,-66,1,0,0,response3disk,,5,12,1,1,0,0,rectangle,12,1,1,0,0,12,1,1,0,0,0,66,66,140,1,,,,,,,,
,,,,,,,,,,,,,FF,,,,,,,,0.9503,,,,,,,,,,,,,,,,,,,,,,5b4acec4ff74970001255857,60e5635a470138a233dcb485,2021-07-07_11h19.14.156,Simcolourproject_2stim_asymm_v5,2020.2.10,Win32,60,60e52e7cfedb1dae636df45f,,,,,,,,,2640,-102,-46,1,0,0,response5disk,,2,1,-2,1,0,0,rectangle,1,-2,1,0,0,1,-2,1,0,0,0,67,67,110,1,,,,,,,,
,,,,,,,,,,,,,FF,,,,,,,,0.5174,,,,,,,,,,,,,,,,,,,,,,5b4acec4ff74970001255857,60e5635a470138a233dcb485,2021-07-07_11h19.14.156,Simcolourproject_2stim_asymm_v5,2020.2.10,Win32,60,60e52e7cfedb1dae636df45f,,,,,,,,,1991,-116,-52,1,0,0,response5disk,,2,-31,-2,1,0,0,rectangle,-31,-2,1,0,0,-31,-2,1,0,0,0,68,68,113,1,,,,,,,,
,,,,,,,,,,,,,FF,,,,,,,,1.1167,,,,,,,,,,,,,,,,,,,,,,5b4acec4ff74970001255857,60e5635a470138a233dcb485,2021-07-07_11h19.14.156,Simcolourproject_2stim_asymm_v5,2020.2.10,Win32,60,60e52e7cfedb1dae636df45f,,,,,,,,,2287,44,-95,1,0,0,response3disk,,4,8,0,1,0,0,rectangle,8,0,1,0,0,8,0,1,0,0,0,69,69,127,1,,,,,,,,
,,,,,,,,,,,,,FF,,,,,,,,5.2335,,,,,,,,,,,,,,,,,,,,,,5b4acec4ff74970001255857,60e5635a470138a233dcb485,2021-07-07_11h19.14.156,Simcolourproject_2stim_asymm_v5,2020.2.10,Win32,60,60e52e7cfedb1dae636df45f,,,,,,,,,1276,-46,-89,1,0,0,response5disk,,3,17,-4,1,0,0,rectangle,17,-4,1,0,0,17,-4,1,0,0,0,70,70,10,1,,,,,,,,
,,,,,,,,,,,,,FF,,,,,,,,1.1999,,,,,,,,,,,,,,,,,,,,,,5b4acec4ff74970001255857,60e5635a470138a233dcb485,2021-07-07_11h19.14.156,Simcolourproject_2stim_asymm_v5,2020.2.10,Win32,60,60e52e7cfedb1dae636df45f,,,,,,,,,3502,127,-72,1,0,0,response3disk,,5,30,-5,1,0,0,rectangle,30,-5,1,0,0,30,-5,1,0,0,0,71,71,62,1,,,,,,,,
,,,,,,,,,,,,,FF,,,,,,,,0.8834,,,,,,,,,,,,,,,,,,,,,,5b4acec4ff74970001255857,60e5635a470138a233dcb485,2021-07-07_11h19.14.156,Simcolourproject_2stim_asymm_v5,2020.2.10,Win32,60,60e52e7cfedb1dae636df45f,,,,,,,,,1526,117,-48,1,0,0,response3disk,,5,18,-5,1,0,0,rectangle,18,-5,1,0,0,18,-5,1,0,0,0,72,72,6,1,,,,,,,,
,,,,,,,,,,,,,FF,,,,,,,,2.4501,,,,,,,,,,,,,,,,,,,,,,5b4acec4ff74970001255857,60e5635a470138a233dcb485,2021-07-07_11h19.14.156,Simcolourproject_2stim_asymm_v5,2020.2.10,Win32,60,60e52e7cfedb1dae636df45f,,,,,,,,,2092,-38,-109,1,0,0,response5disk,,3,15,-8,1,0,0,rectangle,15,-8,1,0,0,15,-8,1,0,0,0,73,73,60,1,,,,,,,,
,,,,,,,,,,,,,FF,,,,,,,,1.8169,,,,,,,,,,,,,,,,,,,,,,5b4acec4ff74970001255857,60e5635a470138a233dcb485,2021-07-07_11h19.14.156,Simcolourproject_2stim_asymm_v5,2020.2.10,Win32,60,60e52e7cfedb1dae636df45f,,,,,,,,,3868,-58,-105,1,0,0,response5disk,,3,-15,-8,1,0,0,rectangle,-15,-8,1,0,0,-15,-8,1,0,0,0,74,74,31,1,,,,,,,,
,,,,,,,,,,,,,FF,,,,,,,,2.1168,,,,,,,,,,,,,,,,,,,,,,5b4acec4ff74970001255857,60e5635a470138a233dcb485,2021-07-07_11h19.14.156,Simcolourproject_2stim_asymm_v5,2020.2.10,Win32,60,60e52e7cfedb1dae636df45f,,,,,,,,,1341,61,-65,1,0,0,response3disk,,4,11,10,1,0,0,rectangle,11,10,1,0,0,11,10,1,0,0,0,75,75,68,1,,,,,,,,
,,,,,,,,,,,,,FF,,,,,,,,2.0502,,,,,,,,,,,,,,,,,,,,,,5b4acec4ff74970001255857,60e5635a470138a233dcb485,2021-07-07_11h19.14.156,Simcolourproject_2stim_asymm_v5,2020.2.10,Win32,60,60e52e7cfedb1dae636df45f,,,,,,,,,1277,44,-81,1,0,0,response3disk,,4,30,-6,1,0,0,rectangle,30,-6,1,0,0,30,-6,1,0,0,0,76,76,146,1,,,,,,,,
,,,,,,,,,,,,,FF,,,,,,,,1.7512,,,,,,,,,,,,,,,,,,,,,,5b4acec4ff74970001255857,60e5635a470138a233dcb485,2021-07-07_11h19.14.156,Simcolourproject_2stim_asymm_v5,2020.2.10,Win32,60,60e52e7cfedb1dae636df45f,,,,,,,,,2827,126,-60,1,0,0,response3disk,,5,-8,10,1,0,0,rectangle,114,50,1,0,0,30,-1,1,0,0,0,77,77,125,1,,response1disk_3,TRUE,6,6,"[134,162,297,9,242,270,171,78,221,316,25,46,270,120,53,270,164,305,158,306]",1.3167,rectangle
,,,,,,,,,,,,,FF,,,,,,,,0.7175,,,,,,,,,,,,,,,,,,,,,,5b4acec4ff74970001255857,60e5635a470138a233dcb485,2021-07-07_11h19.14.156,Simcolourproject_2stim_asymm_v5,2020.2.10,Win32,60,60e52e7cfedb1dae636df45f,,,,,,,,,1296,131,40,1,0,0,response1disk,,6,-6,-9,1,0,0,rectangle,-6,-9,1,0,0,-6,-9,1,0,0,0,78,78,130,1,,,,,,,,
,,,,,,,,,,,,,FF,,,,,,,,0.6337,,,,,,,,,,,,,,,,,,,,,,5b4acec4ff74970001255857,60e5635a470138a233dcb485,2021-07-07_11h19.14.156,Simcolourproject_2stim_asymm_v5,2020.2.10,Win32,60,60e52e7cfedb1dae636df45f,,,,,,,,,1973,83,42,1,0,0,response1disk,,6,-29,1,1,0,0,rectangle,-29,1,1,0,0,-29,1,1,0,0,0,79,79,115,1,,,,,,,,
,,,,,,,,,,,,,FF,,,,,,,,0.6666,,,,,,,,,,,,,,,,,,,,,,5b4acec4ff74970001255857,60e5635a470138a233dcb485,2021-07-07_11h19.14.156,Simcolourproject_2stim_asymm_v5,2020.2.10,Win32,60,60e52e7cfedb1dae636df45f,,,,,,,,,2035,73,-41,1,0,0,response3disk,,5,-16,10,1,0,0,rectangle,-16,10,1,0,0,-16,10,1,0,0,0,80,80,91,1,,,,,,,,
,,,,,,,,,,,,,FF,,,,,,,,1.2336,,,,,,,,,,,,,,,,,,,,,,5b4acec4ff74970001255857,60e5635a470138a233dcb485,2021-07-07_11h19.14.156,Simcolourproject_2stim_asymm_v5,2020.2.10,Win32,60,60e52e7cfedb1dae636df45f,,,,,,,,,1685,98,-53,1,0,0,response3disk,,5,-27,-4,1,0,0,rectangle,-27,-4,1,0,0,-27,-4,1,0,0,0,81,81,122,1,,,,,,,,
,,,,,,,,,,,,,FF,,,,,,,,0.6833,,,,,,,,,,,,,,,,,,,,,,5b4acec4ff74970001255857,60e5635a470138a233dcb485,2021-07-07_11h19.14.156,Simcolourproject_2stim_asymm_v5,2020.2.10,Win32,60,60e52e7cfedb1dae636df45f,,,,,,,,,649,57,-83,1,0,0,response3disk,,4,20,-20,1,0,0,rectangle,20,-20,1,0,0,20,-20,1,0,0,0,82,82,54,1,,,,,,,,
,,,,,,,,,,,,,FF,,,,,,,,1.0003,,,,,,,,,,,,,,,,,,,,,,5b4acec4ff74970001255857,60e5635a470138a233dcb485,2021-07-07_11h19.14.156,Simcolourproject_2stim_asymm_v5,2020.2.10,Win32,60,60e52e7cfedb1dae636df45f,,,,,,,,,2724,133,26,1,0,0,response1disk,,6,22,-10,1,0,0,rectangle,22,-10,1,0,0,22,-10,1,0,0,0,83,83,129,1,,,,,,,,
,,,,,,,,,,,,,FF,,,,,,,,0.8168,,,,,,,,,,,,,,,,,,,,,,5b4acec4ff74970001255857,60e5635a470138a233dcb485,2021-07-07_11h19.14.156,Simcolourproject_2stim_asymm_v5,2020.2.10,Win32,60,60e52e7cfedb1dae636df45f,,,,,,,,,3577,-60,-95,1,0,0,response5disk,,3,-25,-8,1,0,0,rectangle,-25,-8,1,0,0,-25,-8,1,0,0,0,84,84,96,1,,,,,,,,
,,,,,,,,,,,,,FF,,,,,,,,0.8668,,,,,,,,,,,,,,,,,,,,,,5b4acec4ff74970001255857,60e5635a470138a233dcb485,2021-07-07_11h19.14.156,Simcolourproject_2stim_asymm_v5,2020.2.10,Win32,60,60e52e7cfedb1dae636df45f,,,,,,,,,2311,-112,-49,1,0,0,response5disk,,2,-17,3,1,0,0,rectangle,-17,3,1,0,0,-17,3,1,0,0,0,85,85,149,1,,,,,,,,
,,,,,,,,,,,,,FF,,,,,,,,0.7999,,,,,,,,,,,,,,,,,,,,,,5b4acec4ff74970001255857,60e5635a470138a233dcb485,2021-07-07_11h19.14.156,Simcolourproject_2stim_asymm_v5,2020.2.10,Win32,60,60e52e7cfedb1dae636df45f,,,,,,,,,1381,118,48,1,0,0,response1disk,,6,6,-1,1,0,0,rectangle,6,-1,1,0,0,6,-1,1,0,0,0,86,86,120,1,,,,,,,,
,,,,,,,,,,,,,FF,,,,,,,,3.4169,,,,,,,,,,,,,,,,,,,,,,5b4acec4ff74970001255857,60e5635a470138a233dcb485,2021-07-07_11h19.14.156,Simcolourproject_2stim_asymm_v5,2020.2.10,Win32,60,60e52e7cfedb1dae636df45f,,,,,,,,,1942,95,-64,1,0,0,response3disk,,5,-4,-12,1,0,0,rectangle,-4,-12,1,0,0,-4,-12,1,0,0,0,87,87,121,1,,,,,,,,
,,,,,,,,,,,,,FF,,,,,,,,1.5167,,,,,,,,,,,,,,,,,,,,,,5b4acec4ff74970001255857,60e5635a470138a233dcb485,2021-07-07_11h19.14.156,Simcolourproject_2stim_asymm_v5,2020.2.10,Win32,60,60e52e7cfedb1dae636df45f,,,,,,,,,1124,68,-107,1,0,0,response3disk,,4,16,-2,1,0,0,rectangle,16,-2,1,0,0,16,-2,1,0,0,0,88,88,63,1,,,,,,,,
,,,,,,,,,,,,,FF,,,,,,,,1.6501,,,,,,,,,,,,,,,,,,,,,,5b4acec4ff74970001255857,60e5635a470138a233dcb485,2021-07-07_11h19.14.156,Simcolourproject_2stim_asymm_v5,2020.2.10,Win32,60,60e52e7cfedb1dae636df45f,,,,,,,,,2988,131,38,1,0,0,response1disk,,6,30,9,1,0,0,rectangle,30,9,1,0,0,30,9,1,0,0,0,89,89,69,1,,,,,,,,
,,,,,,,,,,,,,FF,,,,,,,,0.9845,,,,,,,,,,,,,,,,,,,,,,5b4acec4ff74970001255857,60e5635a470138a233dcb485,2021-07-07_11h19.14.156,Simcolourproject_2stim_asymm_v5,2020.2.10,Win32,60,60e52e7cfedb1dae636df45f,,,,,,,,,1014,-118,-62,1,0,0,response5disk,,2,3,-2,1,0,0,rectangle,3,-2,1,0,0,3,-2,1,0,0,0,90,90,38,1,,,,,,,,
,,,,,,,,,,,,,FF,,,,,,,,0.6167,,,,,,,,,,,,,,,,,,,,,,5b4acec4ff74970001255857,60e5635a470138a233dcb485,2021-07-07_11h19.14.156,Simcolourproject_2stim_asymm_v5,2020.2.10,Win32,60,60e52e7cfedb1dae636df45f,,,,,,,,,2548,109,38,1,0,0,response1disk,,6,-18,5,1,0,0,rectangle,-18,5,1,0,0,-18,5,1,0,0,0,91,91,35,1,,,,,,,,
,,,,,,,,,,,,,FF,,,,,,,,0.6169,,,,,,,,,,,,,,,,,,,,,,5b4acec4ff74970001255857,60e5635a470138a233dcb485,2021-07-07_11h19.14.156,Simcolourproject_2stim_asymm_v5,2020.2.10,Win32,60,60e52e7cfedb1dae636df45f,,,,,,,,,2606,141,48,1,0,0,response1disk,,6,-8,5,1,0,0,rectangle,-8,5,1,0,0,-8,5,1,0,0,0,92,92,128,1,,,,,,,,
,,,,,,,,,,,,,FF,,,,,,,,0.7676,,,,,,,,,,,,,,,,,,,,,,5b4acec4ff74970001255857,60e5635a470138a233dcb485,2021-07-07_11h19.14.156,Simcolourproject_2stim_asymm_v5,2020.2.10,Win32,60,60e52e7cfedb1dae636df45f,,,,,,,,,2842,56,-85,1,0,0,response3disk,,4,29,-2,1,0,0,rectangle,29,-2,1,0,0,29,-2,1,0,0,0,93,93,83,1,,,,,,,,
,,,,,,,,,,,,,FF,,,,,,,,0.8167,,,,,,,,,,,,,,,,,,,,,,5b4acec4ff74970001255857,60e5635a470138a233dcb485,2021-07-07_11h19.14.156,Simcolourproject_2stim_asymm_v5,2020.2.10,Win32,60,60e52e7cfedb1dae636df45f,,,,,,,,,2133,-113,-59,1,0,0,response5disk,,2,-11,-7,1,0,0,rectangle,-11,-7,1,0,0,-11,-7,1,0,0,0,94,94,157,1,,,,,,,,
,,,,,,,,,,,,,FF,,,,,,,,1.3167,,,,,,,,,,,,,,,,,,,,,,5b4acec4ff74970001255857,60e5635a470138a233dcb485,2021-07-07_11h19.14.156,Simcolourproject_2stim_asymm_v5,2020.2.10,Win32,60,60e52e7cfedb1dae636df45f,,,,,,,,,788,83,-50,1,0,0,response3disk,,5,24,-6,1,0,0,rectangle,24,-6,1,0,0,24,-6,1,0,0,0,95,95,151,1,,,,,,,,
,,,,,,,,,,,,,FF,,,,,,,,0.9501,,,,,,,,,,,,,,,,,,,,,,5b4acec4ff74970001255857,60e5635a470138a233dcb485,2021-07-07_11h19.14.156,Simcolourproject_2stim_asymm_v5,2020.2.10,Win32,60,60e52e7cfedb1dae636df45f,,,,,,,,,1667,-94,-47,1,0,0,response5disk,,2,1,-12,1,0,0,rectangle,1,-12,1,0,0,1,-12,1,0,0,0,96,96,131,1,,,,,,,,
,,,,,,,,,,,,,FF,,,,,,,,1.4666,,,,,,,,,,,,,,,,,,,,,,5b4acec4ff74970001255857,60e5635a470138a233dcb485,2021-07-07_11h19.14.156,Simcolourproject_2stim_asymm_v5,2020.2.10,Win32,60,60e52e7cfedb1dae636df45f,,,,,,,,,4017,-90,-44,1,0,0,response5disk,,2,7,6,1,0,0,rectangle,7,6,1,0,0,7,6,1,0,0,0,97,97,8,1,,,,,,,,
,,,,,,,,,,,,,FF,,,,,,,,0.9501,,,,,,,,,,,,,,,,,,,,,,5b4acec4ff74970001255857,60e5635a470138a233dcb485,2021-07-07_11h19.14.156,Simcolourproject_2stim_asymm_v5,2020.2.10,Win32,60,60e52e7cfedb1dae636df45f,,,,,,,,,254,139,44,1,0,0,response1disk,,6,28,-11,1,0,0,rectangle,28,-11,1,0,0,28,-11,1,0,0,0,98,98,100,1,,,,,,,,
,,,,,,,,,,,,,FF,,,,,,,,1.5168,,,,,,,,,,,,,,,,,,,,,,5b4acec4ff74970001255857,60e5635a470138a233dcb485,2021-07-07_11h19.14.156,Simcolourproject_2stim_asymm_v5,2020.2.10,Win32,60,60e52e7cfedb1dae636df45f,,,,,,,,,1209,-82,-59,1,0,0,response5disk,,2,-3,-4,1,0,0,rectangle,-3,-4,1,0,0,-3,-4,1,0,0,0,99,99,118,1,,,,,,,,
,,,,,,,,,,,,,FF,,,,,,,,1.1175,,,,,,,,,,,,,,,,,,,,,,5b4acec4ff74970001255857,60e5635a470138a233dcb485,2021-07-07_11h19.14.156,Simcolourproject_2stim_asymm_v5,2020.2.10,Win32,60,60e52e7cfedb1dae636df45f,,,,,,,,,451,-62,-47,1,0,0,response5disk,,2,13,-8,1,0,0,rectangle,13,-8,1,0,0,13,-8,1,0,0,0,100,100,147,1,,,,,,,,
,,,,,,,,,,,,,FF,,,,,,,,0.9169,,,,,,,,,,,,,,,,,,,,,,5b4acec4ff74970001255857,60e5635a470138a233dcb485,2021-07-07_11h19.14.156,Simcolourproject_2stim_asymm_v5,2020.2.10,Win32,60,60e52e7cfedb1dae636df45f,,,,,,,,,3078,-92,-52,1,0,0,response5disk,,2,-21,-14,1,0,0,rectangle,-21,-14,1,0,0,-21,-14,1,0,0,0,101,101,70,1,,,,,,,,
,,,,,,,,,,,,,FF,,,,,,,,0.8503,,,,,,,,,,,,,,,,,,,,,,5b4acec4ff74970001255857,60e5635a470138a233dcb485,2021-07-07_11h19.14.156,Simcolourproject_2stim_asymm_v5,2020.2.10,Win32,60,60e52e7cfedb1dae636df45f,,,,,,,,,1223,105,58,1,0,0,response1disk,,6,24,3,1,0,0,rectangle,24,3,1,0,0,24,3,1,0,0,0,102,102,37,1,,,,,,,,
,,,,,,,,,,,,,FF,,,,,,,,0.8669,,,,,,,,,,,,,,,,,,,,,,5b4acec4ff74970001255857,60e5635a470138a233dcb485,2021-07-07_11h19.14.156,Simcolourproject_2stim_asymm_v5,2020.2.10,Win32,60,60e52e7cfedb1dae636df45f,,,,,,,,,3226,-84,-57,1,0,0,response5disk,,2,-27,-20,1,0,0,rectangle,-27,-20,1,0,0,-27,-20,1,0,0,0,103,103,105,1,,,,,,,,
,,,,,,,,,,,,,FF,,,,,,,,0.7,,,,,,,,,,,,,,,,,,,,,,5b4acec4ff74970001255857,60e5635a470138a233dcb485,2021-07-07_11h19.14.156,Simcolourproject_2stim_asymm_v5,2020.2.10,Win32,60,60e52e7cfedb1dae636df45f,,,,,,,,,3106,133,40,1,0,0,response1disk,,6,28,-21,1,0,0,rectangle,28,-21,1,0,0,28,-21,1,0,0,0,104,104,132,1,,,,,,,,
,,,,,,,,,,,,,FF,,,,,,,,2,,,,,,,,,,,,,,,,,,,,,,5b4acec4ff74970001255857,60e5635a470138a233dcb485,2021-07-07_11h19.14.156,Simcolourproject_2stim_asymm_v5,2020.2.10,Win32,60,60e52e7cfedb1dae636df45f,,,,,,,,,2083,40,-95,1,0,0,response3disk,,4,28,-4,1,0,0,rectangle,28,-4,1,0,0,28,-4,1,0,0,0,105,105,117,1,,,,,,,,
,,,,,,,,,,,,,FF,,,,,,,,2.4501,,,,,,,,,,,,,,,,,,,,,,5b4acec4ff74970001255857,60e5635a470138a233dcb485,2021-07-07_11h19.14.156,Simcolourproject_2stim_asymm_v5,2020.2.10,Win32,60,60e52e7cfedb1dae636df45f,,,,,,,,,559,-46,-93,1,0,0,response5disk,,3,9,-16,1,0,0,rectangle,9,-16,1,0,0,9,-16,1,0,0,0,106,106,86,1,,,,,,,,
,,,,,,,,,,,,,FF,,,,,,,,1.75,,,,,,,,,,,,,,,,,,,,,,5b4acec4ff74970001255857,60e5635a470138a233dcb485,2021-07-07_11h19.14.156,Simcolourproject_2stim_asymm_v5,2020.2.10,Win32,60,60e52e7cfedb1dae636df45f,,,,,,,,,1181,-61,-83,1,0,0,response5disk,,3,-9,-2,1,0,0,rectangle,-9,-2,1,0,0,-9,-2,1,0,0,0,107,107,109,1,,,,,,,,
,,,,,,,,,,,,,FF,,,,,,,,0.9834,,,,,,,,,,,,,,,,,,,,,,5b4acec4ff74970001255857,60e5635a470138a233dcb485,2021-07-07_11h19.14.156,Simcolourproject_2stim_asymm_v5,2020.2.10,Win32,60,60e52e7cfedb1dae636df45f,,,,,,,,,1761,50,-107,1,0,0,response3disk,,4,14,2,1,0,0,rectangle,14,2,1,0,0,14,2,1,0,0,0,108,108,17,1,,,,,,,,
,,,,,,,,,,,,,FF,,,,,,,,1.3001,,,,,,,,,,,,,,,,,,,,,,5b4acec4ff74970001255857,60e5635a470138a233dcb485,2021-07-07_11h19.14.156,Simcolourproject_2stim_asymm_v5,2020.2.10,Win32,60,60e52e7cfedb1dae636df45f,,,,,,,,,2824,50,-115,1,0,0,response3disk,,4,18,-2,1,0,0,rectangle,18,-2,1,0,0,18,-2,1,0,0,0,109,109,106,1,,,,,,,,
,,,,,,,,,,,,,FF,,,,,,,,0.7503,,,,,,,,,,,,,,,,,,,,,,5b4acec4ff74970001255857,60e5635a470138a233dcb485,2021-07-07_11h19.14.156,Simcolourproject_2stim_asymm_v5,2020.2.10,Win32,60,60e52e7cfedb1dae636df45f,,,,,,,,,1858,-58,-101,1,0,0,response5disk,,3,-3,0,1,0,0,rectangle,-3,0,1,0,0,-3,0,1,0,0,0,110,110,0,1,,,,,,,,
,,,,,,,,,,,,,FF,,,,,,,,0.7336,,,,,,,,,,,,,,,,,,,,,,5b4acec4ff74970001255857,60e5635a470138a233dcb485,2021-07-07_11h19.14.156,Simcolourproject_2stim_asymm_v5,2020.2.10,Win32,60,60e52e7cfedb1dae636df45f,,,,,,,,,1860,-58,-101,1,0,0,response5disk,,3,25,0,1,0,0,rectangle,25,0,1,0,0,25,0,1,0,0,0,111,111,103,1,,,,,,,,
,,,,,,,,,,,,,FF,,,,,,,,0.6505,,,,,,,,,,,,,,,,,,,,,,5b4acec4ff74970001255857,60e5635a470138a233dcb485,2021-07-07_11h19.14.156,Simcolourproject_2stim_asymm_v5,2020.2.10,Win32,60,60e52e7cfedb1dae636df45f,,,,,,,,,4181,124,66,1,0,0,response1disk,,6,14,3,1,0,0,rectangle,14,3,1,0,0,14,3,1,0,0,0,112,112,53,1,,,,,,,,
,,,,,,,,,,,,,FF,,,,,,,,0.95,,,,,,,,,,,,,,,,,,,,,,5b4acec4ff74970001255857,60e5635a470138a233dcb485,2021-07-07_11h19.14.156,Simcolourproject_2stim_asymm_v5,2020.2.10,Win32,60,60e52e7cfedb1dae636df45f,,,,,,,,,2247,-54,-89,1,0,0,response5disk,,3,-29,-16,1,0,0,rectangle,-29,-16,1,0,0,-29,-16,1,0,0,0,113,113,2,1,,,,,,,,
,,,,,,,,,,,,,FF,,,,,,,,1.3001,,,,,,,,,,,,,,,,,,,,,,5b4acec4ff74970001255857,60e5635a470138a233dcb485,2021-07-07_11h19.14.156,Simcolourproject_2stim_asymm_v5,2020.2.10,Win32,60,60e52e7cfedb1dae636df45f,,,,,,,,,2823,139,44,1,0,0,response1disk,,6,-4,-12,1,0,0,rectangle,-4,-12,1,0,0,-4,-12,1,0,0,0,114,114,41,1,,,,,,,,
,,,,,,,,,,,,,FF,,,,,,,,0.7832,,,,,,,,,,,,,,,,,,,,,,5b4acec4ff74970001255857,60e5635a470138a233dcb485,2021-07-07_11h19.14.156,Simcolourproject_2stim_asymm_v5,2020.2.10,Win32,60,60e52e7cfedb1dae636df45f,,,,,,,,,80,125,42,1,0,0,response1disk,,6,16,-2,1,0,0,rectangle,16,-2,1,0,0,16,-2,1,0,0,0,115,115,59,1,,,,,,,,
,,,,,,,,,,,,,FF,,,,,,,,1.0833,,,,,,,,,,,,,,,,,,,,,,5b4acec4ff74970001255857,60e5635a470138a233dcb485,2021-07-07_11h19.14.156,Simcolourproject_2stim_asymm_v5,2020.2.10,Win32,60,60e52e7cfedb1dae636df45f,,,,,,,,,1019,-26,-113,1,0,0,response5disk,,3,3,-6,1,0,0,rectangle,3,-6,1,0,0,3,-6,1,0,0,0,116,116,78,1,,,,,,,,
,,,,,,,,,,,,,FF,,,,,,,,0.8501,,,,,,,,,,,,,,,,,,,,,,5b4acec4ff74970001255857,60e5635a470138a233dcb485,2021-07-07_11h19.14.156,Simcolourproject_2stim_asymm_v5,2020.2.10,Win32,60,60e52e7cfedb1dae636df45f,,,,,,,,,734,33,-93,1,0,0,response3disk,,4,16,-4,1,0,0,rectangle,16,-4,1,0,0,16,-4,1,0,0,0,117,117,89,1,,,,,,,,
,,,,,,,,,,,,,FF,,,,,,,,0.5502,,,,,,,,,,,,,,,,,,,,,,5b4acec4ff74970001255857,60e5635a470138a233dcb485,2021-07-07_11h19.14.156,Simcolourproject_2stim_asymm_v5,2020.2.10,Win32,60,60e52e7cfedb1dae636df45f,,,,,,,,,1628,-114,-47,1,0,0,response5disk,,2,-5,18,1,0,0,rectangle,-5,18,1,0,0,-5,18,1,0,0,0,118,118,108,1,,,,,,,,
,,,,,,,,,,,,,FF,,,,,,,,0.8002,,,,,,,,,,,,,,,,,,,,,,5b4acec4ff74970001255857,60e5635a470138a233dcb485,2021-07-07_11h19.14.156,Simcolourproject_2stim_asymm_v5,2020.2.10,Win32,60,60e52e7cfedb1dae636df45f,,,,,,,,,1149,109,-47,1,0,0,response3disk,,5,34,4,1,0,0,rectangle,82,134,1,0,0,26,13,1,0,0,0,119,119,7,1,,response1disk_3,TRUE,7,7,"[134,162,297,9,242,270,171,78,221,316,25,46,270,120,53,270,164,305,158,306]",1.9672,rectangle
,,,,,,,,,,,,,FF,,,,,,,,1.1003,,,,,,,,,,,,,,,,,,,,,,5b4acec4ff74970001255857,60e5635a470138a233dcb485,2021-07-07_11h19.14.156,Simcolourproject_2stim_asymm_v5,2020.2.10,Win32,60,60e52e7cfedb1dae636df45f,,,,,,,,,648,41,-99,1,0,0,response3disk,,4,11,18,1,0,0,rectangle,11,18,1,0,0,11,18,1,0,0,0,120,120,57,1,,,,,,,,
,,,,,,,,,,,,,FF,,,,,,,,0.6337,,,,,,,,,,,,,,,,,,,,,,5b4acec4ff74970001255857,60e5635a470138a233dcb485,2021-07-07_11h19.14.156,Simcolourproject_2stim_asymm_v5,2020.2.10,Win32,60,60e52e7cfedb1dae636df45f,,,,,,,,,4254,113,46,1,0,0,response1disk,,6,-4,-1,1,0,0,rectangle,-4,-1,1,0,0,-4,-1,1,0,0,0,121,121,36,1,,,,,,,,
,,,,,,,,,,,,,FF,,,,,,,,0.6335,,,,,,,,,,,,,,,,,,,,,,5b4acec4ff74970001255857,60e5635a470138a233dcb485,2021-07-07_11h19.14.156,Simcolourproject_2stim_asymm_v5,2020.2.10,Win32,60,60e52e7cfedb1dae636df45f,,,,,,,,,1328,-66,-49,1,0,0,response5disk,,2,-1,-16,1,0,0,rectangle,-1,-16,1,0,0,-1,-16,1,0,0,0,122,122,76,1,,,,,,,,
,,,,,,,,,,,,,FF,,,,,,,,0.7168,,,,,,,,,,,,,,,,,,,,,,5b4acec4ff74970001255857,60e5635a470138a233dcb485,2021-07-07_11h19.14.156,Simcolourproject_2stim_asymm_v5,2020.2.10,Win32,60,60e52e7cfedb1dae636df45f,,,,,,,,,1135,107,42,1,0,0,response1disk,,6,4,-9,1,0,0,rectangle,4,-9,1,0,0,4,-9,1,0,0,0,123,123,45,1,,,,,,,,
,,,,,,,,,,,,,FF,,,,,,,,0.7001,,,,,,,,,,,,,,,,,,,,,,5b4acec4ff74970001255857,60e5635a470138a233dcb485,2021-07-07_11h19.14.156,Simcolourproject_2stim_asymm_v5,2020.2.10,Win32,60,60e52e7cfedb1dae636df45f,,,,,,,,,2935,111,46,1,0,0,response1disk,,6,4,9,1,0,0,rectangle,4,9,1,0,0,4,9,1,0,0,0,124,124,34,1,,,,,,,,
,,,,,,,,,,,,,FF,,,,,,,,0.8169,,,,,,,,,,,,,,,,,,,,,,5b4acec4ff74970001255857,60e5635a470138a233dcb485,2021-07-07_11h19.14.156,Simcolourproject_2stim_asymm_v5,2020.2.10,Win32,60,60e52e7cfedb1dae636df45f,,,,,,,,,1502,-92,-66,1,0,0,response5disk,,2,-11,2,1,0,0,rectangle,-11,2,1,0,0,-11,2,1,0,0,0,125,125,142,1,,,,,,,,
,,,,,,,,,,,,,FF,,,,,,,,1.0342,,,,,,,,,,,,,,,,,,,,,,5b4acec4ff74970001255857,60e5635a470138a233dcb485,2021-07-07_11h19.14.156,Simcolourproject_2stim_asymm_v5,2020.2.10,Win32,60,60e52e7cfedb1dae636df45f,,,,,,,,,3769,-92,-59,1,0,0,response5disk,,2,5,-4,1,0,0,rectangle,5,-4,1,0,0,5,-4,1,0,0,0,126,126,141,1,,,,,,,,
,,,,,,,,,,,,,FF,,,,,,,,1.2334,,,,,,,,,,,,,,,,,,,,,,5b4acec4ff74970001255857,60e5635a470138a233dcb485,2021-07-07_11h19.14.156,Simcolourproject_2stim_asymm_v5,2020.2.10,Win32,60,60e52e7cfedb1dae636df45f,,,,,,,,,1979,-128,-74,1,0,0,response5disk,,2,31,0,1,0,0,rectangle,31,0,1,0,0,31,0,1,0,0,0,127,127,153,1,,,,,,,,
,,,,,,,,,,,,,FF,,,,,,,,0.9169,,,,,,,,,,,,,,,,,,,,,,5b4acec4ff74970001255857,60e5635a470138a233dcb485,2021-07-07_11h19.14.156,Simcolourproject_2stim_asymm_v5,2020.2.10,Win32,60,60e52e7cfedb1dae636df45f,,,,,,,,,3467,-72,-49,1,0,0,response5disk,,2,19,-12,1,0,0,rectangle,19,-12,1,0,0,19,-12,1,0,0,0,128,128,12,1,,,,,,,,
,,,,,,,,,,,,,FF,,,,,,,,0.6835,,,,,,,,,,,,,,,,,,,,,,5b4acec4ff74970001255857,60e5635a470138a233dcb485,2021-07-07_11h19.14.156,Simcolourproject_2stim_asymm_v5,2020.2.10,Win32,60,60e52e7cfedb1dae636df45f,,,,,,,,,3971,95,50,1,0,0,response1disk,,6,4,5,1,0,0,rectangle,4,5,1,0,0,4,5,1,0,0,0,129,129,30,1,,,,,,,,
,,,,,,,,,,,,,FF,,,,,,,,0.8335,,,,,,,,,,,,,,,,,,,,,,5b4acec4ff74970001255857,60e5635a470138a233dcb485,2021-07-07_11h19.14.156,Simcolourproject_2stim_asymm_v5,2020.2.10,Win32,60,60e52e7cfedb1dae636df45f,,,,,,,,,3545,-60,-123,1,0,0,response5disk,,3,1,-8,1,0,0,rectangle,1,-8,1,0,0,1,-8,1,0,0,0,130,130,22,1,,,,,,,,
,,,,,,,,,,,,,FF,,,,,,,,1.0668,,,,,,,,,,,,,,,,,,,,,,5b4acec4ff74970001255857,60e5635a470138a233dcb485,2021-07-07_11h19.14.156,Simcolourproject_2stim_asymm_v5,2020.2.10,Win32,60,60e52e7cfedb1dae636df45f,,,,,,,,,2451,-112,-56,1,0,0,response5disk,,2,-3,5,1,0,0,rectangle,-3,5,1,0,0,-3,5,1,0,0,0,131,131,65,1,,,,,,,,
,,,,,,,,,,,,,FF,,,,,,,,1.2678,,,,,,,,,,,,,,,,,,,,,,5b4acec4ff74970001255857,60e5635a470138a233dcb485,2021-07-07_11h19.14.156,Simcolourproject_2stim_asymm_v5,2020.2.10,Win32,60,60e52e7cfedb1dae636df45f,,,,,,,,,2030,93,51,1,0,0,response1disk,,6,14,1,1,0,0,rectangle,14,1,1,0,0,14,1,1,0,0,0,132,132,24,1,,,,,,,,
,,,,,,,,,,,,,FF,,,,,,,,0.5168,,,,,,,,,,,,,,,,,,,,,,5b4acec4ff74970001255857,60e5635a470138a233dcb485,2021-07-07_11h19.14.156,Simcolourproject_2stim_asymm_v5,2020.2.10,Win32,60,60e52e7cfedb1dae636df45f,,,,,,,,,1567,-104,-69,1,0,0,response5disk,,2,-29,0,1,0,0,rectangle,127,39,1,0,0,32,-1,1,0,0,0,133,133,1,1,,response1disk_3,TRUE,6,6,"[134,162,297,9,242,270,171,78,221,316,25,46,270,120,53,270,164,305,158,306]",1.4664,rectangle
,,,,,,,,,,,,,FF,,,,,,,,0.9168,,,,,,,,,,,,,,,,,,,,,,5b4acec4ff74970001255857,60e5635a470138a233dcb485,2021-07-07_11h19.14.156,Simcolourproject_2stim_asymm_v5,2020.2.10,Win32,60,60e52e7cfedb1dae636df45f,,,,,,,,,2208,-78,-53,1,0,0,response5disk,,2,13,14,1,0,0,rectangle,13,14,1,0,0,13,14,1,0,0,0,134,134,101,1,,,,,,,,
,,,,,,,,,,,,,FF,,,,,,,,0.9667,,,,,,,,,,,,,,,,,,,,,,5b4acec4ff74970001255857,60e5635a470138a233dcb485,2021-07-07_11h19.14.156,Simcolourproject_2stim_asymm_v5,2020.2.10,Win32,60,60e52e7cfedb1dae636df45f,,,,,,,,,144,-59,-93,1,0,0,response5disk,,3,-3,-2,1,0,0,rectangle,-3,-2,1,0,0,-3,-2,1,0,0,0,135,135,95,1,,,,,,,,
,,,,,,,,,,,,,FF,,,,,,,,0.7332,,,,,,,,,,,,,,,,,,,,,,5b4acec4ff74970001255857,60e5635a470138a233dcb485,2021-07-07_11h19.14.156,Simcolourproject_2stim_asymm_v5,2020.2.10,Win32,60,60e52e7cfedb1dae636df45f,,,,,,,,,219,-38,-95,1,0,0,response5disk,,3,26,-10,1,0,0,rectangle,26,-10,1,0,0,26,-10,1,0,0,0,136,136,79,1,,,,,,,,
,,,,,,,,,,,,,FF,,,,,,,,0.6,,,,,,,,,,,,,,,,,,,,,,5b4acec4ff74970001255857,60e5635a470138a233dcb485,2021-07-07_11h19.14.156,Simcolourproject_2stim_asymm_v5,2020.2.10,Win32,60,60e52e7cfedb1dae636df45f,,,,,,,,,763,39,-79,1,0,0,response3disk,,4,18,8,1,0,0,rectangle,18,8,1,0,0,18,8,1,0,0,0,137,137,133,1,,,,,,,,
,,,,,,,,,,,,,FF,,,,,,,,0.9834,,,,,,,,,,,,,,,,,,,,,,5b4acec4ff74970001255857,60e5635a470138a233dcb485,2021-07-07_11h19.14.156,Simcolourproject_2stim_asymm_v5,2020.2.10,Win32,60,60e52e7cfedb1dae636df45f,,,,,,,,,3562,43,-83,1,0,0,response3disk,,4,28,-2,1,0,0,rectangle,28,-2,1,0,0,28,-2,1,0,0,0,138,138,119,1,,,,,,,,
,,,,,,,,,,,,,FF,,,,,,,,0.9835,,,,,,,,,,,,,,,,,,,,,,5b4acec4ff74970001255857,60e5635a470138a233dcb485,2021-07-07_11h19.14.156,Simcolourproject_2stim_asymm_v5,2020.2.10,Win32,60,60e52e7cfedb1dae636df45f,,,,,,,,,2224,-119,48,1,0,0,response7disk,,1,-35,-9,1,0,0,rectangle,-35,-9,1,0,0,-35,-9,1,0,0,0,139,139,19,1,,,,,,,,
,,,,,,,,,,,,,FF,,,,,,,,0.7166,,,,,,,,,,,,,,,,,,,,,,5b4acec4ff74970001255857,60e5635a470138a233dcb485,2021-07-07_11h19.14.156,Simcolourproject_2stim_asymm_v5,2020.2.10,Win32,60,60e52e7cfedb1dae636df45f,,,,,,,,,2511,43,-91,1,0,0,response3disk,,4,18,-6,1,0,0,rectangle,18,-6,1,0,0,18,-6,1,0,0,0,140,140,42,1,,,,,,,,
,,,,,,,,,,,,,FF,,,,,,,,1.0669,,,,,,,,,,,,,,,,,,,,,,5b4acec4ff74970001255857,60e5635a470138a233dcb485,2021-07-07_11h19.14.156,Simcolourproject_2stim_asymm_v5,2020.2.10,Win32,60,60e52e7cfedb1dae636df45f,,,,,,,,,2567,-106,-37,1,0,0,response5disk,,2,-35,8,1,0,0,rectangle,-35,8,1,0,0,-35,8,1,0,0,0,141,141,20,1,,,,,,,,
,,,,,,,,,,,,,FF,,,,,,,,0.9669,,,,,,,,,,,,,,,,,,,,,,5b4acec4ff74970001255857,60e5635a470138a233dcb485,2021-07-07_11h19.14.156,Simcolourproject_2stim_asymm_v5,2020.2.10,Win32,60,60e52e7cfedb1dae636df45f,,,,,,,,,914,89,-38,1,0,0,response3disk,,5,24,6,1,0,0,rectangle,24,6,1,0,0,24,6,1,0,0,0,142,142,52,1,,,,,,,,
,,,,,,,,,,,,,FF,,,,,,,,1.7176,,,,,,,,,,,,,,,,,,,,,,5b4acec4ff74970001255857,60e5635a470138a233dcb485,2021-07-07_11h19.14.156,Simcolourproject_2stim_asymm_v5,2020.2.10,Win32,60,60e52e7cfedb1dae636df45f,,,,,,,,,3573,39,-115,1,0,0,response3disk,,4,14,-10,1,0,0,rectangle,14,-10,1,0,0,14,-10,1,0,0,0,143,143,29,1,,,,,,,,
,,,,,,,,,,,,,FF,,,,,,,,2.0168,,,,,,,,,,,,,,,,,,,,,,5b4acec4ff74970001255857,60e5635a470138a233dcb485,2021-07-07_11h19.14.156,Simcolourproject_2stim_asymm_v5,2020.2.10,Win32,60,60e52e7cfedb1dae636df45f,,,,,,,,,4023,-50,-29,1,0,0,response5disk,,2,-9,-12,1,0,0,rectangle,-9,-12,1,0,0,-9,-12,1,0,0,0,144,144,111,1,,,,,,,,
,,,,,,,,,,,,,FF,,,,,,,,1.1165,,,,,,,,,,,,,,,,,,,,,,5b4acec4ff74970001255857,60e5635a470138a233dcb485,2021-07-07_11h19.14.156,Simcolourproject_2stim_asymm_v5,2020.2.10,Win32,60,60e52e7cfedb1dae636df45f,,,,,,,,,2210,-114,-68,1,0,0,response5disk,,2,15,-18,1,0,0,rectangle,15,-18,1,0,0,15,-18,1,0,0,0,145,145,66,1,,,,,,,,
,,,,,,,,,,,,,FF,,,,,,,,0.6501,,,,,,,,,,,,,,,,,,,,,,5b4acec4ff74970001255857,60e5635a470138a233dcb485,2021-07-07_11h19.14.156,Simcolourproject_2stim_asymm_v5,2020.2.10,Win32,60,60e52e7cfedb1dae636df45f,,,,,,,,,2148,-96,-69,1,0,0,response5disk,,2,-11,-14,1,0,0,rectangle,-11,-14,1,0,0,-11,-14,1,0,0,0,146,146,135,1,,,,,,,,
,,,,,,,,,,,,,FF,,,,,,,,0.8668,,,,,,,,,,,,,,,,,,,,,,5b4acec4ff74970001255857,60e5635a470138a233dcb485,2021-07-07_11h19.14.156,Simcolourproject_2stim_asymm_v5,2020.2.10,Win32,60,60e52e7cfedb1dae636df45f,,,,,,,,,3102,89,70,1,0,0,response1disk,,6,-9,5,1,0,0,rectangle,-9,5,1,0,0,-9,5,1,0,0,0,147,147,112,1,,,,,,,,
,,,,,,,,,,,,,FF,,,,,,,,1.5001,,,,,,,,,,,,,,,,,,,,,,5b4acec4ff74970001255857,60e5635a470138a233dcb485,2021-07-07_11h19.14.156,Simcolourproject_2stim_asymm_v5,2020.2.10,Win32,60,60e52e7cfedb1dae636df45f,,,,,,,,,3800,91,-70,1,0,0,response3disk,,5,22,-6,1,0,0,rectangle,22,-6,1,0,0,22,-6,1,0,0,0,148,148,51,1,,,,,,,,
,,,,,,,,,,,,,FF,,,,,,,,0.8335,,,,,,,,,,,,,,,,,,,,,,5b4acec4ff74970001255857,60e5635a470138a233dcb485,2021-07-07_11h19.14.156,Simcolourproject_2stim_asymm_v5,2020.2.10,Win32,60,60e52e7cfedb1dae636df45f,,,,,,,,,2428,144,54,1,0,0,response1disk,,6,0,-15,1,0,0,rectangle,0,-15,1,0,0,0,-15,1,0,0,0,149,149,97,1,,,,,,,,
,,,,,,,,,,,,,FF,,,,,,,,0.5833,,,,,,,,,,,,,,,,,,,,,,5b4acec4ff74970001255857,60e5635a470138a233dcb485,2021-07-07_11h19.14.156,Simcolourproject_2stim_asymm_v5,2020.2.10,Win32,60,60e52e7cfedb1dae636df45f,,,,,,,,,1088,-58,-45,1,0,0,response5disk,,2,-23,-12,1,0,0,rectangle,-23,-12,1,0,0,-23,-12,1,0,0,0,150,150,26,1,,,,,,,,
,,,,,,,,,,,,,FF,,,,,,,,1.9669,,,,,,,,,,,,,,,,,,,,,,5b4acec4ff74970001255857,60e5635a470138a233dcb485,2021-07-07_11h19.14.156,Simcolourproject_2stim_asymm_v5,2020.2.10,Win32,60,60e52e7cfedb1dae636df45f,,,,,,,,,4331,113,44,1,0,0,response1disk,,6,-16,-5,1,0,0,rectangle,-16,-5,1,0,0,-16,-5,1,0,0,0,151,151,21,1,,,,,,,,
,,,,,,,,,,,,,FF,,,,,,,,0.9668,,,,,,,,,,,,,,,,,,,,,,5b4acec4ff74970001255857,60e5635a470138a233dcb485,2021-07-07_11h19.14.156,Simcolourproject_2stim_asymm_v5,2020.2.10,Win32,60,60e52e7cfedb1dae636df45f,,,,,,,,,3807,-66,-41,1,0,0,response5disk,,2,17,2,1,0,0,rectangle,17,2,1,0,0,17,2,1,0,0,0,152,152,82,1,,,,,,,,
,,,,,,,,,,,,,FF,,,,,,,,1.5332,,,,,,,,,,,,,,,,,,,,,,5b4acec4ff74970001255857,60e5635a470138a233dcb485,2021-07-07_11h19.14.156,Simcolourproject_2stim_asymm_v5,2020.2.10,Win32,60,60e52e7cfedb1dae636df45f,,,,,,,,,4307,-61,-87,1,0,0,response5disk,,3,-27,-10,1,0,0,rectangle,-27,-10,1,0,0,-27,-10,1,0,0,0,153,153,77,1,,,,,,,,
,,,,,,,,,,,,,FF,,,,,,,,1.6835,,,,,,,,,,,,,,,,,,,,,,5b4acec4ff74970001255857,60e5635a470138a233dcb485,2021-07-07_11h19.14.156,Simcolourproject_2stim_asymm_v5,2020.2.10,Win32,60,60e52e7cfedb1dae636df45f,,,,,,,,,1574,47,-93,1,0,0,response3disk,,4,-2,-18,1,0,0,rectangle,-2,-18,1,0,0,-2,-18,1,0,0,0,154,154,15,1,,,,,,,,
,,,,,,,,,,,,,FF,,,,,,,,1.9168,,,,,,,,,,,,,,,,,,,,,,5b4acec4ff74970001255857,60e5635a470138a233dcb485,2021-07-07_11h19.14.156,Simcolourproject_2stim_asymm_v5,2020.2.10,Win32,60,60e52e7cfedb1dae636df45f,,,,,,,,,452,61,-113,1,0,0,response3disk,,4,30,-16,1,0,0,rectangle,30,-16,1,0,0,30,-16,1,0,0,0,155,155,107,1,,,,,,,,
,,,,,,,,,,,,,FF,,,,,,,,0.7509,,,,,,,,,,,,,,,,,,,,,,5b4acec4ff74970001255857,60e5635a470138a233dcb485,2021-07-07_11h19.14.156,Simcolourproject_2stim_asymm_v5,2020.2.10,Win32,60,60e52e7cfedb1dae636df45f,,,,,,,,,1843,-102,-61,1,0,0,response5disk,,2,-5,-12,1,0,0,rectangle,-5,-12,1,0,0,-5,-12,1,0,0,0,156,156,23,1,,,,,,,,
,,,,,,,,,,,,,FF,,,,,,,,1.6001,,,,,,,,,,,,,,,,,,,,,,5b4acec4ff74970001255857,60e5635a470138a233dcb485,2021-07-07_11h19.14.156,Simcolourproject_2stim_asymm_v5,2020.2.10,Win32,60,60e52e7cfedb1dae636df45f,,,,,,,,,2380,111,-48,1,0,0,response3disk,,5,16,-6,1,0,0,rectangle,128,-58,1,0,0,9,0,1,0,0,0,157,157,150,1,,response3disk_3,TRUE,5,5,"[134,162,297,9,242,270,171,78,221,316,25,46,270,120,53,270,164,305,158,306]",2.0497,rectangle
,,,,,,,,,,,,,FF,,,,,,,,0.9335,,,,,,,,,,,,,,,,,,,,,,5b4acec4ff74970001255857,60e5635a470138a233dcb485,2021-07-07_11h19.14.156,Simcolourproject_2stim_asymm_v5,2020.2.10,Win32,60,60e52e7cfedb1dae636df45f,,,,,,,,,732,117,60,1,0,0,response1disk,,6,-6,-3,1,0,0,rectangle,-6,-3,1,0,0,-6,-3,1,0,0,0,158,158,87,1,,,,,,,,
,,,,,,,,,,,,,FF,,,,,,,,1.4835,,,,,,,,,,,,,,,,,,,,,,5b4acec4ff74970001255857,60e5635a470138a233dcb485,2021-07-07_11h19.14.156,Simcolourproject_2stim_asymm_v5,2020.2.10,Win32,60,60e52e7cfedb1dae636df45f,,,,,,,,,1909,37,-106,1,0,0,response3disk,,4,4,8,1,0,0,rectangle,4,8,1,0,0,4,8,1,0,0,0,159,159,14,1,,,,,,,,
,,,,,,,,,,,,,FF,,,,,,,,1.7502,,,,,,,,,,,,,,,,,,,,,,5b4acec4ff74970001255857,60e5635a470138a233dcb485,2021-07-07_11h19.14.156,Simcolourproject_2stim_asymm_v5,2020.2.10,Win32,60,60e52e7cfedb1dae636df45f,,,,,,,,,3911,51,-90,1,0,0,response3disk,,4,6,-10,1,0,0,rectangle,6,-10,1,0,0,6,-10,1,0,0,1,0,160,95,1,,,,,,,,
,,,,,,,,,,,,,FF,,,,,,,,1.0334,,,,,,,,,,,,,,,,,,,,,,5b4acec4ff74970001255857,60e5635a470138a233dcb485,2021-07-07_11h19.14.156,Simcolourproject_2stim_asymm_v5,2020.2.10,Win32,60,60e52e7cfedb1dae636df45f,,,,,,,,,4009,123,54,1,0,0,response1disk,,6,16,1,1,0,0,rectangle,125,51,1,0,0,-15,5,1,0,0,1,1,161,85,1,,response1disk_3,TRUE,6,6,"[134,162,297,9,242,270,171,78,221,316,25,46,270,120,53,270,164,305,158,306]",1.3999,rectangle
,,,,,,,,,,,,,FF,,,,,,,,1.2661,,,,,,,,,,,,,,,,,,,,,,5b4acec4ff74970001255857,60e5635a470138a233dcb485,2021-07-07_11h19.14.156,Simcolourproject_2stim_asymm_v5,2020.2.10,Win32,60,60e52e7cfedb1dae636df45f,,,,,,,,,4330,-73,-95,1,0,0,response5disk,,3,-37,-4,1,0,0,rectangle,-37,-4,1,0,0,-37,-4,1,0,0,1,2,162,64,1,,,,,,,,
,,,,,,,,,,,,,FF,,,,,,,,1.3,,,,,,,,,,,,,,,,,,,,,,5b4acec4ff74970001255857,60e5635a470138a233dcb485,2021-07-07_11h19.14.156,Simcolourproject_2stim_asymm_v5,2020.2.10,Win32,60,60e52e7cfedb1dae636df45f,,,,,,,,,2802,-56,-77,1,0,0,response5disk,,3,1,-8,1,0,0,rectangle,-92,-56,1,0,0,-21,4,1,0,0,1,3,163,23,1,,response5disk_3,TRUE,2,2,"[134,162,297,9,242,270,171,78,221,316,25,46,270,120,53,270,164,305,158,306]",1.5668,rectangle
,,,,,,,,,,,,,FF,,,,,,,,1.7336,,,,,,,,,,,,,,,,,,,,,,5b4acec4ff74970001255857,60e5635a470138a233dcb485,2021-07-07_11h19.14.156,Simcolourproject_2stim_asymm_v5,2020.2.10,Win32,60,60e52e7cfedb1dae636df45f,,,,,,,,,4064,44,-93,1,0,0,response3disk,,4,32,-10,1,0,0,rectangle,32,-10,1,0,0,32,-10,1,0,0,1,4,164,34,1,,,,,,,,
,,,,,,,,,,,,,FF,,,,,,,,0.6835,,,,,,,,,,,,,,,,,,,,,,5b4acec4ff74970001255857,60e5635a470138a233dcb485,2021-07-07_11h19.14.156,Simcolourproject_2stim_asymm_v5,2020.2.10,Win32,60,60e52e7cfedb1dae636df45f,,,,,,,,,828,101,-57,1,0,0,response3disk,,5,-2,6,1,0,0,rectangle,-2,6,1,0,0,-2,6,1,0,0,1,5,165,70,1,,,,,,,,
,,,,,,,,,,,,,FF,,,,,,,,0.4833,,,,,,,,,,,,,,,,,,,,,,5b4acec4ff74970001255857,60e5635a470138a233dcb485,2021-07-07_11h19.14.156,Simcolourproject_2stim_asymm_v5,2020.2.10,Win32,60,60e52e7cfedb1dae636df45f,,,,,,,,,991,107,-66,1,0,0,response3disk,,5,-8,11,1,0,0,rectangle,-8,11,1,0,0,-8,11,1,0,0,1,6,166,106,1,,,,,,,,
,,,,,,,,,,,,,FF,,,,,,,,0.8165,,,,,,,,,,,,,,,,,,,,,,5b4acec4ff74970001255857,60e5635a470138a233dcb485,2021-07-07_11h19.14.156,Simcolourproject_2stim_asymm_v5,2020.2.10,Win32,60,60e52e7cfedb1dae636df45f,,,,,,,,,4176,-84,-58,1,0,0,response5disk,,2,11,2,1,0,0,rectangle,11,2,1,0,0,11,2,1,0,0,1,7,167,78,1,,,,,,,,
,,,,,,,,,,,,,FF,,,,,,,,0.8668,,,,,,,,,,,,,,,,,,,,,,5b4acec4ff74970001255857,60e5635a470138a233dcb485,2021-07-07_11h19.14.156,Simcolourproject_2stim_asymm_v5,2020.2.10,Win32,60,60e52e7cfedb1dae636df45f,,,,,,,,,723,111,50,1,0,0,response1disk,,6,8,-8,1,0,0,rectangle,8,-8,1,0,0,8,-8,1,0,0,1,8,168,137,1,,,,,,,,
,,,,,,,,,,,,,FF,,,,,,,,1.6502,,,,,,,,,,,,,,,,,,,,,,5b4acec4ff74970001255857,60e5635a470138a233dcb485,2021-07-07_11h19.14.156,Simcolourproject_2stim_asymm_v5,2020.2.10,Win32,60,60e52e7cfedb1dae636df45f,,,,,,,,,847,-51,-111,1,0,0,response5disk,,3,-1,0,1,0,0,rectangle,-1,0,1,0,0,-1,0,1,0,0,1,9,169,109,1,,,,,,,,
,,,,,,,,,,,,,FF,,,,,,,,1.0166,,,,,,,,,,,,,,,,,,,,,,5b4acec4ff74970001255857,60e5635a470138a233dcb485,2021-07-07_11h19.14.156,Simcolourproject_2stim_asymm_v5,2020.2.10,Win32,60,60e52e7cfedb1dae636df45f,,,,,,,,,3199,78,-113,1,0,0,response3disk,,4,38,9,1,0,0,rectangle,-60,-117,1,0,0,1,8,1,0,0,1,10,170,12,1,,response5disk_3,TRUE,3,3,"[134,162,297,9,242,270,171,78,221,316,25,46,270,120,53,270,164,305,158,306]",1.5999,rectangle
,,,,,,,,,,,,,FF,,,,,,,,1.4666,,,,,,,,,,,,,,,,,,,,,,5b4acec4ff74970001255857,60e5635a470138a233dcb485,2021-07-07_11h19.14.156,Simcolourproject_2stim_asymm_v5,2020.2.10,Win32,60,60e52e7cfedb1dae636df45f,,,,,,,,,3450,65,-97,1,0,0,response3disk,,4,-10,-10,1,0,0,rectangle,-10,-10,1,0,0,-10,-10,1,0,0,1,11,171,25,1,,,,,,,,
,,,,,,,,,,,,,FF,,,,,,,,1.2835,,,,,,,,,,,,,,,,,,,,,,5b4acec4ff74970001255857,60e5635a470138a233dcb485,2021-07-07_11h19.14.156,Simcolourproject_2stim_asymm_v5,2020.2.10,Win32,60,60e52e7cfedb1dae636df45f,,,,,,,,,1864,-40,-111,1,0,0,response5disk,,3,-25,-10,1,0,0,rectangle,-25,-10,1,0,0,-25,-10,1,0,0,1,12,172,121,1,,,,,,,,
,,,,,,,,,,,,,FF,,,,,,,,1.3169,,,,,,,,,,,,,,,,,,,,,,5b4acec4ff74970001255857,60e5635a470138a233dcb485,2021-07-07_11h19.14.156,Simcolourproject_2stim_asymm_v5,2020.2.10,Win32,60,60e52e7cfedb1dae636df45f,,,,,,,,,1746,125,47,1,0,0,response1disk,,6,28,-3,1,0,0,rectangle,28,-3,1,0,0,28,-3,1,0,0,1,13,173,139,1,,,,,,,,
,,,,,,,,,,,,,FF,,,,,,,,0.8668,,,,,,,,,,,,,,,,,,,,,,5b4acec4ff74970001255857,60e5635a470138a233dcb485,2021-07-07_11h19.14.156,Simcolourproject_2stim_asymm_v5,2020.2.10,Win32,60,60e52e7cfedb1dae636df45f,,,,,,,,,1365,95,44,1,0,0,response1disk,,6,-18,-5,1,0,0,rectangle,-18,-5,1,0,0,-18,-5,1,0,0,1,14,174,30,1,,,,,,,,
,,,,,,,,,,,,,FF,,,,,,,,0.6163,,,,,,,,,,,,,,,,,,,,,,5b4acec4ff74970001255857,60e5635a470138a233dcb485,2021-07-07_11h19.14.156,Simcolourproject_2stim_asymm_v5,2020.2.10,Win32,60,60e52e7cfedb1dae636df45f,,,,,,,,,1766,49,-77,1,0,0,response3disk,,4,4,0,1,0,0,rectangle,4,0,1,0,0,4,0,1,0,0,1,15,175,122,1,,,,,,,,
,,,,,,,,,,,,,FF,,,,,,,,0.6501,,,,,,,,,,,,,,,,,,,,,,5b4acec4ff74970001255857,60e5635a470138a233dcb485,2021-07-07_11h19.14.156,Simcolourproject_2stim_asymm_v5,2020.2.10,Win32,60,60e52e7cfedb1dae636df45f,,,,,,,,,620,109,54,1,0,0,response1disk,,6,16,9,1,0,0,rectangle,16,9,1,0,0,16,9,1,0,0,1,16,176,97,1,,,,,,,,
,,,,,,,,,,,,,FF,,,,,,,,0.4668,,,,,,,,,,,,,,,,,,,,,,5b4acec4ff74970001255857,60e5635a470138a233dcb485,2021-07-07_11h19.14.156,Simcolourproject_2stim_asymm_v5,2020.2.10,Win32,60,60e52e7cfedb1dae636df45f,,,,,,,,,2541,57,80,1,0,0,response1disk,,7,20,-7,1,0,0,rectangle,20,-7,1,0,0,20,-7,1,0,0,1,17,177,68,1,,,,,,,,
,,,,,,,,,,,,,FF,,,,,,,,1.4836,,,,,,,,,,,,,,,,,,,,,,5b4acec4ff74970001255857,60e5635a470138a233dcb485,2021-07-07_11h19.14.156,Simcolourproject_2stim_asymm_v5,2020.2.10,Win32,60,60e52e7cfedb1dae636df45f,,,,,,,,,1559,-36,-121,1,0,0,response5disk,,3,5,2,1,0,0,rectangle,5,2,1,0,0,5,2,1,0,0,1,18,178,125,1,,,,,,,,
,,,,,,,,,,,,,FF,,,,,,,,2.6,,,,,,,,,,,,,,,,,,,,,,5b4acec4ff74970001255857,60e5635a470138a233dcb485,2021-07-07_11h19.14.156,Simcolourproject_2stim_asymm_v5,2020.2.10,Win32,60,60e52e7cfedb1dae636df45f,,,,,,,,,3902,-36,-111,1,0,0,response5disk,,3,5,-2,1,0,0,rectangle,5,-2,1,0,0,5,-2,1,0,0,1,19,179,55,1,,,,,,,,
,,,,,,,,,,,,,FF,,,,,,,,1.05,,,,,,,,,,,,,,,,,,,,,,5b4acec4ff74970001255857,60e5635a470138a233dcb485,2021-07-07_11h19.14.156,Simcolourproject_2stim_asymm_v5,2020.2.10,Win32,60,60e52e7cfedb1dae636df45f,,,,,,,,,3905,-102,-43,1,0,0,response5disk,,2,-13,8,1,0,0,rectangle,-13,8,1,0,0,-13,8,1,0,0,1,20,180,110,1,,,,,,,,
,,,,,,,,,,,,,FF,,,,,,,,0.9166,,,,,,,,,,,,,,,,,,,,,,5b4acec4ff74970001255857,60e5635a470138a233dcb485,2021-07-07_11h19.14.156,Simcolourproject_2stim_asymm_v5,2020.2.10,Win32,60,60e52e7cfedb1dae636df45f,,,,,,,,,81,133,46,1,0,0,response1disk,,6,32,-7,1,0,0,rectangle,32,-7,1,0,0,32,-7,1,0,0,1,21,181,140,1,,,,,,,,
,,,,,,,,,,,,,FF,,,,,,,,0.9668,,,,,,,,,,,,,,,,,,,,,,5b4acec4ff74970001255857,60e5635a470138a233dcb485,2021-07-07_11h19.14.156,Simcolourproject_2stim_asymm_v5,2020.2.10,Win32,60,60e52e7cfedb1dae636df45f,,,,,,,,,1442,-108,32,1,0,0,response7disk,,1,-1,-2,1,0,0,rectangle,-1,-2,1,0,0,-1,-2,1,0,0,1,22,182,133,1,,,,,,,,
,,,,,,,,,,,,,FF,,,,,,,,0.6168,,,,,,,,,,,,,,,,,,,,,,5b4acec4ff74970001255857,60e5635a470138a233dcb485,2021-07-07_11h19.14.156,Simcolourproject_2stim_asymm_v5,2020.2.10,Win32,60,60e52e7cfedb1dae636df45f,,,,,,,,,1057,117,60,1,0,0,response1disk,,6,40,3,1,0,0,rectangle,40,3,1,0,0,40,3,1,0,0,1,23,183,50,1,,,,,,,,
,,,,,,,,,,,,,FF,,,,,,,,1.7831,,,,,,,,,,,,,,,,,,,,,,5b4acec4ff74970001255857,60e5635a470138a233dcb485,2021-07-07_11h19.14.156,Simcolourproject_2stim_asymm_v5,2020.2.10,Win32,60,60e52e7cfedb1dae636df45f,,,,,,,,,1363,-48,-101,1,0,0,response5disk,,3,-2,-8,1,0,0,rectangle,-2,-8,1,0,0,-2,-8,1,0,0,1,24,184,114,1,,,,,,,,
,,,,,,,,,,,,,FF,,,,,,,,0.7335,,,,,,,,,,,,,,,,,,,,,,5b4acec4ff74970001255857,60e5635a470138a233dcb485,2021-07-07_11h19.14.156,Simcolourproject_2stim_asymm_v5,2020.2.10,Win32,60,60e52e7cfedb1dae636df45f,,,,,,,,,4207,89,68,1,0,0,response1disk,,6,22,-3,1,0,0,rectangle,22,-3,1,0,0,22,-3,1,0,0,1,25,185,158,1,,,,,,,,
,,,,,,,,,,,,,FF,,,,,,,,0.9334,,,,,,,,,,,,,,,,,,,,,,5b4acec4ff74970001255857,60e5635a470138a233dcb485,2021-07-07_11h19.14.156,Simcolourproject_2stim_asymm_v5,2020.2.10,Win32,60,60e52e7cfedb1dae636df45f,,,,,,,,,2543,111,38,1,0,0,response1disk,,6,25,8,1,0,0,rectangle,25,8,1,0,0,25,8,1,0,0,1,26,186,143,1,,,,,,,,
,,,,,,,,,,,,,FF,,,,,,,,1.05,,,,,,,,,,,,,,,,,,,,,,5b4acec4ff74970001255857,60e5635a470138a233dcb485,2021-07-07_11h19.14.156,Simcolourproject_2stim_asymm_v5,2020.2.10,Win32,60,60e52e7cfedb1dae636df45f,,,,,,,,,1619,56,-97,1,0,0,response3disk,,4,32,-6,1,0,0,rectangle,32,-6,1,0,0,32,-6,1,0,0,1,27,187,156,1,,,,,,,,
,,,,,,,,,,,,,FF,,,,,,,,0.5,,,,,,,,,,,,,,,,,,,,,,5b4acec4ff74970001255857,60e5635a470138a233dcb485,2021-07-07_11h19.14.156,Simcolourproject_2stim_asymm_v5,2020.2.10,Win32,60,60e52e7cfedb1dae636df45f,,,,,,,,,1457,87,50,1,0,0,response1disk,,6,8,-3,1,0,0,rectangle,8,-3,1,0,0,8,-3,1,0,0,1,28,188,61,1,,,,,,,,
,,,,,,,,,,,,,FF,,,,,,,,1.7835,,,,,,,,,,,,,,,,,,,,,,5b4acec4ff74970001255857,60e5635a470138a233dcb485,2021-07-07_11h19.14.156,Simcolourproject_2stim_asymm_v5,2020.2.10,Win32,60,60e52e7cfedb1dae636df45f,,,,,,,,,2617,-62,-75,1,0,0,response5disk,,3,-39,-18,1,0,0,rectangle,-39,-18,1,0,0,-39,-18,1,0,0,1,29,189,69,1,,,,,,,,
,,,,,,,,,,,,,FF,,,,,,,,0.7501,,,,,,,,,,,,,,,,,,,,,,5b4acec4ff74970001255857,60e5635a470138a233dcb485,2021-07-07_11h19.14.156,Simcolourproject_2stim_asymm_v5,2020.2.10,Win32,60,60e52e7cfedb1dae636df45f,,,,,,,,,3867,-48,-105,1,0,0,response5disk,,3,-3,-6,1,0,0,rectangle,-3,-6,1,0,0,-3,-6,1,0,0,1,30,190,100,1,,,,,,,,
,,,,,,,,,,,,,FF,,,,,,,,0.7665,,,,,,,,,,,,,,,,,,,,,,5b4acec4ff74970001255857,60e5635a470138a233dcb485,2021-07-07_11h19.14.156,Simcolourproject_2stim_asymm_v5,2020.2.10,Win32,60,60e52e7cfedb1dae636df45f,,,,,,,,,3623,67,-101,1,0,0,response3disk,,4,20,-8,1,0,0,rectangle,20,-8,1,0,0,20,-8,1,0,0,1,31,191,58,1,,,,,,,,
,,,,,,,,,,,,,FF,,,,,,,,0.8168,,,,,,,,,,,,,,,,,,,,,,5b4acec4ff74970001255857,60e5635a470138a233dcb485,2021-07-07_11h19.14.156,Simcolourproject_2stim_asymm_v5,2020.2.10,Win32,60,60e52e7cfedb1dae636df45f,,,,,,,,,1071,133,40,1,0,0,response1disk,,6,16,6,1,0,0,rectangle,16,6,1,0,0,16,6,1,0,0,1,32,192,32,1,,,,,,,,
,,,,,,,,,,,,,FF,,,,,,,,0.9333,,,,,,,,,,,,,,,,,,,,,,5b4acec4ff74970001255857,60e5635a470138a233dcb485,2021-07-07_11h19.14.156,Simcolourproject_2stim_asymm_v5,2020.2.10,Win32,60,60e52e7cfedb1dae636df45f,,,,,,,,,1382,58,-107,1,0,0,response3disk,,4,28,5,1,0,0,rectangle,28,5,1,0,0,28,5,1,0,0,1,33,193,1,1,,,,,,,,
,,,,,,,,,,,,,FF,,,,,,,,0.5504,,,,,,,,,,,,,,,,,,,,,,5b4acec4ff74970001255857,60e5635a470138a233dcb485,2021-07-07_11h19.14.156,Simcolourproject_2stim_asymm_v5,2020.2.10,Win32,60,60e52e7cfedb1dae636df45f,,,,,,,,,3474,73,-55,1,0,0,response3disk,,5,-2,-6,1,0,0,rectangle,-2,-6,1,0,0,-2,-6,1,0,0,1,34,194,46,1,,,,,,,,
,,,,,,,,,,,,,FF,,,,,,,,0.8504,,,,,,,,,,,,,,,,,,,,,,5b4acec4ff74970001255857,60e5635a470138a233dcb485,2021-07-07_11h19.14.156,Simcolourproject_2stim_asymm_v5,2020.2.10,Win32,60,60e52e7cfedb1dae636df45f,,,,,,,,,2632,-112,-54,1,0,0,response5disk,,2,-5,-6,1,0,0,rectangle,-5,-6,1,0,0,-5,-6,1,0,0,1,35,195,0,1,,,,,,,,
,,,,,,,,,,,,,FF,,,,,,,,0.9835,,,,,,,,,,,,,,,,,,,,,,5b4acec4ff74970001255857,60e5635a470138a233dcb485,2021-07-07_11h19.14.156,Simcolourproject_2stim_asymm_v5,2020.2.10,Win32,60,60e52e7cfedb1dae636df45f,,,,,,,,,389,-78,-41,1,0,0,response5disk,,2,-3,13,1,0,0,rectangle,-3,13,1,0,0,-3,13,1,0,0,1,36,196,5,1,,,,,,,,
,,,,,,,,,,,,,FF,,,,,,,,0.5168,,,,,,,,,,,,,,,,,,,,,,5b4acec4ff74970001255857,60e5635a470138a233dcb485,2021-07-07_11h19.14.156,Simcolourproject_2stim_asymm_v5,2020.2.10,Win32,60,60e52e7cfedb1dae636df45f,,,,,,,,,2295,113,64,1,0,0,response1disk,,6,14,1,1,0,0,rectangle,14,1,1,0,0,14,1,1,0,0,1,37,197,108,1,,,,,,,,
,,,,,,,,,,,,,FF,,,,,,,,1.6003,,,,,,,,,,,,,,,,,,,,,,5b4acec4ff74970001255857,60e5635a470138a233dcb485,2021-07-07_11h19.14.156,Simcolourproject_2stim_asymm_v5,2020.2.10,Win32,60,60e52e7cfedb1dae636df45f,,,,,,,,,224,-86,-103,1,0,0,response5disk,,3,-27,-14,1,0,0,rectangle,-27,-14,1,0,0,-27,-14,1,0,0,1,38,198,27,1,,,,,,,,
,,,,,,,,,,,,,FF,,,,,,,,0.9668,,,,,,,,,,,,,,,,,,,,,,5b4acec4ff74970001255857,60e5635a470138a233dcb485,2021-07-07_11h19.14.156,Simcolourproject_2stim_asymm_v5,2020.2.10,Win32,60,60e52e7cfedb1dae636df45f,,,,,,,,,599,-84,-75,1,0,0,response5disk,,2,-19,-2,1,0,0,rectangle,-19,-2,1,0,0,-19,-2,1,0,0,1,39,199,76,1,,,,,,,,
,,,,,,,,,,,,,FF,,,,,,,,1.0835,,,,,,,,,,,,,,,,,,,,,,5b4acec4ff74970001255857,60e5635a470138a233dcb485,2021-07-07_11h19.14.156,Simcolourproject_2stim_asymm_v5,2020.2.10,Win32,60,60e52e7cfedb1dae636df45f,,,,,,,,,3246,127,56,1,0,0,response1disk,,6,34,-9,1,0,0,rectangle,34,-9,1,0,0,34,-9,1,0,0,1,40,200,155,1,,,,,,,,
,,,,,,,,,,,,,FF,,,,,,,,0.6669,,,,,,,,,,,,,,,,,,,,,,5b4acec4ff74970001255857,60e5635a470138a233dcb485,2021-07-07_11h19.14.156,Simcolourproject_2stim_asymm_v5,2020.2.10,Win32,60,60e52e7cfedb1dae636df45f,,,,,,,,,1827,72,120,1,0,0,response1disk,,7,36,-3,1,0,0,rectangle,36,-3,1,0,0,36,-3,1,0,0,1,41,201,49,1,,,,,,,,
,,,,,,,,,,,,,FF,,,,,,,,1.5998,,,,,,,,,,,,,,,,,,,,,,5b4acec4ff74970001255857,60e5635a470138a233dcb485,2021-07-07_11h19.14.156,Simcolourproject_2stim_asymm_v5,2020.2.10,Win32,60,60e52e7cfedb1dae636df45f,,,,,,,,,3543,67,-119,1,0,0,response3disk,,4,21,4,1,0,0,rectangle,21,4,1,0,0,21,4,1,0,0,1,42,202,111,1,,,,,,,,
,,,,,,,,,,,,,FF,,,,,,,,1.4998,,,,,,,,,,,,,,,,,,,,,,5b4acec4ff74970001255857,60e5635a470138a233dcb485,2021-07-07_11h19.14.156,Simcolourproject_2stim_asymm_v5,2020.2.10,Win32,60,60e52e7cfedb1dae636df45f,,,,,,,,,2350,-114,-41,1,0,0,response5disk,,2,-6,7,1,0,0,rectangle,-6,7,1,0,0,-6,7,1,0,0,1,43,203,112,1,,,,,,,,
,,,,,,,,,,,,,FF,,,,,,,,0.8834,,,,,,,,,,,,,,,,,,,,,,5b4acec4ff74970001255857,60e5635a470138a233dcb485,2021-07-07_11h19.14.156,Simcolourproject_2stim_asymm_v5,2020.2.10,Win32,60,60e52e7cfedb1dae636df45f,,,,,,,,,1901,52,-113,1,0,0,response3disk,,4,6,4,1,0,0,rectangle,6,4,1,0,0,6,4,1,0,0,1,44,204,154,1,,,,,,,,
,,,,,,,,,,,,,FF,,,,,,,,1.4345,,,,,,,,,,,,,,,,,,,,,,5b4acec4ff74970001255857,60e5635a470138a233dcb485,2021-07-07_11h19.14.156,Simcolourproject_2stim_asymm_v5,2020.2.10,Win32,60,60e52e7cfedb1dae636df45f,,,,,,,,,128,21,-128,1,0,0,response3disk,,4,-2,-12,1,0,0,rectangle,-2,-12,1,0,0,-2,-12,1,0,0,1,45,205,7,1,,,,,,,,
,,,,,,,,,,,,,FF,,,,,,,,0.7339,,,,,,,,,,,,,,,,,,,,,,5b4acec4ff74970001255857,60e5635a470138a233dcb485,2021-07-07_11h19.14.156,Simcolourproject_2stim_asymm_v5,2020.2.10,Win32,60,60e52e7cfedb1dae636df45f,,,,,,,,,547,105,70,1,0,0,response1disk,,6,8,-7,1,0,0,rectangle,8,-7,1,0,0,8,-7,1,0,0,1,46,206,4,1,,,,,,,,
,,,,,,,,,,,,,FF,,,,,,,,0.5168,,,,,,,,,,,,,,,,,,,,,,5b4acec4ff74970001255857,60e5635a470138a233dcb485,2021-07-07_11h19.14.156,Simcolourproject_2stim_asymm_v5,2020.2.10,Win32,60,60e52e7cfedb1dae636df45f,,,,,,,,,1890,95,54,1,0,0,response1disk,,6,2,1,1,0,0,rectangle,2,1,1,0,0,2,1,1,0,0,1,47,207,43,1,,,,,,,,
,,,,,,,,,,,,,FF,,,,,,,,0.8669,,,,,,,,,,,,,,,,,,,,,,5b4acec4ff74970001255857,60e5635a470138a233dcb485,2021-07-07_11h19.14.156,Simcolourproject_2stim_asymm_v5,2020.2.10,Win32,60,60e52e7cfedb1dae636df45f,,,,,,,,,1481,-112,-60,1,0,0,response5disk,,2,-2,-10,1,0,0,rectangle,-2,-10,1,0,0,-2,-10,1,0,0,1,48,208,147,1,,,,,,,,
,,,,,,,,,,,,,FF,,,,,,,,3.9501,,,,,,,,,,,,,,,,,,,,,,5b4acec4ff74970001255857,60e5635a470138a233dcb485,2021-07-07_11h19.14.156,Simcolourproject_2stim_asymm_v5,2020.2.10,Win32,60,60e52e7cfedb1dae636df45f,,,,,,,,,2575,-69,-109,1,0,0,response5disk,,3,-41,-6,1,0,0,rectangle,-41,-6,1,0,0,-41,-6,1,0,0,1,49,209,74,1,,,,,,,,
,,,,,,,,,,,,,FF,,,,,,,,0.7335,,,,,,,,,,,,,,,,,,,,,,5b4acec4ff74970001255857,60e5635a470138a233dcb485,2021-07-07_11h19.14.156,Simcolourproject_2stim_asymm_v5,2020.2.10,Win32,60,60e52e7cfedb1dae636df45f,,,,,,,,,2150,54,-123,1,0,0,response3disk,,4,4,4,1,0,0,rectangle,4,4,1,0,0,4,4,1,0,0,1,50,210,63,1,,,,,,,,
,,,,,,,,,,,,,FF,,,,,,,,0.9167,,,,,,,,,,,,,,,,,,,,,,5b4acec4ff74970001255857,60e5635a470138a233dcb485,2021-07-07_11h19.14.156,Simcolourproject_2stim_asymm_v5,2020.2.10,Win32,60,60e52e7cfedb1dae636df45f,,,,,,,,,3939,129,52,1,0,0,response1disk,,6,18,-15,1,0,0,rectangle,18,-15,1,0,0,18,-15,1,0,0,1,51,211,40,1,,,,,,,,
,,,,,,,,,,,,,FF,,,,,,,,0.8002,,,,,,,,,,,,,,,,,,,,,,5b4acec4ff74970001255857,60e5635a470138a233dcb485,2021-07-07_11h19.14.156,Simcolourproject_2stim_asymm_v5,2020.2.10,Win32,60,60e52e7cfedb1dae636df45f,,,,,,,,,3186,55,-115,1,0,0,response3disk,,4,3,-10,1,0,0,rectangle,3,-10,1,0,0,3,-10,1,0,0,1,52,212,33,1,,,,,,,,
,,,,,,,,,,,,,FF,,,,,,,,0.8502,,,,,,,,,,,,,,,,,,,,,,5b4acec4ff74970001255857,60e5635a470138a233dcb485,2021-07-07_11h19.14.156,Simcolourproject_2stim_asymm_v5,2020.2.10,Win32,60,60e52e7cfedb1dae636df45f,,,,,,,,,2483,125,-47,1,0,0,response3disk,,5,38,0,1,0,0,rectangle,38,0,1,0,0,38,0,1,0,0,1,53,213,52,1,,,,,,,,
,,,,,,,,,,,,,FF,,,,,,,,0.7168,,,,,,,,,,,,,,,,,,,,,,5b4acec4ff74970001255857,60e5635a470138a233dcb485,2021-07-07_11h19.14.156,Simcolourproject_2stim_asymm_v5,2020.2.10,Win32,60,60e52e7cfedb1dae636df45f,,,,,,,,,3625,-64,-113,1,0,0,response5disk,,3,-23,-14,1,0,0,rectangle,-23,-14,1,0,0,-23,-14,1,0,0,1,54,214,18,1,,,,,,,,
,,,,,,,,,,,,,FF,,,,,,,,1.8834,,,,,,,,,,,,,,,,,,,,,,5b4acec4ff74970001255857,60e5635a470138a233dcb485,2021-07-07_11h19.14.156,Simcolourproject_2stim_asymm_v5,2020.2.10,Win32,60,60e52e7cfedb1dae636df45f,,,,,,,,,4309,41,-112,1,0,0,response3disk,,4,-32,4,1,0,0,rectangle,-32,4,1,0,0,-32,4,1,0,0,1,55,215,98,1,,,,,,,,
,,,,,,,,,,,,,FF,,,,,,,,3.9832,,,,,,,,,,,,,,,,,,,,,,5b4acec4ff74970001255857,60e5635a470138a233dcb485,2021-07-07_11h19.14.156,Simcolourproject_2stim_asymm_v5,2020.2.10,Win32,60,60e52e7cfedb1dae636df45f,,,,,,,,,2980,-40,-109,1,0,0,response5disk,,3,-7,-10,1,0,0,rectangle,-7,-10,1,0,0,-7,-10,1,0,0,1,56,216,113,1,,,,,,,,
,,,,,,,,,,,,,FF,,,,,,,,1.1498,,,,,,,,,,,,,,,,,,,,,,5b4acec4ff74970001255857,60e5635a470138a233dcb485,2021-07-07_11h19.14.156,Simcolourproject_2stim_asymm_v5,2020.2.10,Win32,60,60e52e7cfedb1dae636df45f,,,,,,,,,3652,-106,-54,1,0,0,response5disk,,2,3,16,1,0,0,rectangle,3,16,1,0,0,3,16,1,0,0,1,57,217,66,1,,,,,,,,
,,,,,,,,,,,,,FF,,,,,,,,0.6999,,,,,,,,,,,,,,,,,,,,,,5b4acec4ff74970001255857,60e5635a470138a233dcb485,2021-07-07_11h19.14.156,Simcolourproject_2stim_asymm_v5,2020.2.10,Win32,60,60e52e7cfedb1dae636df45f,,,,,,,,,697,33,-105,1,0,0,response3disk,,4,26,-4,1,0,0,rectangle,26,-4,1,0,0,26,-4,1,0,0,1,58,218,48,1,,,,,,,,
,,,,,,,,,,,,,FF,,,,,,,,0.8171,,,,,,,,,,,,,,,,,,,,,,5b4acec4ff74970001255857,60e5635a470138a233dcb485,2021-07-07_11h19.14.156,Simcolourproject_2stim_asymm_v5,2020.2.10,Win32,60,60e52e7cfedb1dae636df45f,,,,,,,,,634,131,79,1,0,0,response1disk,,6,26,-7,1,0,0,rectangle,26,-7,1,0,0,26,-7,1,0,0,1,59,219,21,1,,,,,,,,
,,,,,,,,,,,,,FF,,,,,,,,0.7177,,,,,,,,,,,,,,,,,,,,,,5b4acec4ff74970001255857,60e5635a470138a233dcb485,2021-07-07_11h19.14.156,Simcolourproject_2stim_asymm_v5,2020.2.10,Win32,60,60e52e7cfedb1dae636df45f,,,,,,,,,229,-40,-99,1,0,0,response5disk,,3,-21,-14,1,0,0,rectangle,-42,-117,1,0,0,-3,-4,1,0,0,1,60,220,39,1,,response5disk_3,TRUE,3,3,"[134,162,297,9,242,270,171,78,221,316,25,46,270,120,53,270,164,305,158,306]",1.5836,rectangle
,,,,,,,,,,,,,FF,,,,,,,,1.1999,,,,,,,,,,,,,,,,,,,,,,5b4acec4ff74970001255857,60e5635a470138a233dcb485,2021-07-07_11h19.14.156,Simcolourproject_2stim_asymm_v5,2020.2.10,Win32,60,60e52e7cfedb1dae636df45f,,,,,,,,,3091,-64,-89,1,0,0,response5disk,,3,-3,-4,1,0,0,rectangle,-3,-4,1,0,0,-3,-4,1,0,0,1,61,221,129,1,,,,,,,,
,,,,,,,,,,,,,FF,,,,,,,,0.9,,,,,,,,,,,,,,,,,,,,,,5b4acec4ff74970001255857,60e5635a470138a233dcb485,2021-07-07_11h19.14.156,Simcolourproject_2stim_asymm_v5,2020.2.10,Win32,60,60e52e7cfedb1dae636df45f,,,,,,,,,2304,101,-55,1,0,0,response3disk,,5,-28,6,1,0,0,rectangle,-28,6,1,0,0,-28,6,1,0,0,1,62,222,115,1,,,,,,,,
,,,,,,,,,,,,,FF,,,,,,,,0.6833,,,,,,,,,,,,,,,,,,,,,,5b4acec4ff74970001255857,60e5635a470138a233dcb485,2021-07-07_11h19.14.156,Simcolourproject_2stim_asymm_v5,2020.2.10,Win32,60,60e52e7cfedb1dae636df45f,,,,,,,,,3477,103,-38,1,0,0,response3disk,,5,-22,-6,1,0,0,rectangle,-22,-6,1,0,0,-22,-6,1,0,0,1,63,223,116,1,,,,,,,,
,,,,,,,,,,,,,FF,,,,,,,,1.2503,,,,,,,,,,,,,,,,,,,,,,5b4acec4ff74970001255857,60e5635a470138a233dcb485,2021-07-07_11h19.14.156,Simcolourproject_2stim_asymm_v5,2020.2.10,Win32,60,60e52e7cfedb1dae636df45f,,,,,,,,,866,51,-107,1,0,0,response3disk,,4,-16,-4,1,0,0,rectangle,-16,-4,1,0,0,-16,-4,1,0,0,1,64,224,93,1,,,,,,,,
,,,,,,,,,,,,,FF,,,,,,,,0.6512,,,,,,,,,,,,,,,,,,,,,,5b4acec4ff74970001255857,60e5635a470138a233dcb485,2021-07-07_11h19.14.156,Simcolourproject_2stim_asymm_v5,2020.2.10,Win32,60,60e52e7cfedb1dae636df45f,,,,,,,,,2379,61,-125,1,0,0,response3disk,,4,6,-11,1,0,0,rectangle,6,-11,1,0,0,6,-11,1,0,0,1,65,225,128,1,,,,,,,,
,,,,,,,,,,,,,FF,,,,,,,,0.7501,,,,,,,,,,,,,,,,,,,,,,5b4acec4ff74970001255857,60e5635a470138a233dcb485,2021-07-07_11h19.14.156,Simcolourproject_2stim_asymm_v5,2020.2.10,Win32,60,60e52e7cfedb1dae636df45f,,,,,,,,,3901,-62,-111,1,0,0,response5disk,,3,-23,12,1,0,0,rectangle,-23,12,1,0,0,-23,12,1,0,0,1,66,226,47,1,,,,,,,,
,,,,,,,,,,,,,FF,,,,,,,,1.0334,,,,,,,,,,,,,,,,,,,,,,5b4acec4ff74970001255857,60e5635a470138a233dcb485,2021-07-07_11h19.14.156,Simcolourproject_2stim_asymm_v5,2020.2.10,Win32,60,60e52e7cfedb1dae636df45f,,,,,,,,,2640,-98,-60,1,0,0,response5disk,,2,-21,2,1,0,0,rectangle,-21,2,1,0,0,-21,2,1,0,0,1,67,227,60,1,,,,,,,,
,,,,,,,,,,,,,FF,,,,,,,,0.5833,,,,,,,,,,,,,,,,,,,,,,5b4acec4ff74970001255857,60e5635a470138a233dcb485,2021-07-07_11h19.14.156,Simcolourproject_2stim_asymm_v5,2020.2.10,Win32,60,60e52e7cfedb1dae636df45f,,,,,,,,,1991,-96,-53,1,0,0,response5disk,,2,5,8,1,0,0,rectangle,5,8,1,0,0,5,8,1,0,0,1,68,228,53,1,,,,,,,,
,,,,,,,,,,,,,FF,,,,,,,,0.7,,,,,,,,,,,,,,,,,,,,,,5b4acec4ff74970001255857,60e5635a470138a233dcb485,2021-07-07_11h19.14.156,Simcolourproject_2stim_asymm_v5,2020.2.10,Win32,60,60e52e7cfedb1dae636df45f,,,,,,,,,2287,-100,-60,1,0,0,response5disk,,2,-27,-16,1,0,0,rectangle,-27,-16,1,0,0,-27,-16,1,0,0,1,69,229,37,1,,,,,,,,
,,,,,,,,,,,,,FF,,,,,,,,1.0665,,,,,,,,,,,,,,,,,,,,,,5b4acec4ff74970001255857,60e5635a470138a233dcb485,2021-07-07_11h19.14.156,Simcolourproject_2stim_asymm_v5,2020.2.10,Win32,60,60e52e7cfedb1dae636df45f,,,,,,,,,1276,57,-125,1,0,0,response3disk,,4,-20,-10,1,0,0,rectangle,-20,-10,1,0,0,-20,-10,1,0,0,1,70,230,127,1,,,,,,,,
,,,,,,,,,,,,,FF,,,,,,,,0.5336,,,,,,,,,,,,,,,,,,,,,,5b4acec4ff74970001255857,60e5635a470138a233dcb485,2021-07-07_11h19.14.156,Simcolourproject_2stim_asymm_v5,2020.2.10,Win32,60,60e52e7cfedb1dae636df45f,,,,,,,,,3502,-56,-93,1,0,0,response5disk,,3,-19,-16,1,0,0,rectangle,-19,-16,1,0,0,-19,-16,1,0,0,1,71,231,73,1,,,,,,,,
,,,,,,,,,,,,,FF,,,,,,,,1.1669,,,,,,,,,,,,,,,,,,,,,,5b4acec4ff74970001255857,60e5635a470138a233dcb485,2021-07-07_11h19.14.156,Simcolourproject_2stim_asymm_v5,2020.2.10,Win32,60,60e52e7cfedb1dae636df45f,,,,,,,,,1526,113,44,1,0,0,response1disk,,6,-2,-15,1,0,0,rectangle,-2,-15,1,0,0,-2,-15,1,0,0,1,72,232,145,1,,,,,,,,
,,,,,,,,,,,,,FF,,,,,,,,0.7031,,,,,,,,,,,,,,,,,,,,,,5b4acec4ff74970001255857,60e5635a470138a233dcb485,2021-07-07_11h19.14.156,Simcolourproject_2stim_asymm_v5,2020.2.10,Win32,60,60e52e7cfedb1dae636df45f,,,,,,,,,2092,-128,-48,1,0,0,response5disk,,2,-39,6,1,0,0,rectangle,-39,6,1,0,0,-39,6,1,0,0,1,73,233,124,1,,,,,,,,
,,,,,,,,,,,,,FF,,,,,,,,1.1333,,,,,,,,,,,,,,,,,,,,,,5b4acec4ff74970001255857,60e5635a470138a233dcb485,2021-07-07_11h19.14.156,Simcolourproject_2stim_asymm_v5,2020.2.10,Win32,60,60e52e7cfedb1dae636df45f,,,,,,,,,3868,37,-112,1,0,0,response3disk,,4,-6,8,1,0,0,rectangle,-6,8,1,0,0,-6,8,1,0,0,1,74,234,118,1,,,,,,,,
,,,,,,,,,,,,,FF,,,,,,,,1.5514,,,,,,,,,,,,,,,,,,,,,,5b4acec4ff74970001255857,60e5635a470138a233dcb485,2021-07-07_11h19.14.156,Simcolourproject_2stim_asymm_v5,2020.2.10,Win32,60,60e52e7cfedb1dae636df45f,,,,,,,,,1341,-112,-52,1,0,0,response5disk,,2,17,-16,1,0,0,rectangle,17,-16,1,0,0,17,-16,1,0,0,1,75,235,90,1,,,,,,,,
,,,,,,,,,,,,,FF,,,,,,,,0.8665,,,,,,,,,,,,,,,,,,,,,,5b4acec4ff74970001255857,60e5635a470138a233dcb485,2021-07-07_11h19.14.156,Simcolourproject_2stim_asymm_v5,2020.2.10,Win32,60,60e52e7cfedb1dae636df45f,,,,,,,,,1277,-108,-57,1,0,0,response5disk,,2,11,2,1,0,0,rectangle,11,2,1,0,0,11,2,1,0,0,1,76,236,11,1,,,,,,,,
,,,,,,,,,,,,,FF,,,,,,,,0.9667,,,,,,,,,,,,,,,,,,,,,,5b4acec4ff74970001255857,60e5635a470138a233dcb485,2021-07-07_11h19.14.156,Simcolourproject_2stim_asymm_v5,2020.2.10,Win32,60,60e52e7cfedb1dae636df45f,,,,,,,,,2827,51,-84,1,0,0,response3disk,,4,-6,-12,1,0,0,rectangle,-6,-12,1,0,0,-6,-12,1,0,0,1,77,237,20,1,,,,,,,,
,,,,,,,,,,,,,FF,,,,,,,,0.7667,,,,,,,,,,,,,,,,,,,,,,5b4acec4ff74970001255857,60e5635a470138a233dcb485,2021-07-07_11h19.14.156,Simcolourproject_2stim_asymm_v5,2020.2.10,Win32,60,60e52e7cfedb1dae636df45f,,,,,,,,,1296,115,54,1,0,0,response1disk,,6,33,-18,1,0,0,rectangle,33,-18,1,0,0,33,-18,1,0,0,1,78,238,13,1,,,,,,,,
,,,,,,,,,,,,,FF,,,,,,,,0.5835,,,,,,,,,,,,,,,,,,,,,,5b4acec4ff74970001255857,60e5635a470138a233dcb485,2021-07-07_11h19.14.156,Simcolourproject_2stim_asymm_v5,2020.2.10,Win32,60,60e52e7cfedb1dae636df45f,,,,,,,,,1973,65,50,1,0,0,response1disk,,6,8,13,1,0,0,rectangle,8,13,1,0,0,8,13,1,0,0,1,79,239,75,1,,,,,,,,
,,,,,,,,,,,,,FF,,,,,,,,1.4168,,,,,,,,,,,,,,,,,,,,,,5b4acec4ff74970001255857,60e5635a470138a233dcb485,2021-07-07_11h19.14.156,Simcolourproject_2stim_asymm_v5,2020.2.10,Win32,60,60e52e7cfedb1dae636df45f,,,,,,,,,2035,53,-125,1,0,0,response3disk,,4,-5,-6,1,0,0,rectangle,-5,-6,1,0,0,-5,-6,1,0,0,1,80,240,51,1,,,,,,,,
,,,,,,,,,,,,,FF,,,,,,,,0.9001,,,,,,,,,,,,,,,,,,,,,,5b4acec4ff74970001255857,60e5635a470138a233dcb485,2021-07-07_11h19.14.156,Simcolourproject_2stim_asymm_v5,2020.2.10,Win32,60,60e52e7cfedb1dae636df45f,,,,,,,,,1685,-65,-113,1,0,0,response5disk,,3,-29,-18,1,0,0,rectangle,48,-117,1,0,0,0,0,1,0,0,1,81,241,126,1,,response3disk_3,TRUE,4,4,"[134,162,297,9,242,270,171,78,221,316,25,46,270,120,53,270,164,305,158,306]",1.2493,rectangle
,,,,,,,,,,,,,FF,,,,,,,,1.7162,,,,,,,,,,,,,,,,,,,,,,5b4acec4ff74970001255857,60e5635a470138a233dcb485,2021-07-07_11h19.14.156,Simcolourproject_2stim_asymm_v5,2020.2.10,Win32,60,60e52e7cfedb1dae636df45f,,,,,,,,,649,-112,-42,1,0,0,response5disk,,2,25,0,1,0,0,rectangle,25,0,1,0,0,25,0,1,0,0,1,82,242,82,1,,,,,,,,
,,,,,,,,,,,,,FF,,,,,,,,0.6335,,,,,,,,,,,,,,,,,,,,,,5b4acec4ff74970001255857,60e5635a470138a233dcb485,2021-07-07_11h19.14.156,Simcolourproject_2stim_asymm_v5,2020.2.10,Win32,60,60e52e7cfedb1dae636df45f,,,,,,,,,2724,121,64,1,0,0,response1disk,,6,0,5,1,0,0,rectangle,0,5,1,0,0,0,5,1,0,0,1,83,243,36,1,,,,,,,,
,,,,,,,,,,,,,FF,,,,,,,,0.6498,,,,,,,,,,,,,,,,,,,,,,5b4acec4ff74970001255857,60e5635a470138a233dcb485,2021-07-07_11h19.14.156,Simcolourproject_2stim_asymm_v5,2020.2.10,Win32,60,60e52e7cfedb1dae636df45f,,,,,,,,,3577,-108,-60,1,0,0,response5disk,,2,27,-6,1,0,0,rectangle,27,-6,1,0,0,27,-6,1,0,0,1,84,244,150,1,,,,,,,,
,,,,,,,,,,,,,FF,,,,,,,,0.6333,,,,,,,,,,,,,,,,,,,,,,5b4acec4ff74970001255857,60e5635a470138a233dcb485,2021-07-07_11h19.14.156,Simcolourproject_2stim_asymm_v5,2020.2.10,Win32,60,60e52e7cfedb1dae636df45f,,,,,,,,,2311,-82,-55,1,0,0,response5disk,,2,23,0,1,0,0,rectangle,23,0,1,0,0,23,0,1,0,0,1,85,245,8,1,,,,,,,,
,,,,,,,,,,,,,FF,,,,,,,,7.3169,,,,,,,,,,,,,,,,,,,,,,5b4acec4ff74970001255857,60e5635a470138a233dcb485,2021-07-07_11h19.14.156,Simcolourproject_2stim_asymm_v5,2020.2.10,Win32,60,60e52e7cfedb1dae636df45f,,,,,,,,,1381,21,-107,1,0,0,response3disk,,4,16,-12,1,0,0,rectangle,16,-12,1,0,0,16,-12,1,0,0,1,86,246,135,1,,,,,,,,
,,,,,,,,,,,,,FF,,,,,,,,0.6834,,,,,,,,,,,,,,,,,,,,,,5b4acec4ff74970001255857,60e5635a470138a233dcb485,2021-07-07_11h19.14.156,Simcolourproject_2stim_asymm_v5,2020.2.10,Win32,60,60e52e7cfedb1dae636df45f,,,,,,,,,1942,-82,-113,1,0,0,response5disk,,3,-45,-16,1,0,0,rectangle,-45,-16,1,0,0,-45,-16,1,0,0,1,87,247,92,1,,,,,,,,
,,,,,,,,,,,,,FF,,,,,,,,0.9998,,,,,,,,,,,,,,,,,,,,,,5b4acec4ff74970001255857,60e5635a470138a233dcb485,2021-07-07_11h19.14.156,Simcolourproject_2stim_asymm_v5,2020.2.10,Win32,60,60e52e7cfedb1dae636df45f,,,,,,,,,1124,82,-49,1,0,0,response3disk,,5,2,-2,1,0,0,rectangle,2,-2,1,0,0,2,-2,1,0,0,1,88,248,22,1,,,,,,,,
,,,,,,,,,,,,,FF,,,,,,,,1.0001,,,,,,,,,,,,,,,,,,,,,,5b4acec4ff74970001255857,60e5635a470138a233dcb485,2021-07-07_11h19.14.156,Simcolourproject_2stim_asymm_v5,2020.2.10,Win32,60,60e52e7cfedb1dae636df45f,,,,,,,,,2988,-114,-46,1,0,0,response5disk,,2,28,1,1,0,0,rectangle,28,1,1,0,0,28,1,1,0,0,1,89,249,14,1,,,,,,,,
,,,,,,,,,,,,,FF,,,,,,,,0.7002,,,,,,,,,,,,,,,,,,,,,,5b4acec4ff74970001255857,60e5635a470138a233dcb485,2021-07-07_11h19.14.156,Simcolourproject_2stim_asymm_v5,2020.2.10,Win32,60,60e52e7cfedb1dae636df45f,,,,,,,,,1014,-80,-53,1,0,0,response5disk,,2,-21,-2,1,0,0,rectangle,-21,-2,1,0,0,-21,-2,1,0,0,1,90,250,149,1,,,,,,,,
,,,,,,,,,,,,,FF,,,,,,,,4.2167,,,,,,,,,,,,,,,,,,,,,,5b4acec4ff74970001255857,60e5635a470138a233dcb485,2021-07-07_11h19.14.156,Simcolourproject_2stim_asymm_v5,2020.2.10,Win32,60,60e52e7cfedb1dae636df45f,,,,,,,,,2548,42,-97,1,0,0,response3disk,,4,4,-12,1,0,0,rectangle,4,-12,1,0,0,4,-12,1,0,0,1,91,251,67,1,,,,,,,,
,,,,,,,,,,,,,FF,,,,,,,,0.9999,,,,,,,,,,,,,,,,,,,,,,5b4acec4ff74970001255857,60e5635a470138a233dcb485,2021-07-07_11h19.14.156,Simcolourproject_2stim_asymm_v5,2020.2.10,Win32,60,60e52e7cfedb1dae636df45f,,,,,,,,,2606,89,-38,1,0,0,response3disk,,5,-6,-12,1,0,0,rectangle,-6,-12,1,0,0,-6,-12,1,0,0,1,92,252,120,1,,,,,,,,
,,,,,,,,,,,,,FF,,,,,,,,1.1835,,,,,,,,,,,,,,,,,,,,,,5b4acec4ff74970001255857,60e5635a470138a233dcb485,2021-07-07_11h19.14.156,Simcolourproject_2stim_asymm_v5,2020.2.10,Win32,60,60e52e7cfedb1dae636df45f,,,,,,,,,2842,101,-58,1,0,0,response3disk,,5,-17,-12,1,0,0,rectangle,-17,-12,1,0,0,-17,-12,1,0,0,1,93,253,59,1,,,,,,,,
,,,,,,,,,,,,,FF,,,,,,,,0.9499,,,,,,,,,,,,,,,,,,,,,,5b4acec4ff74970001255857,60e5635a470138a233dcb485,2021-07-07_11h19.14.156,Simcolourproject_2stim_asymm_v5,2020.2.10,Win32,60,60e52e7cfedb1dae636df45f,,,,,,,,,2133,-80,-44,1,0,0,response5disk,,2,33,8,1,0,0,rectangle,33,8,1,0,0,33,8,1,0,0,1,94,254,157,1,,,,,,,,
,,,,,,,,,,,,,FF,,,,,,,,1.0336,,,,,,,,,,,,,,,,,,,,,,5b4acec4ff74970001255857,60e5635a470138a233dcb485,2021-07-07_11h19.14.156,Simcolourproject_2stim_asymm_v5,2020.2.10,Win32,60,60e52e7cfedb1dae636df45f,,,,,,,,,788,124,60,1,0,0,response1disk,,6,34,-14,1,0,0,rectangle,34,-14,1,0,0,34,-14,1,0,0,1,95,255,35,1,,,,,,,,
,,,,,,,,,,,,,FF,,,,,,,,1.301,,,,,,,,,,,,,,,,,,,,,,5b4acec4ff74970001255857,60e5635a470138a233dcb485,2021-07-07_11h19.14.156,Simcolourproject_2stim_asymm_v5,2020.2.10,Win32,60,60e52e7cfedb1dae636df45f,,,,,,,,,1667,33,-114,1,0,0,response3disk,,4,19,-14,1,0,0,rectangle,19,-14,1,0,0,19,-14,1,0,0,1,96,256,2,1,,,,,,,,
,,,,,,,,,,,,,FF,,,,,,,,0.6834,,,,,,,,,,,,,,,,,,,,,,5b4acec4ff74970001255857,60e5635a470138a233dcb485,2021-07-07_11h19.14.156,Simcolourproject_2stim_asymm_v5,2020.2.10,Win32,60,60e52e7cfedb1dae636df45f,,,,,,,,,4017,-84,-42,1,0,0,response5disk,,2,11,-4,1,0,0,rectangle,11,-4,1,0,0,11,-4,1,0,0,1,97,257,105,1,,,,,,,,
,,,,,,,,,,,,,FF,,,,,,,,1.4176,,,,,,,,,,,,,,,,,,,,,,5b4acec4ff74970001255857,60e5635a470138a233dcb485,2021-07-07_11h19.14.156,Simcolourproject_2stim_asymm_v5,2020.2.10,Win32,60,60e52e7cfedb1dae636df45f,,,,,,,,,254,135,-42,1,0,0,response3disk,,5,-4,1,1,0,0,rectangle,-4,1,1,0,0,-4,1,1,0,0,1,98,258,136,1,,,,,,,,
,,,,,,,,,,,,,FF,,,,,,,,0.9832,,,,,,,,,,,,,,,,,,,,,,5b4acec4ff74970001255857,60e5635a470138a233dcb485,2021-07-07_11h19.14.156,Simcolourproject_2stim_asymm_v5,2020.2.10,Win32,60,60e52e7cfedb1dae636df45f,,,,,,,,,1209,-48,-124,1,0,0,response5disk,,3,2,-8,1,0,0,rectangle,2,-8,1,0,0,2,-8,1,0,0,1,99,259,44,1,,,,,,,,
,,,,,,,,,,,,,FF,,,,,,,,0.5675,,,,,,,,,,,,,,,,,,,,,,5b4acec4ff74970001255857,60e5635a470138a233dcb485,2021-07-07_11h19.14.156,Simcolourproject_2stim_asymm_v5,2020.2.10,Win32,60,60e52e7cfedb1dae636df45f,,,,,,,,,451,-76,-43,1,0,0,response5disk,,2,19,1,1,0,0,rectangle,19,1,1,0,0,19,1,1,0,0,1,100,260,3,1,,,,,,,,
,,,,,,,,,,,,,FF,,,,,,,,0.75,,,,,,,,,,,,,,,,,,,,,,5b4acec4ff74970001255857,60e5635a470138a233dcb485,2021-07-07_11h19.14.156,Simcolourproject_2stim_asymm_v5,2020.2.10,Win32,60,60e52e7cfedb1dae636df45f,,,,,,,,,3078,-102,-51,1,0,0,response5disk,,2,-23,-4,1,0,0,rectangle,-23,-4,1,0,0,-23,-4,1,0,0,1,101,261,45,1,,,,,,,,
,,,,,,,,,,,,,FF,,,,,,,,0.9169,,,,,,,,,,,,,,,,,,,,,,5b4acec4ff74970001255857,60e5635a470138a233dcb485,2021-07-07_11h19.14.156,Simcolourproject_2stim_asymm_v5,2020.2.10,Win32,60,60e52e7cfedb1dae636df45f,,,,,,,,,1223,123,54,1,0,0,response1disk,,6,12,-7,1,0,0,rectangle,12,-7,1,0,0,12,-7,1,0,0,1,102,262,71,1,,,,,,,,
,,,,,,,,,,,,,FF,,,,,,,,0.733,,,,,,,,,,,,,,,,,,,,,,5b4acec4ff74970001255857,60e5635a470138a233dcb485,2021-07-07_11h19.14.156,Simcolourproject_2stim_asymm_v5,2020.2.10,Win32,60,60e52e7cfedb1dae636df45f,,,,,,,,,3226,-142,-74,1,0,0,response5disk,,2,7,8,1,0,0,rectangle,7,8,1,0,0,7,8,1,0,0,1,103,263,83,1,,,,,,,,
,,,,,,,,,,,,,FF,,,,,,,,1.1834,,,,,,,,,,,,,,,,,,,,,,5b4acec4ff74970001255857,60e5635a470138a233dcb485,2021-07-07_11h19.14.156,Simcolourproject_2stim_asymm_v5,2020.2.10,Win32,60,60e52e7cfedb1dae636df45f,,,,,,,,,3106,141,64,1,0,0,response1disk,,6,22,13,1,0,0,rectangle,22,13,1,0,0,22,13,1,0,0,1,104,264,80,1,,,,,,,,
,,,,,,,,,,,,,FF,,,,,,,,1.0171,,,,,,,,,,,,,,,,,,,,,,5b4acec4ff74970001255857,60e5635a470138a233dcb485,2021-07-07_11h19.14.156,Simcolourproject_2stim_asymm_v5,2020.2.10,Win32,60,60e52e7cfedb1dae636df45f,,,,,,,,,2083,-80,44,1,0,0,response7disk,,1,1,11,1,0,0,rectangle,1,11,1,0,0,1,11,1,0,0,1,105,265,6,1,,,,,,,,
,,,,,,,,,,,,,FF,,,,,,,,0.6835,,,,,,,,,,,,,,,,,,,,,,5b4acec4ff74970001255857,60e5635a470138a233dcb485,2021-07-07_11h19.14.156,Simcolourproject_2stim_asymm_v5,2020.2.10,Win32,60,60e52e7cfedb1dae636df45f,,,,,,,,,559,-90,50,1,0,0,response7disk,,1,-5,15,1,0,0,rectangle,-5,15,1,0,0,-5,15,1,0,0,1,106,266,65,1,,,,,,,,
,,,,,,,,,,,,,FF,,,,,,,,0.55,,,,,,,,,,,,,,,,,,,,,,5b4acec4ff74970001255857,60e5635a470138a233dcb485,2021-07-07_11h19.14.156,Simcolourproject_2stim_asymm_v5,2020.2.10,Win32,60,60e52e7cfedb1dae636df45f,,,,,,,,,1181,-98,46,1,0,0,response7disk,,1,-13,5,1,0,0,rectangle,-13,5,1,0,0,-13,5,1,0,0,1,107,267,38,1,,,,,,,,
,,,,,,,,,,,,,FF,,,,,,,,1.3168,,,,,,,,,,,,,,,,,,,,,,5b4acec4ff74970001255857,60e5635a470138a233dcb485,2021-07-07_11h19.14.156,Simcolourproject_2stim_asymm_v5,2020.2.10,Win32,60,60e52e7cfedb1dae636df45f,,,,,,,,,1761,-51,-109,1,0,0,response5disk,,3,-5,-6,1,0,0,rectangle,-5,-6,1,0,0,-5,-6,1,0,0,1,108,268,132,1,,,,,,,,
,,,,,,,,,,,,,FF,,,,,,,,0.8835,,,,,,,,,,,,,,,,,,,,,,5b4acec4ff74970001255857,60e5635a470138a233dcb485,2021-07-07_11h19.14.156,Simcolourproject_2stim_asymm_v5,2020.2.10,Win32,60,60e52e7cfedb1dae636df45f,,,,,,,,,2824,110,50,1,0,0,response1disk,,6,24,-2,1,0,0,rectangle,-30,-118,1,0,0,17,0,1,0,0,1,109,269,152,1,,response5disk_3,TRUE,3,3,"[134,162,297,9,242,270,171,78,221,316,25,46,270,120,53,270,164,305,158,306]",1.6498,rectangle
,,,,,,,,,,,,,FF,,,,,,,,1.4834,,,,,,,,,,,,,,,,,,,,,,5b4acec4ff74970001255857,60e5635a470138a233dcb485,2021-07-07_11h19.14.156,Simcolourproject_2stim_asymm_v5,2020.2.10,Win32,60,60e52e7cfedb1dae636df45f,,,,,,,,,1858,-102,-53,1,0,0,response5disk,,2,1,16,1,0,0,rectangle,1,16,1,0,0,1,16,1,0,0,1,110,270,131,1,,,,,,,,
,,,,,,,,,,,,,FF,,,,,,,,2.6001,,,,,,,,,,,,,,,,,,,,,,5b4acec4ff74970001255857,60e5635a470138a233dcb485,2021-07-07_11h19.14.156,Simcolourproject_2stim_asymm_v5,2020.2.10,Win32,60,60e52e7cfedb1dae636df45f,,,,,,,,,1860,-62,-121,1,0,0,response5disk,,3,-15,-14,1,0,0,rectangle,-15,-14,1,0,0,-15,-14,1,0,0,1,111,271,146,1,,,,,,,,
,,,,,,,,,,,,,FF,,,,,,,,0.9001,,,,,,,,,,,,,,,,,,,,,,5b4acec4ff74970001255857,60e5635a470138a233dcb485,2021-07-07_11h19.14.156,Simcolourproject_2stim_asymm_v5,2020.2.10,Win32,60,60e52e7cfedb1dae636df45f,,,,,,,,,4181,68,112,1,0,0,response1disk,,7,-6,-3,1,0,0,rectangle,-6,-3,1,0,0,-6,-3,1,0,0,1,112,272,88,1,,,,,,,,
,,,,,,,,,,,,,FF,,,,,,,,1.067,,,,,,,,,,,,,,,,,,,,,,5b4acec4ff74970001255857,60e5635a470138a233dcb485,2021-07-07_11h19.14.156,Simcolourproject_2stim_asymm_v5,2020.2.10,Win32,60,60e52e7cfedb1dae636df45f,,,,,,,,,2247,54,-107,1,0,0,response3disk,,4,24,-8,1,0,0,rectangle,24,-8,1,0,0,24,-8,1,0,0,1,113,273,141,1,,,,,,,,
,,,,,,,,,,,,,FF,,,,,,,,1.2335,,,,,,,,,,,,,,,,,,,,,,5b4acec4ff74970001255857,60e5635a470138a233dcb485,2021-07-07_11h19.14.156,Simcolourproject_2stim_asymm_v5,2020.2.10,Win32,60,60e52e7cfedb1dae636df45f,,,,,,,,,2823,49,-120,1,0,0,response3disk,,4,-13,-20,1,0,0,rectangle,-13,-20,1,0,0,-13,-20,1,0,0,1,114,274,130,1,,,,,,,,
,,,,,,,,,,,,,FF,,,,,,,,0.9336,,,,,,,,,,,,,,,,,,,,,,5b4acec4ff74970001255857,60e5635a470138a233dcb485,2021-07-07_11h19.14.156,Simcolourproject_2stim_asymm_v5,2020.2.10,Win32,60,60e52e7cfedb1dae636df45f,,,,,,,,,80,143,52,1,0,0,response1disk,,6,-4,3,1,0,0,rectangle,-4,3,1,0,0,-4,3,1,0,0,1,115,275,29,1,,,,,,,,
,,,,,,,,,,,,,FF,,,,,,,,0.6835,,,,,,,,,,,,,,,,,,,,,,5b4acec4ff74970001255857,60e5635a470138a233dcb485,2021-07-07_11h19.14.156,Simcolourproject_2stim_asymm_v5,2020.2.10,Win32,60,60e52e7cfedb1dae636df45f,,,,,,,,,1019,-36,-97,1,0,0,response5disk,,3,11,-10,1,0,0,rectangle,11,-10,1,0,0,11,-10,1,0,0,1,116,276,62,1,,,,,,,,
,,,,,,,,,,,,,FF,,,,,,,,0.9,,,,,,,,,,,,,,,,,,,,,,5b4acec4ff74970001255857,60e5635a470138a233dcb485,2021-07-07_11h19.14.156,Simcolourproject_2stim_asymm_v5,2020.2.10,Win32,60,60e52e7cfedb1dae636df45f,,,,,,,,,734,83,-71,1,0,0,response3disk,,5,10,0,1,0,0,rectangle,10,0,1,0,0,10,0,1,0,0,1,117,277,84,1,,,,,,,,
,,,,,,,,,,,,,FF,,,,,,,,0.8334,,,,,,,,,,,,,,,,,,,,,,5b4acec4ff74970001255857,60e5635a470138a233dcb485,2021-07-07_11h19.14.156,Simcolourproject_2stim_asymm_v5,2020.2.10,Win32,60,60e52e7cfedb1dae636df45f,,,,,,,,,1628,-51,-111,1,0,0,response5disk,,3,23,-2,1,0,0,rectangle,23,-2,1,0,0,23,-2,1,0,0,1,118,278,151,1,,,,,,,,
,,,,,,,,,,,,,FF,,,,,,,,0.6664,,,,,,,,,,,,,,,,,,,,,,5b4acec4ff74970001255857,60e5635a470138a233dcb485,2021-07-07_11h19.14.156,Simcolourproject_2stim_asymm_v5,2020.2.10,Win32,60,60e52e7cfedb1dae636df45f,,,,,,,,,1149,97,44,1,0,0,response1disk,,6,8,-21,1,0,0,rectangle,8,-21,1,0,0,8,-21,1,0,0,1,119,279,134,1,,,,,,,,
,,,,,,,,,,,,,FF,,,,,,,,0.8833,,,,,,,,,,,,,,,,,,,,,,5b4acec4ff74970001255857,60e5635a470138a233dcb485,2021-07-07_11h19.14.156,Simcolourproject_2stim_asymm_v5,2020.2.10,Win32,60,60e52e7cfedb1dae636df45f,,,,,,,,,648,-52,-120,1,0,0,response5disk,,3,-7,-16,1,0,0,rectangle,-7,-16,1,0,0,-7,-16,1,0,0,1,120,280,101,1,,,,,,,,
,,,,,,,,,,,,,FF,,,,,,,,0.7169,,,,,,,,,,,,,,,,,,,,,,5b4acec4ff74970001255857,60e5635a470138a233dcb485,2021-07-07_11h19.14.156,Simcolourproject_2stim_asymm_v5,2020.2.10,Win32,60,60e52e7cfedb1dae636df45f,,,,,,,,,4254,119,38,1,0,0,response1disk,,6,22,-17,1,0,0,rectangle,22,-17,1,0,0,22,-17,1,0,0,1,121,281,102,1,,,,,,,,
,,,,,,,,,,,,,FF,,,,,,,,0.6503,,,,,,,,,,,,,,,,,,,,,,5b4acec4ff74970001255857,60e5635a470138a233dcb485,2021-07-07_11h19.14.156,Simcolourproject_2stim_asymm_v5,2020.2.10,Win32,60,60e52e7cfedb1dae636df45f,,,,,,,,,1328,-74,-57,1,0,0,response5disk,,2,-7,-2,1,0,0,rectangle,-7,-2,1,0,0,-7,-2,1,0,0,1,122,282,17,1,,,,,,,,
,,,,,,,,,,,,,FF,,,,,,,,0.4667,,,,,,,,,,,,,,,,,,,,,,5b4acec4ff74970001255857,60e5635a470138a233dcb485,2021-07-07_11h19.14.156,Simcolourproject_2stim_asymm_v5,2020.2.10,Win32,60,60e52e7cfedb1dae636df45f,,,,,,,,,1135,103,52,1,0,0,response1disk,,6,20,-7,1,0,0,rectangle,20,-7,1,0,0,20,-7,1,0,0,1,123,283,91,1,,,,,,,,
,,,,,,,,,,,,,FF,,,,,,,,0.9667,,,,,,,,,,,,,,,,,,,,,,5b4acec4ff74970001255857,60e5635a470138a233dcb485,2021-07-07_11h19.14.156,Simcolourproject_2stim_asymm_v5,2020.2.10,Win32,60,60e52e7cfedb1dae636df45f,,,,,,,,,2935,114,34,1,0,0,response1disk,,6,12,-21,1,0,0,rectangle,12,-21,1,0,0,12,-21,1,0,0,1,124,284,26,1,,,,,,,,
,,,,,,,,,,,,,FF,,,,,,,,0.5835,,,,,,,,,,,,,,,,,,,,,,5b4acec4ff74970001255857,60e5635a470138a233dcb485,2021-07-07_11h19.14.156,Simcolourproject_2stim_asymm_v5,2020.2.10,Win32,60,60e52e7cfedb1dae636df45f,,,,,,,,,1502,-96,-43,1,0,0,response5disk,,2,20,3,1,0,0,rectangle,20,3,1,0,0,20,3,1,0,0,1,125,285,16,1,,,,,,,,
,,,,,,,,,,,,,FF,,,,,,,,0.5334,,,,,,,,,,,,,,,,,,,,,,5b4acec4ff74970001255857,60e5635a470138a233dcb485,2021-07-07_11h19.14.156,Simcolourproject_2stim_asymm_v5,2020.2.10,Win32,60,60e52e7cfedb1dae636df45f,,,,,,,,,3769,-64,-39,1,0,0,response5disk,,2,-15,0,1,0,0,rectangle,-15,0,1,0,0,-15,0,1,0,0,1,126,286,144,1,,,,,,,,
,,,,,,,,,,,,,FF,,,,,,,,0.6336,,,,,,,,,,,,,,,,,,,,,,5b4acec4ff74970001255857,60e5635a470138a233dcb485,2021-07-07_11h19.14.156,Simcolourproject_2stim_asymm_v5,2020.2.10,Win32,60,60e52e7cfedb1dae636df45f,,,,,,,,,1979,-88,-39,1,0,0,response5disk,,2,-1,6,1,0,0,rectangle,-1,6,1,0,0,-1,6,1,0,0,1,127,287,99,1,,,,,,,,
,,,,,,,,,,,,,FF,,,,,,,,1.5833,,,,,,,,,,,,,,,,,,,,,,5b4acec4ff74970001255857,60e5635a470138a233dcb485,2021-07-07_11h19.14.156,Simcolourproject_2stim_asymm_v5,2020.2.10,Win32,60,60e52e7cfedb1dae636df45f,,,,,,,,,3467,26,-105,1,0,0,response3disk,,4,8,-12,1,0,0,rectangle,8,-12,1,0,0,8,-12,1,0,0,1,128,288,89,1,,,,,,,,
,,,,,,,,,,,,,FF,,,,,,,,0.6667,,,,,,,,,,,,,,,,,,,,,,5b4acec4ff74970001255857,60e5635a470138a233dcb485,2021-07-07_11h19.14.156,Simcolourproject_2stim_asymm_v5,2020.2.10,Win32,60,60e52e7cfedb1dae636df45f,,,,,,,,,3971,105,52,1,0,0,response1disk,,6,0,1,1,0,0,rectangle,0,1,1,0,0,0,1,1,0,0,1,129,289,87,1,,,,,,,,
,,,,,,,,,,,,,FF,,,,,,,,1.2832,,,,,,,,,,,,,,,,,,,,,,5b4acec4ff74970001255857,60e5635a470138a233dcb485,2021-07-07_11h19.14.156,Simcolourproject_2stim_asymm_v5,2020.2.10,Win32,60,60e52e7cfedb1dae636df45f,,,,,,,,,3545,-104,-56,1,0,0,response5disk,,2,-9,8,1,0,0,rectangle,-9,8,1,0,0,-9,8,1,0,0,1,130,290,19,1,,,,,,,,
,,,,,,,,,,,,,FF,,,,,,,,0.5503,,,,,,,,,,,,,,,,,,,,,,5b4acec4ff74970001255857,60e5635a470138a233dcb485,2021-07-07_11h19.14.156,Simcolourproject_2stim_asymm_v5,2020.2.10,Win32,60,60e52e7cfedb1dae636df45f,,,,,,,,,2451,-128,-59,1,0,0,response5disk,,2,3,-9,1,0,0,rectangle,3,-9,1,0,0,3,-9,1,0,0,1,131,291,96,1,,,,,,,,
,,,,,,,,,,,,,FF,,,,,,,,0.7333,,,,,,,,,,,,,,,,,,,,,,5b4acec4ff74970001255857,60e5635a470138a233dcb485,2021-07-07_11h19.14.156,Simcolourproject_2stim_asymm_v5,2020.2.10,Win32,60,60e52e7cfedb1dae636df45f,,,,,,,,,2030,115,28,1,0,0,response1disk,,6,2,-11,1,0,0,rectangle,2,-11,1,0,0,2,-11,1,0,0,1,132,292,123,1,,,,,,,,
,,,,,,,,,,,,,FF,,,,,,,,0.6501,,,,,,,,,,,,,,,,,,,,,,5b4acec4ff74970001255857,60e5635a470138a233dcb485,2021-07-07_11h19.14.156,Simcolourproject_2stim_asymm_v5,2020.2.10,Win32,60,60e52e7cfedb1dae636df45f,,,,,,,,,1567,-82,43,1,0,0,response7disk,,1,-9,-3,1,0,0,rectangle,-9,-3,1,0,0,-9,-3,1,0,0,1,133,293,10,1,,,,,,,,
,,,,,,,,,,,,,FF,,,,,,,,0.95,,,,,,,,,,,,,,,,,,,,,,5b4acec4ff74970001255857,60e5635a470138a233dcb485,2021-07-07_11h19.14.156,Simcolourproject_2stim_asymm_v5,2020.2.10,Win32,60,60e52e7cfedb1dae636df45f,,,,,,,,,2208,-76,41,1,0,0,response7disk,,1,-15,7,1,0,0,rectangle,-15,7,1,0,0,-15,7,1,0,0,1,134,294,148,1,,,,,,,,
,,,,,,,,,,,,,FF,,,,,,,,1.0001,,,,,,,,,,,,,,,,,,,,,,5b4acec4ff74970001255857,60e5635a470138a233dcb485,2021-07-07_11h19.14.156,Simcolourproject_2stim_asymm_v5,2020.2.10,Win32,60,60e52e7cfedb1dae636df45f,,,,,,,,,144,-70,-57,1,0,0,response5disk,,2,-5,-6,1,0,0,rectangle,-5,-6,1,0,0,-5,-6,1,0,0,1,135,295,119,1,,,,,,,,
,,,,,,,,,,,,,FF,,,,,,,,1.7168,,,,,,,,,,,,,,,,,,,,,,5b4acec4ff74970001255857,60e5635a470138a233dcb485,2021-07-07_11h19.14.156,Simcolourproject_2stim_asymm_v5,2020.2.10,Win32,60,60e52e7cfedb1dae636df45f,,,,,,,,,219,-68,-133,1,0,0,response5disk,,3,5,-10,1,0,0,rectangle,109,-38,1,0,0,6,4,1,0,0,1,136,296,56,1,,response3disk_3,TRUE,5,5,"[134,162,297,9,242,270,171,78,221,316,25,46,270,120,53,270,164,305,158,306]",1.4995,rectangle
,,,,,,,,,,,,,FF,,,,,,,,0.8998,,,,,,,,,,,,,,,,,,,,,,5b4acec4ff74970001255857,60e5635a470138a233dcb485,2021-07-07_11h19.14.156,Simcolourproject_2stim_asymm_v5,2020.2.10,Win32,60,60e52e7cfedb1dae636df45f,,,,,,,,,763,47,-119,1,0,0,response3disk,,4,-28,-10,1,0,0,rectangle,-28,-10,1,0,0,-28,-10,1,0,0,1,137,297,138,1,,,,,,,,
,,,,,,,,,,,,,FF,,,,,,,,1.0831,,,,,,,,,,,,,,,,,,,,,,5b4acec4ff74970001255857,60e5635a470138a233dcb485,2021-07-07_11h19.14.156,Simcolourproject_2stim_asymm_v5,2020.2.10,Win32,60,60e52e7cfedb1dae636df45f,,,,,,,,,3562,-76,-114,1,0,0,response5disk,,3,27,-14,1,0,0,rectangle,27,-14,1,0,0,27,-14,1,0,0,1,138,298,94,1,,,,,,,,
,,,,,,,,,,,,,FF,,,,,,,,0.8,,,,,,,,,,,,,,,,,,,,,,5b4acec4ff74970001255857,60e5635a470138a233dcb485,2021-07-07_11h19.14.156,Simcolourproject_2stim_asymm_v5,2020.2.10,Win32,60,60e52e7cfedb1dae636df45f,,,,,,,,,2224,-82,-51,1,0,0,response5disk,,2,-17,20,1,0,0,rectangle,-17,20,1,0,0,-17,20,1,0,0,1,139,299,77,1,,,,,,,,
,,,,,,,,,,,,,FF,,,,,,,,0.7834,,,,,,,,,,,,,,,,,,,,,,5b4acec4ff74970001255857,60e5635a470138a233dcb485,2021-07-07_11h19.14.156,Simcolourproject_2stim_asymm_v5,2020.2.10,Win32,60,60e52e7cfedb1dae636df45f,,,,,,,,,2511,-114,-48,1,0,0,response5disk,,2,-1,12,1,0,0,rectangle,-1,12,1,0,0,-1,12,1,0,0,1,140,300,24,1,,,,,,,,
,,,,,,,,,,,,,FF,,,,,,,,0.6668,,,,,,,,,,,,,,,,,,,,,,5b4acec4ff74970001255857,60e5635a470138a233dcb485,2021-07-07_11h19.14.156,Simcolourproject_2stim_asymm_v5,2020.2.10,Win32,60,60e52e7cfedb1dae636df45f,,,,,,,,,2567,-98,34,1,0,0,response7disk,,1,-35,1,1,0,0,rectangle,-35,1,1,0,0,-35,1,1,0,0,1,141,301,28,1,,,,,,,,
