key_resp.keys,key_resp.rt,key_resp_14.keys,key_resp_14.rt,key_resp_15.keys,key_resp_15.rt,key_resp_17.keys,key_resp_17.rt,key_resp_9.keys,key_resp_9.rt,key_resp_10.keys,key_resp_10.rt,practice_comparison,Ecc,mouse_5.x,mouse_5.y,mouse_5.leftButton,mouse_5.midButton,mouse_5.rightButton,mouse_5.clicked_name,pracsimilarity,response_time,mouse_10.x,mouse_10.y,mouse_10.leftButton,mouse_10.midButton,mouse_10.rightButton,mouse_10.clicked_name,mouse_7.x,mouse_7.y,mouse_7.leftButton,mouse_7.midButton,mouse_7.rightButton,mouse_6.x,mouse_6.y,mouse_6.leftButton,mouse_6.midButton,mouse_6.rightButton,duringprac.thisRepN,duringprac.thisTrialN,duringprac.thisN,duringprac.thisIndex,duringprac.ran,participant,session,date,expName,psychopyVersion,OS,frameRate,study_id,mouse_7.clicked_name,catchpracsimilarity,catch_response_time,catchnumberprac,catchtrialorderprac,mouse_6.clicked_name,key_resp_22.keys,key_resp_22.rt,realcomparison,mouse.x,mouse.y,mouse.leftButton,mouse.midButton,mouse.rightButton,mouse.clicked_name,Colour2,similarity,mouse_2.x,mouse_2.y,mouse_2.leftButton,mouse_2.midButton,mouse_2.rightButton,mouse_2.clicked_name,mouse_3.x,mouse_3.y,mouse_3.leftButton,mouse_3.midButton,mouse_3.rightButton,mouse_11.x,mouse_11.y,mouse_11.leftButton,mouse_11.midButton,mouse_11.rightButton,trials_2.thisRepN,trials_2.thisTrialN,trials_2.thisN,trials_2.thisIndex,trials_2.ran,Colour1,mouse_3.clicked_name,catchornah,catchsimilarity,catchnumber,catchtrialorder,catchRT,mouse_11.clicked_name
space,1.4466,space,12.0324,space,13.5896,space,2.9351,space,1.5256,space,5.9983,22,FF,24.33339382,-83.66667989,1,0,0,response3disk_5,4,12.5493,1.66668579,1.999989331,1,0,0,rectangle_8,1.66668579,1.999989331,1,0,0,1.66668579,1.999989331,1,0,0,0,0,0,5,1,5d690f9a8d6d9d00010815cc,60e562c887f6dfa8c47df104,2021-07-07_11h16.32.053,Simcolourproject_2stim_asymm_v5,2020.2.10,Win32,60,60e52e7cfedb1dae636df45f,,,,,,,,,,,,,,,,,,,,,,,,,,,,,,,,,,,,,,,,,,,,,,
,,,,,,,,,,,,25,PF,98.33335534,-28.66667825,1,0,0,response3disk_5,5,2.9524,-2.999981016,-8.666677654,1,0,0,rectangle_8,99.33335537,-41.66667864,1,0,0,1.66668579,-0.666677415,1,0,0,0,1,1,1,1,5d690f9a8d6d9d00010815cc,60e562c887f6dfa8c47df104,2021-07-07_11h16.32.053,Simcolourproject_2stim_asymm_v5,2020.2.10,Win32,60,60e52e7cfedb1dae636df45f,response3disk_7,5,2.9359,5,"[2,5]",rectangle_4,,,,,,,,,,,,,,,,,,,,,,,,,,,,,,,,,,,,,,,,
,,,,,,,,,,,,102,FF,39.66668692,102.3333053,1,0,0,response1disk_5,7,7.9167,-7.666607132,-2.333344132,1,0,0,rectangle_8,-7.666607132,-2.333344132,1,0,0,-7.666607132,-2.333344132,1,0,0,0,2,2,3,1,5d690f9a8d6d9d00010815cc,60e562c887f6dfa8c47df104,2021-07-07_11h16.32.053,Simcolourproject_2stim_asymm_v5,2020.2.10,Win32,60,60e52e7cfedb1dae636df45f,,,,,,,,,,,,,,,,,,,,,,,,,,,,,,,,,,,,,,,,,,,,,,
,,,,,,,,,,,,78,FF,-82.9999834,-24.00001144,1,0,0,response5disk_5,2,3.3173,9.333393375,7.333322823,1,0,0,rectangle_8,9.333393375,7.333322823,1,0,0,9.333393375,7.333322823,1,0,0,0,3,3,0,1,5d690f9a8d6d9d00010815cc,60e562c887f6dfa8c47df104,2021-07-07_11h16.32.053,Simcolourproject_2stim_asymm_v5,2020.2.10,Win32,60,60e52e7cfedb1dae636df45f,,,,,,,,,,,,,,,,,,,,,,,,,,,,,,,,,,,,,,,,,,,,,,
,,,,,,,,,,,,120,PF,-61.33331609,45.33330361,1,0,0,response7disk_5,1,1.9163,-8.333314508,-1.333344102,1,0,0,rectangle_8,69.00002113,-29.66667828,1,0,0,-1.999980986,-2.000010788,1,0,0,0,4,4,6,1,5d690f9a8d6d9d00010815cc,60e562c887f6dfa8c47df104,2021-07-07_11h16.32.053,Simcolourproject_2stim_asymm_v5,2020.2.10,Win32,60,60e52e7cfedb1dae636df45f,response3disk_7,5,1.8166,5,"[2,5]",rectangle_4,,,,,,,,,,,,,,,,,,,,,,,,,,,,,,,,,,,,,,,,
,,,,,,,,,,,,123,PF,-75.66660916,-89.33334672,1,0,0,response5disk_5,3,2.4997,-5.666607072,-2.666677475,1,0,0,rectangle_8,-5.666607072,-2.666677475,1,0,0,-5.666607072,-2.666677475,1,0,0,0,5,5,2,1,5d690f9a8d6d9d00010815cc,60e562c887f6dfa8c47df104,2021-07-07_11h16.32.053,Simcolourproject_2stim_asymm_v5,2020.2.10,Win32,60,60e52e7cfedb1dae636df45f,,,,,,,,,,,,,,,,,,,,,,,,,,,,,,,,,,,,,,,,,,,,,,
,,,,,,,,,,,,107,PF,32.66668671,89.99999195,1,0,0,response1disk_5,7,2.8493,-14.33331469,-6.666677594,1,0,0,rectangle_8,-14.33331469,-6.666677594,1,0,0,-14.33331469,-6.666677594,1,0,0,0,6,6,4,1,5d690f9a8d6d9d00010815cc,60e562c887f6dfa8c47df104,2021-07-07_11h16.32.053,Simcolourproject_2stim_asymm_v5,2020.2.10,Win32,60,60e52e7cfedb1dae636df45f,,,,,,,,,,,,,,,,,,,,,,,,,,,,,,,,,,,,,,,,,,,,,,
,,,,,,,,,,,,,FF,,,,,,,,2.5491,,,,,,,,,,,,,,,,,,,,,,5d690f9a8d6d9d00010815cc,60e562c887f6dfa8c47df104,2021-07-07_11h16.32.053,Simcolourproject_2stim_asymm_v5,2020.2.10,Win32,60,60e52e7cfedb1dae636df45f,,,,,,,space,6.387,3342,-73.99998313,-52.00001228,1,0,0,response5disk,,2,1.66668579,-4.666677535,1,0,0,rectangle,1.66668579,-4.666677535,1,0,0,1.66668579,-4.666677535,1,0,0,0,0,0,154,1,,,,,,,,
,,,,,,,,,,,,,FF,,,,,,,,1.8688,,,,,,,,,,,,,,,,,,,,,,5d690f9a8d6d9d00010815cc,60e562c887f6dfa8c47df104,2021-07-07_11h16.32.053,Simcolourproject_2stim_asymm_v5,2020.2.10,Win32,60,60e52e7cfedb1dae636df45f,,,,,,,,,444,-59.66660868,39.99999046,1,0,0,response7disk,,1,-1.666606953,-3.000010818,1,0,0,rectangle,-1.666606953,-3.000010818,1,0,0,-1.666606953,-3.000010818,1,0,0,0,1,1,121,1,,,,,,,,
,,,,,,,,,,,,,FF,,,,,,,,1.6673,,,,,,,,,,,,,,,,,,,,,,5d690f9a8d6d9d00010815cc,60e562c887f6dfa8c47df104,2021-07-07_11h16.32.053,Simcolourproject_2stim_asymm_v5,2020.2.10,Win32,60,60e52e7cfedb1dae636df45f,,,,,,,,,2463,89.66668841,32.33330322,1,0,0,response1disk,,6,-6.999981135,-2.000010788,1,0,0,rectangle,-97.33331716,52.66665751,1,0,0,0.66668576,3.99998939,1,0,0,0,2,2,14,1,,response7disk_3,TRUE,1,1,"[319,7,7,283,107,128,31,278,254,197,65,45,34,44,291,145,80,24,3,10]",1.9165,rectangle
,,,,,,,,,,,,,FF,,,,,,,,7.0858,,,,,,,,,,,,,,,,,,,,,,5d690f9a8d6d9d00010815cc,60e562c887f6dfa8c47df104,2021-07-07_11h16.32.053,Simcolourproject_2stim_asymm_v5,2020.2.10,Win32,60,60e52e7cfedb1dae636df45f,,,,,,,,,3147,-81.33331668,39.99999046,1,0,0,response7disk,,1,-8.333314508,-1.333344102,1,0,0,rectangle,-8.333314508,-1.333344102,1,0,0,-8.333314508,-1.333344102,1,0,0,0,3,3,127,1,,,,,,,,
,,,,,,,,,,,,,FF,,,,,,,,2.1337,,,,,,,,,,,,,,,,,,,,,,5d690f9a8d6d9d00010815cc,60e562c887f6dfa8c47df104,2021-07-07_11h16.32.053,Simcolourproject_2stim_asymm_v5,2020.2.10,Win32,60,60e52e7cfedb1dae636df45f,,,,,,,,,4359,-79.66660928,-65.33334601,1,0,0,response5disk,,2,-4.999981076,2.333322674,1,0,0,rectangle,-4.999981076,2.333322674,1,0,0,-4.999981076,2.333322674,1,0,0,0,4,4,47,1,,,,,,,,
,,,,,,,,,,,,,FF,,,,,,,,1.9498,,,,,,,,,,,,,,,,,,,,,,5d690f9a8d6d9d00010815cc,60e562c887f6dfa8c47df104,2021-07-07_11h16.32.053,Simcolourproject_2stim_asymm_v5,2020.2.10,Win32,60,60e52e7cfedb1dae636df45f,,,,,,,,,4236,-62.33331612,45.6666573,1,0,0,response7disk,,1,-4.999981076,-6.000010908,1,0,0,rectangle,-4.999981076,-6.000010908,1,0,0,-4.999981076,-6.000010908,1,0,0,0,5,5,2,1,,,,,,,,
,,,,,,,,,,,,,FF,,,,,,,,1.6827,,,,,,,,,,,,,,,,,,,,,,5d690f9a8d6d9d00010815cc,60e562c887f6dfa8c47df104,2021-07-07_11h16.32.053,Simcolourproject_2stim_asymm_v5,2020.2.10,Win32,60,60e52e7cfedb1dae636df45f,,,,,,,,,768,104.0000222,29.66665682,1,0,0,response1disk,,6,-8.666607161,-4.666677535,1,0,0,rectangle,48.0000205,88.66665858,1,0,0,-0.999980956,-6.000010908,1,0,0,0,6,6,134,1,,response1disk_3,TRUE,7,7,"[319,7,7,283,107,128,31,278,254,197,65,45,34,44,291,145,80,24,3,10]",1.5667,rectangle
,,,,,,,,,,,,,FF,,,,,,,,2,,,,,,,,,,,,,,,,,,,,,,5d690f9a8d6d9d00010815cc,60e562c887f6dfa8c47df104,2021-07-07_11h16.32.053,Simcolourproject_2stim_asymm_v5,2020.2.10,Win32,60,60e52e7cfedb1dae636df45f,,,,,,,,,314,92.33335516,44.33330358,1,0,0,response1disk,,6,-0.999980956,-9.000010997,1,0,0,rectangle,-0.999980956,-9.000010997,1,0,0,-0.999980956,-9.000010997,1,0,0,0,7,7,43,1,,,,,,,,
,,,,,,,,,,,,,FF,,,,,,,,1.4529,,,,,,,,,,,,,,,,,,,,,,5d690f9a8d6d9d00010815cc,60e562c887f6dfa8c47df104,2021-07-07_11h16.32.053,Simcolourproject_2stim_asymm_v5,2020.2.10,Win32,60,60e52e7cfedb1dae636df45f,,,,,,,,,1057,-79.33331662,34.66665697,1,0,0,response7disk,,1,-5.999981105,-3.333344162,1,0,0,rectangle,-5.999981105,-3.333344162,1,0,0,-5.999981105,-3.333344162,1,0,0,0,8,8,41,1,,,,,,,,
,,,,,,,,,,,,,FF,,,,,,,,3.2666,,,,,,,,,,,,,,,,,,,,,,5d690f9a8d6d9d00010815cc,60e562c887f6dfa8c47df104,2021-07-07_11h16.32.053,Simcolourproject_2stim_asymm_v5,2020.2.10,Win32,60,60e52e7cfedb1dae636df45f,,,,,,,,,3194,93.66668853,56.99999097,1,0,0,response1disk,,6,-1.999980986,-2.666677475,1,0,0,rectangle,-30.66660782,-80.6666798,1,0,0,0.333393107,0.333322614,1,0,0,0,9,9,9,1,,response5disk_3,TRUE,3,3,"[319,7,7,283,107,128,31,278,254,197,65,45,34,44,291,145,80,24,3,10]",2.7844,rectangle
,,,,,,,,,,,,,FF,,,,,,,,1.95,,,,,,,,,,,,,,,,,,,,,,5d690f9a8d6d9d00010815cc,60e562c887f6dfa8c47df104,2021-07-07_11h16.32.053,Simcolourproject_2stim_asymm_v5,2020.2.10,Win32,60,60e52e7cfedb1dae636df45f,,,,,,,,,1817,-41.99998218,58.99999103,1,0,0,response7disk,,0,2.333393166,-11.3333444,1,0,0,rectangle,2.333393166,-11.3333444,1,0,0,2.333393166,-11.3333444,1,0,0,0,10,10,28,1,,,,,,,,
,,,,,,,,,,,,,FF,,,,,,,,1.1995,,,,,,,,,,,,,,,,,,,,,,5d690f9a8d6d9d00010815cc,60e562c887f6dfa8c47df104,2021-07-07_11h16.32.053,Simcolourproject_2stim_asymm_v5,2020.2.10,Win32,60,60e52e7cfedb1dae636df45f,,,,,,,,,1298,-26.33331504,36.66665703,1,0,0,response7disk,,0,-12.33331463,-5.666677564,1,0,0,rectangle,-12.33331463,-5.666677564,1,0,0,-12.33331463,-5.666677564,1,0,0,0,11,11,112,1,,,,,,,,
,,,,,,,,,,,,,FF,,,,,,,,2.2829,,,,,,,,,,,,,,,,,,,,,,5d690f9a8d6d9d00010815cc,60e562c887f6dfa8c47df104,2021-07-07_11h16.32.053,Simcolourproject_2stim_asymm_v5,2020.2.10,Win32,60,60e52e7cfedb1dae636df45f,,,,,,,,,1579,87.66668835,42.33330352,1,0,0,response1disk,,6,-3.666607012,-0.666677415,1,0,0,rectangle,-3.666607012,-0.666677415,1,0,0,-3.666607012,-0.666677415,1,0,0,0,12,12,4,1,,,,,,,,
,,,,,,,,,,,,,FF,,,,,,,,1.6197,,,,,,,,,,,,,,,,,,,,,,5d690f9a8d6d9d00010815cc,60e562c887f6dfa8c47df104,2021-07-07_11h16.32.053,Simcolourproject_2stim_asymm_v5,2020.2.10,Win32,60,60e52e7cfedb1dae636df45f,,,,,,,,,2744,75.666688,-35.66667846,1,0,0,response3disk,,5,3.333393196,-5.333344221,1,0,0,rectangle,3.333393196,-5.333344221,1,0,0,3.333393196,-5.333344221,1,0,0,0,13,13,123,1,,,,,,,,
,,,,,,,,,,,,,FF,,,,,,,,1.9698,,,,,,,,,,,,,,,,,,,,,,5d690f9a8d6d9d00010815cc,60e562c887f6dfa8c47df104,2021-07-07_11h16.32.053,Simcolourproject_2stim_asymm_v5,2020.2.10,Win32,60,60e52e7cfedb1dae636df45f,,,,,,,,,1427,90.3333551,22.99998996,1,0,0,response1disk,,6,10.3333934,-1.000010759,1,0,0,rectangle,10.3333934,-1.000010759,1,0,0,10.3333934,-1.000010759,1,0,0,0,14,14,141,1,,,,,,,,
,,,,,,,,,,,,,FF,,,,,,,,3.1173,,,,,,,,,,,,,,,,,,,,,,5d690f9a8d6d9d00010815cc,60e562c887f6dfa8c47df104,2021-07-07_11h16.32.053,Simcolourproject_2stim_asymm_v5,2020.2.10,Win32,60,60e52e7cfedb1dae636df45f,,,,,,,,,3842,86.33335498,-26.66667819,1,0,0,response3disk,,5,-2.333314329,-7.333344281,1,0,0,rectangle,-2.333314329,-7.333344281,1,0,0,-2.333314329,-7.333344281,1,0,0,0,15,15,39,1,,,,,,,,
,,,,,,,,,,,,,FF,,,,,,,,3.3665,,,,,,,,,,,,,,,,,,,,,,5d690f9a8d6d9d00010815cc,60e562c887f6dfa8c47df104,2021-07-07_11h16.32.053,Simcolourproject_2stim_asymm_v5,2020.2.10,Win32,60,60e52e7cfedb1dae636df45f,,,,,,,,,3110,95.0000219,-39.00001189,1,0,0,response3disk,,5,19.66668633,0.333322614,1,0,0,rectangle,19.66668633,0.333322614,1,0,0,19.66668633,0.333322614,1,0,0,0,16,16,148,1,,,,,,,,
,,,,,,,,,,,,,FF,,,,,,,,3.0539,,,,,,,,,,,,,,,,,,,,,,5d690f9a8d6d9d00010815cc,60e562c887f6dfa8c47df104,2021-07-07_11h16.32.053,Simcolourproject_2stim_asymm_v5,2020.2.10,Win32,60,60e52e7cfedb1dae636df45f,,,,,,,,,2048,86.33335498,-59.33334583,1,0,0,response3disk,,5,8.666685998,-8.666677654,1,0,0,rectangle,8.666685998,-8.666677654,1,0,0,8.666685998,-8.666677654,1,0,0,0,17,17,36,1,,,,,,,,
,,,,,,,,,,,,,FF,,,,,,,,2.8332,,,,,,,,,,,,,,,,,,,,,,5d690f9a8d6d9d00010815cc,60e562c887f6dfa8c47df104,2021-07-07_11h16.32.053,Simcolourproject_2stim_asymm_v5,2020.2.10,Win32,60,60e52e7cfedb1dae636df45f,,,,,,,,,1999,101.6666888,84.66665846,1,0,0,response1disk,,6,-21.99998158,-11.00001106,1,0,0,rectangle,-21.99998158,-11.00001106,1,0,0,-21.99998158,-11.00001106,1,0,0,0,18,18,131,1,,,,,,,,
,,,,,,,,,,,,,FF,,,,,,,,1.3704,,,,,,,,,,,,,,,,,,,,,,5d690f9a8d6d9d00010815cc,60e562c887f6dfa8c47df104,2021-07-07_11h16.32.053,Simcolourproject_2stim_asymm_v5,2020.2.10,Win32,60,60e52e7cfedb1dae636df45f,,,,,,,,,1504,45.6666871,78.99999163,1,0,0,response1disk,,7,-4.999981076,-5.333344221,1,0,0,rectangle,-4.999981076,-5.333344221,1,0,0,-4.999981076,-5.333344221,1,0,0,0,19,19,115,1,,,,,,,,
,,,,,,,,,,,,,FF,,,,,,,,1.2365,,,,,,,,,,,,,,,,,,,,,,5d690f9a8d6d9d00010815cc,60e562c887f6dfa8c47df104,2021-07-07_11h16.32.053,Simcolourproject_2stim_asymm_v5,2020.2.10,Win32,60,60e52e7cfedb1dae636df45f,,,,,,,,,209,59.00002083,40.33330346,1,0,0,response1disk,,6,11.66668609,5.333322763,1,0,0,rectangle,11.66668609,5.333322763,1,0,0,11.66668609,5.333322763,1,0,0,0,20,20,62,1,,,,,,,,
,,,,,,,,,,,,,FF,,,,,,,,1.3329,,,,,,,,,,,,,,,,,,,,,,5d690f9a8d6d9d00010815cc,60e562c887f6dfa8c47df104,2021-07-07_11h16.32.053,Simcolourproject_2stim_asymm_v5,2020.2.10,Win32,60,60e52e7cfedb1dae636df45f,,,,,,,,,319,52.33335397,84.33330477,1,0,0,response1disk,,7,-0.33331427,13.66665635,1,0,0,rectangle,-0.33331427,13.66665635,1,0,0,-0.33331427,13.66665635,1,0,0,0,21,21,120,1,,,,,,,,
,,,,,,,,,,,,,FF,,,,,,,,1.4504,,,,,,,,,,,,,,,,,,,,,,5d690f9a8d6d9d00010815cc,60e562c887f6dfa8c47df104,2021-07-07_11h16.32.053,Simcolourproject_2stim_asymm_v5,2020.2.10,Win32,60,60e52e7cfedb1dae636df45f,,,,,,,,,168,-70.33331636,-23.00001141,1,0,0,response5disk,,2,-15.9999814,-4.666677535,1,0,0,rectangle,-15.9999814,-4.666677535,1,0,0,-15.9999814,-4.666677535,1,0,0,0,22,22,55,1,,,,,,,,
,,,,,,,,,,,,,FF,,,,,,,,1.9664,,,,,,,,,,,,,,,,,,,,,,5d690f9a8d6d9d00010815cc,60e562c887f6dfa8c47df104,2021-07-07_11h16.32.053,Simcolourproject_2stim_asymm_v5,2020.2.10,Win32,60,60e52e7cfedb1dae636df45f,,,,,,,,,545,31.66668668,-99.33334702,1,0,0,response3disk,,4,-9.333314538,-3.666677505,1,0,0,rectangle,108.3333556,41.33330349,1,0,0,-5.999981105,-5.000010878,1,0,0,0,23,23,142,1,,response1disk_3,TRUE,6,6,"[319,7,7,283,107,128,31,278,254,197,65,45,34,44,291,145,80,24,3,10]",2.0661,rectangle
,,,,,,,,,,,,,FF,,,,,,,,10.2163,,,,,,,,,,,,,,,,,,,,,,5d690f9a8d6d9d00010815cc,60e562c887f6dfa8c47df104,2021-07-07_11h16.32.053,Simcolourproject_2stim_asymm_v5,2020.2.10,Win32,60,60e52e7cfedb1dae636df45f,,,,,,,,,504,61.33335423,-23.6666781,1,0,0,response3disk,,5,16.00001955,0.333322614,1,0,0,rectangle,16.00001955,0.333322614,1,0,0,16.00001955,0.333322614,1,0,0,0,24,24,73,1,,,,,,,,
,,,,,,,,,,,,,FF,,,,,,,,1.1836,,,,,,,,,,,,,,,,,,,,,,5d690f9a8d6d9d00010815cc,60e562c887f6dfa8c47df104,2021-07-07_11h16.32.053,Simcolourproject_2stim_asymm_v5,2020.2.10,Win32,60,60e52e7cfedb1dae636df45f,,,,,,,,,2825,-47.66660832,33.99999028,1,0,0,response7disk,,1,-0.33331427,-3.000010818,1,0,0,rectangle,-0.33331427,-3.000010818,1,0,0,-0.33331427,-3.000010818,1,0,0,0,25,25,69,1,,,,,,,,
,,,,,,,,,,,,,FF,,,,,,,,0.9499,,,,,,,,,,,,,,,,,,,,,,5d690f9a8d6d9d00010815cc,60e562c887f6dfa8c47df104,2021-07-07_11h16.32.053,Simcolourproject_2stim_asymm_v5,2020.2.10,Win32,60,60e52e7cfedb1dae636df45f,,,,,,,,,2167,-33.99998194,87.99999189,1,0,0,response7disk,,0,-2.666606983,2.666656017,1,0,0,rectangle,-2.666606983,2.666656017,1,0,0,-2.666606983,2.666656017,1,0,0,0,26,26,65,1,,,,,,,,
,,,,,,,,,,,,,FF,,,,,,,,1.4341,,,,,,,,,,,,,,,,,,,,,,5d690f9a8d6d9d00010815cc,60e562c887f6dfa8c47df104,2021-07-07_11h16.32.053,Simcolourproject_2stim_asymm_v5,2020.2.10,Win32,60,60e52e7cfedb1dae636df45f,,,,,,,,,3978,-85.99998349,-64.66667932,1,0,0,response5disk,,2,-10.66660722,1.666655988,1,0,0,rectangle,-10.66660722,1.666655988,1,0,0,-10.66660722,1.666655988,1,0,0,0,27,27,22,1,,,,,,,,
,,,,,,,,,,,,,FF,,,,,,,,2.1524,,,,,,,,,,,,,,,,,,,,,,5d690f9a8d6d9d00010815cc,60e562c887f6dfa8c47df104,2021-07-07_11h16.32.053,Simcolourproject_2stim_asymm_v5,2020.2.10,Win32,60,60e52e7cfedb1dae636df45f,,,,,,,,,3361,92.00002182,29.66665682,1,0,0,response1disk,,6,-19.33331484,-1.333344102,1,0,0,rectangle,-19.33331484,-1.333344102,1,0,0,-19.33331484,-1.333344102,1,0,0,0,28,28,60,1,,,,,,,,
,,,,,,,,,,,,,FF,,,,,,,,1.3501,,,,,,,,,,,,,,,,,,,,,,5d690f9a8d6d9d00010815cc,60e562c887f6dfa8c47df104,2021-07-07_11h16.32.053,Simcolourproject_2stim_asymm_v5,2020.2.10,Win32,60,60e52e7cfedb1dae636df45f,,,,,,,,,3137,-53.33331585,-46.66667879,1,0,0,response5disk,,2,1.66668579,2.333322674,1,0,0,rectangle,1.66668579,2.333322674,1,0,0,1.66668579,2.333322674,1,0,0,0,29,29,66,1,,,,,,,,
,,,,,,,,,,,,,FF,,,,,,,,3.4665,,,,,,,,,,,,,,,,,,,,,,5d690f9a8d6d9d00010815cc,60e562c887f6dfa8c47df104,2021-07-07_11h16.32.053,Simcolourproject_2stim_asymm_v5,2020.2.10,Win32,60,60e52e7cfedb1dae636df45f,,,,,,,,,1012,92.33335516,54.66665757,1,0,0,response1disk,,6,3.000019163,-2.333344132,1,0,0,rectangle,19.33339367,-78.66667974,1,0,0,-1.999980986,9.666656226,1,0,0,0,30,30,6,1,,response3disk_3,TRUE,4,4,"[319,7,7,283,107,128,31,278,254,197,65,45,34,44,291,145,80,24,3,10]",2.3833,rectangle
,,,,,,,,,,,,,FF,,,,,,,,1.8,,,,,,,,,,,,,,,,,,,,,,5d690f9a8d6d9d00010815cc,60e562c887f6dfa8c47df104,2021-07-07_11h16.32.053,Simcolourproject_2stim_asymm_v5,2020.2.10,Win32,60,60e52e7cfedb1dae636df45f,,,,,,,,,27,85.66668829,-57.33334577,1,0,0,response3disk,,5,7.333393315,-11.00001106,1,0,0,rectangle,7.333393315,-11.00001106,1,0,0,7.333393315,-11.00001106,1,0,0,0,31,31,33,1,,,,,,,,
,,,,,,,,,,,,,FF,,,,,,,,2.8198,,,,,,,,,,,,,,,,,,,,,,5d690f9a8d6d9d00010815cc,60e562c887f6dfa8c47df104,2021-07-07_11h16.32.053,Simcolourproject_2stim_asymm_v5,2020.2.10,Win32,60,60e52e7cfedb1dae636df45f,,,,,,,,,1540,70.3333545,-94.33334687,1,0,0,response3disk,,4,13.00001946,8.666656196,1,0,0,rectangle,13.00001946,8.666656196,1,0,0,13.00001946,8.666656196,1,0,0,0,32,32,34,1,,,,,,,,
,,,,,,,,,,,,,FF,,,,,,,,1.9022,,,,,,,,,,,,,,,,,,,,,,5d690f9a8d6d9d00010815cc,60e562c887f6dfa8c47df104,2021-07-07_11h16.32.053,Simcolourproject_2stim_asymm_v5,2020.2.10,Win32,60,60e52e7cfedb1dae636df45f,,,,,,,,,1219,-64.99998286,-105.3333472,1,0,0,response5disk,,3,-8.333314508,-6.333344251,1,0,0,rectangle,-38.66660806,-56.33334574,1,0,0,-10.33331457,-6.333344251,1,0,0,0,33,33,5,1,,response5disk_3,TRUE,3,3,"[319,7,7,283,107,128,31,278,254,197,65,45,34,44,291,145,80,24,3,10]",1.5665,rectangle
,,,,,,,,,,,,,FF,,,,,,,,1.3669,,,,,,,,,,,,,,,,,,,,,,5d690f9a8d6d9d00010815cc,60e562c887f6dfa8c47df104,2021-07-07_11h16.32.053,Simcolourproject_2stim_asymm_v5,2020.2.10,Win32,60,60e52e7cfedb1dae636df45f,,,,,,,,,1565,47.00002047,-80.00001311,1,0,0,response3disk,,4,2.000019133,2.333322674,1,0,0,rectangle,2.000019133,2.333322674,1,0,0,2.000019133,2.333322674,1,0,0,0,34,34,146,1,,,,,,,,
,,,,,,,,,,,,,FF,,,,,,,,3.87,,,,,,,,,,,,,,,,,,,,,,5d690f9a8d6d9d00010815cc,60e562c887f6dfa8c47df104,2021-07-07_11h16.32.053,Simcolourproject_2stim_asymm_v5,2020.2.10,Win32,60,60e52e7cfedb1dae636df45f,,,,,,,,,1317,49.00002053,-76.33334634,1,0,0,response3disk,,4,-5.999981105,9.333322883,1,0,0,rectangle,-5.999981105,9.333322883,1,0,0,-5.999981105,9.333322883,1,0,0,0,35,35,129,1,,,,,,,,
,,,,,,,,,,,,,FF,,,,,,,,1.1002,,,,,,,,,,,,,,,,,,,,,,5d690f9a8d6d9d00010815cc,60e562c887f6dfa8c47df104,2021-07-07_11h16.32.053,Simcolourproject_2stim_asymm_v5,2020.2.10,Win32,60,60e52e7cfedb1dae636df45f,,,,,,,,,2233,-68.66660895,33.99999028,1,0,0,response7disk,,1,-12.99998131,0.999989301,1,0,0,rectangle,-12.99998131,0.999989301,1,0,0,-12.99998131,0.999989301,1,0,0,0,36,36,0,1,,,,,,,,
,,,,,,,,,,,,,FF,,,,,,,,1.9827,,,,,,,,,,,,,,,,,,,,,,5d690f9a8d6d9d00010815cc,60e562c887f6dfa8c47df104,2021-07-07_11h16.32.053,Simcolourproject_2stim_asymm_v5,2020.2.10,Win32,60,60e52e7cfedb1dae636df45f,,,,,,,,,1550,81.66668817,-56.33334574,1,0,0,response3disk,,5,11.33339343,-4.666677535,1,0,0,rectangle,11.33339343,-4.666677535,1,0,0,11.33339343,-4.666677535,1,0,0,0,37,37,59,1,,,,,,,,
,,,,,,,,,,,,,FF,,,,,,,,2.1333,,,,,,,,,,,,,,,,,,,,,,5d690f9a8d6d9d00010815cc,60e562c887f6dfa8c47df104,2021-07-07_11h16.32.053,Simcolourproject_2stim_asymm_v5,2020.2.10,Win32,60,60e52e7cfedb1dae636df45f,,,,,,,,,3242,86.66668832,23.99998999,1,0,0,response1disk,,6,18.6666863,2.666656017,1,0,0,rectangle,18.6666863,2.666656017,1,0,0,18.6666863,2.666656017,1,0,0,0,38,38,68,1,,,,,,,,
,,,,,,,,,,,,,FF,,,,,,,,1.2833,,,,,,,,,,,,,,,,,,,,,,5d690f9a8d6d9d00010815cc,60e562c887f6dfa8c47df104,2021-07-07_11h16.32.053,Simcolourproject_2stim_asymm_v5,2020.2.10,Win32,60,60e52e7cfedb1dae636df45f,,,,,,,,,357,56.66668743,-31.333345,1,0,0,response3disk,,5,8.333393345,2.999989361,1,0,0,rectangle,8.333393345,2.999989361,1,0,0,8.333393345,2.999989361,1,0,0,0,39,39,153,1,,,,,,,,
,,,,,,,,,,,,,FF,,,,,,,,1.3665,,,,,,,,,,,,,,,,,,,,,,5d690f9a8d6d9d00010815cc,60e562c887f6dfa8c47df104,2021-07-07_11h16.32.053,Simcolourproject_2stim_asymm_v5,2020.2.10,Win32,60,60e52e7cfedb1dae636df45f,,,,,,,,,2243,63.33335429,-51.33334559,1,0,0,response3disk,,5,3.666685849,0.999989301,1,0,0,rectangle,3.666685849,0.999989301,1,0,0,3.666685849,0.999989301,1,0,0,0,40,40,159,1,,,,,,,,
,,,,,,,,,,,,,FF,,,,,,,,1.2834,,,,,,,,,,,,,,,,,,,,,,5d690f9a8d6d9d00010815cc,60e562c887f6dfa8c47df104,2021-07-07_11h16.32.053,Simcolourproject_2stim_asymm_v5,2020.2.10,Win32,60,60e52e7cfedb1dae636df45f,,,,,,,,,1409,59.00002083,87.66665855,1,0,0,response1disk,,7,-8.333314508,4.99998942,1,0,0,rectangle,-8.333314508,4.99998942,1,0,0,-8.333314508,4.99998942,1,0,0,0,41,41,23,1,,,,,,,,
,,,,,,,,,,,,,FF,,,,,,,,1.3002,,,,,,,,,,,,,,,,,,,,,,5d690f9a8d6d9d00010815cc,60e562c887f6dfa8c47df104,2021-07-07_11h16.32.053,Simcolourproject_2stim_asymm_v5,2020.2.10,Win32,60,60e52e7cfedb1dae636df45f,,,,,,,,,3150,-62.9999828,26.66665673,1,0,0,response7disk,,1,-9.333314538,7.99998951,1,0,0,rectangle,-9.333314538,7.99998951,1,0,0,-9.333314538,7.99998951,1,0,0,0,42,42,113,1,,,,,,,,
,,,,,,,,,,,,,FF,,,,,,,,1.9167,,,,,,,,,,,,,,,,,,,,,,5d690f9a8d6d9d00010815cc,60e562c887f6dfa8c47df104,2021-07-07_11h16.32.053,Simcolourproject_2stim_asymm_v5,2020.2.10,Win32,60,60e52e7cfedb1dae636df45f,,,,,,,,,3638,79.66668811,-51.33334559,1,0,0,response3disk,,5,-0.999980956,8.333322853,1,0,0,rectangle,-83.99998343,43.99999058,1,0,0,7.333393315,3.666656047,1,0,0,0,43,43,71,1,,response7disk_3,TRUE,1,1,"[319,7,7,283,107,128,31,278,254,197,65,45,34,44,291,145,80,24,3,10]",1.7001,rectangle
,,,,,,,,,,,,,FF,,,,,,,,2.0832,,,,,,,,,,,,,,,,,,,,,,5d690f9a8d6d9d00010815cc,60e562c887f6dfa8c47df104,2021-07-07_11h16.32.053,Simcolourproject_2stim_asymm_v5,2020.2.10,Win32,60,60e52e7cfedb1dae636df45f,,,,,,,,,1229,-94.66660972,26.33330304,1,0,0,response7disk,,1,-13.33331466,6.99998948,1,0,0,rectangle,-29.33331513,-77.66667971,1,0,0,2.000019133,4.666656077,1,0,0,0,44,44,114,1,,response5disk_3,TRUE,3,3,"[319,7,7,283,107,128,31,278,254,197,65,45,34,44,291,145,80,24,3,10]",1.4167,rectangle
,,,,,,,,,,,,,FF,,,,,,,,1.6367,,,,,,,,,,,,,,,,,,,,,,5d690f9a8d6d9d00010815cc,60e562c887f6dfa8c47df104,2021-07-07_11h16.32.053,Simcolourproject_2stim_asymm_v5,2020.2.10,Win32,60,60e52e7cfedb1dae636df45f,,,,,,,,,1598,-83.33331674,-41.66667864,1,0,0,response5disk,,2,-3.333314359,1.666655988,1,0,0,rectangle,-3.333314359,1.666655988,1,0,0,-3.333314359,1.666655988,1,0,0,0,45,45,133,1,,,,,,,,
,,,,,,,,,,,,,FF,,,,,,,,2.0654,,,,,,,,,,,,,,,,,,,,,,5d690f9a8d6d9d00010815cc,60e562c887f6dfa8c47df104,2021-07-07_11h16.32.053,Simcolourproject_2stim_asymm_v5,2020.2.10,Win32,60,60e52e7cfedb1dae636df45f,,,,,,,,,2673,-84.33331677,-24.00001144,1,0,0,response5disk,,2,-28.66660776,-11.66667774,1,0,0,rectangle,-28.66660776,-11.66667774,1,0,0,-28.66660776,-11.66667774,1,0,0,0,46,46,24,1,,,,,,,,
,,,,,,,,,,,,,FF,,,,,,,,1.3833,,,,,,,,,,,,,,,,,,,,,,5d690f9a8d6d9d00010815cc,60e562c887f6dfa8c47df104,2021-07-07_11h16.32.053,Simcolourproject_2stim_asymm_v5,2020.2.10,Win32,60,60e52e7cfedb1dae636df45f,,,,,,,,,1026,61.66668758,29.33330313,1,0,0,response1disk,,6,9.666686028,13.66665635,1,0,0,rectangle,9.666686028,13.66665635,1,0,0,9.666686028,13.66665635,1,0,0,0,47,47,56,1,,,,,,,,
,,,,,,,,,,,,,FF,,,,,,,,6.7145,,,,,,,,,,,,,,,,,,,,,,5d690f9a8d6d9d00010815cc,60e562c887f6dfa8c47df104,2021-07-07_11h16.32.053,Simcolourproject_2stim_asymm_v5,2020.2.10,Win32,60,60e52e7cfedb1dae636df45f,,,,,,,,,1118,38.33339424,90.66665864,1,0,0,response1disk,,7,9.333393375,-3.000010818,1,0,0,rectangle,9.333393375,-3.000010818,1,0,0,9.333393375,-3.000010818,1,0,0,0,48,48,8,1,,,,,,,,
,,,,,,,,,,,,,FF,,,,,,,,3.7007,,,,,,,,,,,,,,,,,,,,,,5d690f9a8d6d9d00010815cc,60e562c887f6dfa8c47df104,2021-07-07_11h16.32.053,Simcolourproject_2stim_asymm_v5,2020.2.10,Win32,60,60e52e7cfedb1dae636df45f,,,,,,,,,4017,88.0000217,-42.00001198,1,0,0,response3disk,,5,-2.666606983,-5.333344221,1,0,0,rectangle,-2.666606983,-5.333344221,1,0,0,-2.666606983,-5.333344221,1,0,0,0,49,49,107,1,,,,,,,,
,,,,,,,,,,,,,FF,,,,,,,,2.2333,,,,,,,,,,,,,,,,,,,,,,5d690f9a8d6d9d00010815cc,60e562c887f6dfa8c47df104,2021-07-07_11h16.32.053,Simcolourproject_2stim_asymm_v5,2020.2.10,Win32,60,60e52e7cfedb1dae636df45f,,,,,,,,,3354,48.33335385,91.99999201,1,0,0,response1disk,,7,-10.33331457,3.666656047,1,0,0,rectangle,-10.33331457,3.666656047,1,0,0,-10.33331457,3.666656047,1,0,0,0,50,50,111,1,,,,,,,,
,,,,,,,,,,,,,FF,,,,,,,,1.2661,,,,,,,,,,,,,,,,,,,,,,5d690f9a8d6d9d00010815cc,60e562c887f6dfa8c47df104,2021-07-07_11h16.32.053,Simcolourproject_2stim_asymm_v5,2020.2.10,Win32,60,60e52e7cfedb1dae636df45f,,,,,,,,,2370,-30.99998185,-71.00001284,1,0,0,response5disk,,3,5.333393256,-2.666677475,1,0,0,rectangle,5.333393256,-2.666677475,1,0,0,5.333393256,-2.666677475,1,0,0,0,51,51,82,1,,,,,,,,
,,,,,,,,,,,,,FF,,,,,,,,1.1167,,,,,,,,,,,,,,,,,,,,,,5d690f9a8d6d9d00010815cc,60e562c887f6dfa8c47df104,2021-07-07_11h16.32.053,Simcolourproject_2stim_asymm_v5,2020.2.10,Win32,60,60e52e7cfedb1dae636df45f,,,,,,,,,836,64.33335432,36.66665703,1,0,0,response1disk,,6,2.000019133,-4.000010848,1,0,0,rectangle,2.000019133,-4.000010848,1,0,0,2.000019133,-4.000010848,1,0,0,0,52,52,97,1,,,,,,,,
,,,,,,,,,,,,,FF,,,,,,,,1.3166,,,,,,,,,,,,,,,,,,,,,,5d690f9a8d6d9d00010815cc,60e562c887f6dfa8c47df104,2021-07-07_11h16.32.053,Simcolourproject_2stim_asymm_v5,2020.2.10,Win32,60,60e52e7cfedb1dae636df45f,,,,,,,,,1902,93.33335519,-38.00001186,1,0,0,response3disk,,5,-14.99998137,4.99998942,1,0,0,rectangle,-14.99998137,4.99998942,1,0,0,-14.99998137,4.99998942,1,0,0,0,53,53,42,1,,,,,,,,
,,,,,,,,,,,,,FF,,,,,,,,1.8498,,,,,,,,,,,,,,,,,,,,,,5d690f9a8d6d9d00010815cc,60e562c887f6dfa8c47df104,2021-07-07_11h16.32.053,Simcolourproject_2stim_asymm_v5,2020.2.10,Win32,60,60e52e7cfedb1dae636df45f,,,,,,,,,424,43.00002035,31.66665688,1,0,0,response1disk,,6,8.000019312,1.333322644,1,0,0,rectangle,8.000019312,1.333322644,1,0,0,8.000019312,1.333322644,1,0,0,0,54,54,132,1,,,,,,,,
,,,,,,,,,,,,,FF,,,,,,,,1.5498,,,,,,,,,,,,,,,,,,,,,,5d690f9a8d6d9d00010815cc,60e562c887f6dfa8c47df104,2021-07-07_11h16.32.053,Simcolourproject_2stim_asymm_v5,2020.2.10,Win32,60,60e52e7cfedb1dae636df45f,,,,,,,,,30,51.00002059,93.66665873,1,0,0,response1disk,,7,-8.666607161,4.99998942,1,0,0,rectangle,-8.666607161,4.99998942,1,0,0,-8.666607161,4.99998942,1,0,0,0,55,55,92,1,,,,,,,,
,,,,,,,,,,,,,FF,,,,,,,,1.7001,,,,,,,,,,,,,,,,,,,,,,5d690f9a8d6d9d00010815cc,60e562c887f6dfa8c47df104,2021-07-07_11h16.32.053,Simcolourproject_2stim_asymm_v5,2020.2.10,Win32,60,60e52e7cfedb1dae636df45f,,,,,,,,,4130,69.00002113,-28.33334491,1,0,0,response3disk,,5,10.3333934,-7.000010937,1,0,0,rectangle,10.3333934,-7.000010937,1,0,0,10.3333934,-7.000010937,1,0,0,0,56,56,54,1,,,,,,,,
,,,,,,,,,,,,,FF,,,,,,,,1.4665,,,,,,,,,,,,,,,,,,,,,,5d690f9a8d6d9d00010815cc,60e562c887f6dfa8c47df104,2021-07-07_11h16.32.053,Simcolourproject_2stim_asymm_v5,2020.2.10,Win32,60,60e52e7cfedb1dae636df45f,,,,,,,,,4151,51.66668728,-78.00001305,1,0,0,response3disk,,4,0.66668576,0.999989301,1,0,0,rectangle,0.66668576,0.999989301,1,0,0,0.66668576,0.999989301,1,0,0,0,57,57,125,1,,,,,,,,
,,,,,,,,,,,,,FF,,,,,,,,1.1332,,,,,,,,,,,,,,,,,,,,,,5d690f9a8d6d9d00010815cc,60e562c887f6dfa8c47df104,2021-07-07_11h16.32.053,Simcolourproject_2stim_asymm_v5,2020.2.10,Win32,60,60e52e7cfedb1dae636df45f,,,,,,,,,2368,81.33335483,-31.66667834,1,0,0,response3disk,,5,-9.333314538,4.333322734,1,0,0,rectangle,-9.333314538,4.333322734,1,0,0,-9.333314538,4.333322734,1,0,0,0,58,58,63,1,,,,,,,,
,,,,,,,,,,,,,FF,,,,,,,,3.0164,,,,,,,,,,,,,,,,,,,,,,5d690f9a8d6d9d00010815cc,60e562c887f6dfa8c47df104,2021-07-07_11h16.32.053,Simcolourproject_2stim_asymm_v5,2020.2.10,Win32,60,60e52e7cfedb1dae636df45f,,,,,,,,,1543,86.33335498,-40.33334526,1,0,0,response3disk,,5,19.00001964,-1.000010759,1,0,0,rectangle,19.00001964,-1.000010759,1,0,0,19.00001964,-1.000010759,1,0,0,0,59,59,21,1,,,,,,,,
,,,,,,,,,,,,,FF,,,,,,,,1.1001,,,,,,,,,,,,,,,,,,,,,,5d690f9a8d6d9d00010815cc,60e562c887f6dfa8c47df104,2021-07-07_11h16.32.053,Simcolourproject_2stim_asymm_v5,2020.2.10,Win32,60,60e52e7cfedb1dae636df45f,,,,,,,,,2782,-71.99998307,33.99999028,1,0,0,response7disk,,1,3.333393196,5.333322763,1,0,0,rectangle,3.333393196,5.333322763,1,0,0,3.333393196,5.333322763,1,0,0,0,60,60,78,1,,,,,,,,
,,,,,,,,,,,,,FF,,,,,,,,3.6996,,,,,,,,,,,,,,,,,,,,,,5d690f9a8d6d9d00010815cc,60e562c887f6dfa8c47df104,2021-07-07_11h16.32.053,Simcolourproject_2stim_asymm_v5,2020.2.10,Win32,60,60e52e7cfedb1dae636df45f,,,,,,,,,4215,89.33335507,48.3333037,1,0,0,response1disk,,6,2.000019133,3.99998939,1,0,0,rectangle,2.000019133,3.99998939,1,0,0,2.000019133,3.99998939,1,0,0,0,61,61,138,1,,,,,,,,
,,,,,,,,,,,,,FF,,,,,,,,2.8003,,,,,,,,,,,,,,,,,,,,,,5d690f9a8d6d9d00010815cc,60e562c887f6dfa8c47df104,2021-07-07_11h16.32.053,Simcolourproject_2stim_asymm_v5,2020.2.10,Win32,60,60e52e7cfedb1dae636df45f,,,,,,,,,3143,-38.99998209,-88.66668004,1,0,0,response5disk,,3,1.000019103,-9.33334434,1,0,0,rectangle,1.000019103,-9.33334434,1,0,0,1.000019103,-9.33334434,1,0,0,0,62,62,136,1,,,,,,,,
,,,,,,,,,,,,,FF,,,,,,,,1.2332,,,,,,,,,,,,,,,,,,,,,,5d690f9a8d6d9d00010815cc,60e562c887f6dfa8c47df104,2021-07-07_11h16.32.053,Simcolourproject_2stim_asymm_v5,2020.2.10,Win32,60,60e52e7cfedb1dae636df45f,,,,,,,,,1355,38.33339424,91.66665867,1,0,0,response1disk,,7,1.66668579,-1.07288E-05,1,0,0,rectangle,1.66668579,-1.07288E-05,1,0,0,1.66668579,-1.07288E-05,1,0,0,0,63,63,151,1,,,,,,,,
,,,,,,,,,,,,,FF,,,,,,,,1.55,,,,,,,,,,,,,,,,,,,,,,5d690f9a8d6d9d00010815cc,60e562c887f6dfa8c47df104,2021-07-07_11h16.32.053,Simcolourproject_2stim_asymm_v5,2020.2.10,Win32,60,60e52e7cfedb1dae636df45f,,,,,,,,,4117,-53.6666085,-65.66667935,1,0,0,response5disk,,3,-0.33331427,1.999989331,1,0,0,rectangle,-103.66661,47.33330367,1,0,0,8.666685998,-5.666677564,1,0,0,0,64,64,12,1,,response7disk_3,TRUE,1,1,"[319,7,7,283,107,128,31,278,254,197,65,45,34,44,291,145,80,24,3,10]",1.6348,rectangle
,,,,,,,,,,,,,FF,,,,,,,,2.033,,,,,,,,,,,,,,,,,,,,,,5d690f9a8d6d9d00010815cc,60e562c887f6dfa8c47df104,2021-07-07_11h16.32.053,Simcolourproject_2stim_asymm_v5,2020.2.10,Win32,60,60e52e7cfedb1dae636df45f,,,,,,,,,2799,-50.33331576,-87.66668001,1,0,0,response5disk,,3,5.000019222,-1.333344102,1,0,0,rectangle,5.000019222,-1.333344102,1,0,0,5.000019222,-1.333344102,1,0,0,0,65,65,135,1,,,,,,,,
,,,,,,,,,,,,,FF,,,,,,,,1.5503,,,,,,,,,,,,,,,,,,,,,,5d690f9a8d6d9d00010815cc,60e562c887f6dfa8c47df104,2021-07-07_11h16.32.053,Simcolourproject_2stim_asymm_v5,2020.2.10,Win32,60,60e52e7cfedb1dae636df45f,,,,,,,,,3139,-102.66661,37.9999904,1,0,0,response7disk,,1,-6.999981135,1.333322644,1,0,0,rectangle,-6.999981135,1.333322644,1,0,0,-6.999981135,1.333322644,1,0,0,0,66,66,83,1,,,,,,,,
,,,,,,,,,,,,,FF,,,,,,,,1.5663,,,,,,,,,,,,,,,,,,,,,,5d690f9a8d6d9d00010815cc,60e562c887f6dfa8c47df104,2021-07-07_11h16.32.053,Simcolourproject_2stim_asymm_v5,2020.2.10,Win32,60,60e52e7cfedb1dae636df45f,,,,,,,,,149,90.00002176,-34.66667843,1,0,0,response3disk,,5,-13.66660731,2.999989361,1,0,0,rectangle,-13.66660731,2.999989361,1,0,0,-13.66660731,2.999989361,1,0,0,0,67,67,45,1,,,,,,,,
,,,,,,,,,,,,,FF,,,,,,,,1.7663,,,,,,,,,,,,,,,,,,,,,,5d690f9a8d6d9d00010815cc,60e562c887f6dfa8c47df104,2021-07-07_11h16.32.053,Simcolourproject_2stim_asymm_v5,2020.2.10,Win32,60,60e52e7cfedb1dae636df45f,,,,,,,,,1389,99.66668871,-20.00001132,1,0,0,response3disk,,5,10.66668606,6.333322793,1,0,0,rectangle,10.66668606,6.333322793,1,0,0,10.66668606,6.333322793,1,0,0,0,68,68,91,1,,,,,,,,
,,,,,,,,,,,,,FF,,,,,,,,1.0996,,,,,,,,,,,,,,,,,,,,,,5d690f9a8d6d9d00010815cc,60e562c887f6dfa8c47df104,2021-07-07_11h16.32.053,Simcolourproject_2stim_asymm_v5,2020.2.10,Win32,60,60e52e7cfedb1dae636df45f,,,,,,,,,945,26.66668653,59.33330403,1,0,0,response1disk,,7,-3.333314359,9.333322883,1,0,0,rectangle,-3.333314359,9.333322883,1,0,0,-3.333314359,9.333322883,1,0,0,0,69,69,109,1,,,,,,,,
,,,,,,,,,,,,,FF,,,,,,,,1.966,,,,,,,,,,,,,,,,,,,,,,5d690f9a8d6d9d00010815cc,60e562c887f6dfa8c47df104,2021-07-07_11h16.32.053,Simcolourproject_2stim_asymm_v5,2020.2.10,Win32,60,60e52e7cfedb1dae636df45f,,,,,,,,,1156,53.333354,-28.00001156,1,0,0,response3disk,,5,-7.666607132,7.333322823,1,0,0,rectangle,-7.666607132,7.333322823,1,0,0,-7.666607132,7.333322823,1,0,0,0,70,70,96,1,,,,,,,,
,,,,,,,,,,,,,FF,,,,,,,,0.9662,,,,,,,,,,,,,,,,,,,,,,5d690f9a8d6d9d00010815cc,60e562c887f6dfa8c47df104,2021-07-07_11h16.32.053,Simcolourproject_2stim_asymm_v5,2020.2.10,Win32,60,60e52e7cfedb1dae636df45f,,,,,,,,,3090,-66.99998292,-47.66667882,1,0,0,response5disk,,2,4.000019193,1.666655988,1,0,0,rectangle,4.000019193,1.666655988,1,0,0,4.000019193,1.666655988,1,0,0,0,71,71,90,1,,,,,,,,
,,,,,,,,,,,,,FF,,,,,,,,1.1872,,,,,,,,,,,,,,,,,,,,,,5d690f9a8d6d9d00010815cc,60e562c887f6dfa8c47df104,2021-07-07_11h16.32.053,Simcolourproject_2stim_asymm_v5,2020.2.10,Win32,60,60e52e7cfedb1dae636df45f,,,,,,,,,1698,-56.66660859,33.33330325,1,0,0,response7disk,,1,5.666685909,9.666656226,1,0,0,rectangle,5.666685909,9.666656226,1,0,0,5.666685909,9.666656226,1,0,0,0,72,72,77,1,,,,,,,,
,,,,,,,,,,,,,FF,,,,,,,,1.7802,,,,,,,,,,,,,,,,,,,,,,5d690f9a8d6d9d00010815cc,60e562c887f6dfa8c47df104,2021-07-07_11h16.32.053,Simcolourproject_2stim_asymm_v5,2020.2.10,Win32,60,60e52e7cfedb1dae636df45f,,,,,,,,,199,106.3333556,-38.00001186,1,0,0,response3disk,,5,0.66668576,-4.666677535,1,0,0,rectangle,0.66668576,-4.666677535,1,0,0,0.66668576,-4.666677535,1,0,0,0,73,73,46,1,,,,,,,,
,,,,,,,,,,,,,FF,,,,,,,,1.7838,,,,,,,,,,,,,,,,,,,,,,5d690f9a8d6d9d00010815cc,60e562c887f6dfa8c47df104,2021-07-07_11h16.32.053,Simcolourproject_2stim_asymm_v5,2020.2.10,Win32,60,60e52e7cfedb1dae636df45f,,,,,,,,,3865,88.0000217,39.99999046,1,0,0,response1disk,,6,1.000019103,12.33332297,1,0,0,rectangle,1.000019103,12.33332297,1,0,0,1.000019103,12.33332297,1,0,0,0,74,74,95,1,,,,,,,,
,,,,,,,,,,,,,FF,,,,,,,,1.0524,,,,,,,,,,,,,,,,,,,,,,5d690f9a8d6d9d00010815cc,60e562c887f6dfa8c47df104,2021-07-07_11h16.32.053,Simcolourproject_2stim_asymm_v5,2020.2.10,Win32,60,60e52e7cfedb1dae636df45f,,,,,,,,,478,29.33339397,68.99999133,1,0,0,response1disk,,7,2.333393166,5.99998945,1,0,0,rectangle,2.333393166,5.99998945,1,0,0,2.333393166,5.99998945,1,0,0,0,75,75,30,1,,,,,,,,
,,,,,,,,,,,,,FF,,,,,,,,0.9698,,,,,,,,,,,,,,,,,,,,,,5d690f9a8d6d9d00010815cc,60e562c887f6dfa8c47df104,2021-07-07_11h16.32.053,Simcolourproject_2stim_asymm_v5,2020.2.10,Win32,60,60e52e7cfedb1dae636df45f,,,,,,,,,2328,48.0000205,81.33330468,1,0,0,response1disk,,7,-0.666606923,0.999989301,1,0,0,rectangle,-0.666606923,0.999989301,1,0,0,-0.666606923,0.999989301,1,0,0,0,76,76,157,1,,,,,,,,
,,,,,,,,,,,,,FF,,,,,,,,1.6998,,,,,,,,,,,,,,,,,,,,,,5d690f9a8d6d9d00010815cc,60e562c887f6dfa8c47df104,2021-07-07_11h16.32.053,Simcolourproject_2stim_asymm_v5,2020.2.10,Win32,60,60e52e7cfedb1dae636df45f,,,,,,,,,2770,-59.33331603,-76.66667968,1,0,0,response5disk,,3,8.000019312,8.999989539,1,0,0,rectangle,8.000019312,8.999989539,1,0,0,8.000019312,8.999989539,1,0,0,0,77,77,70,1,,,,,,,,
,,,,,,,,,,,,,FF,,,,,,,,0.9329,,,,,,,,,,,,,,,,,,,,,,5d690f9a8d6d9d00010815cc,60e562c887f6dfa8c47df104,2021-07-07_11h16.32.053,Simcolourproject_2stim_asymm_v5,2020.2.10,Win32,60,60e52e7cfedb1dae636df45f,,,,,,,,,3157,-57.66660862,24.66665667,1,0,0,response7disk,,1,-1.666606953,5.99998945,1,0,0,rectangle,-1.666606953,5.99998945,1,0,0,-1.666606953,5.99998945,1,0,0,0,78,78,52,1,,,,,,,,
,,,,,,,,,,,,,FF,,,,,,,,1.9327,,,,,,,,,,,,,,,,,,,,,,5d690f9a8d6d9d00010815cc,60e562c887f6dfa8c47df104,2021-07-07_11h16.32.053,Simcolourproject_2stim_asymm_v5,2020.2.10,Win32,60,60e52e7cfedb1dae636df45f,,,,,,,,,3210,-73.6666091,56.33330394,1,0,0,response7disk,,1,4.333393226,-1.000010759,1,0,0,rectangle,53.66668734,36.99999037,1,0,0,-17.66660743,-11.00001106,1,0,0,0,79,79,128,1,,response1disk_3,TRUE,6,6,"[319,7,7,283,107,128,31,278,254,197,65,45,34,44,291,145,80,24,3,10]",1.5833,rectangle
,,,,,,,,,,,,,FF,,,,,,,,1.9665,,,,,,,,,,,,,,,,,,,,,,5d690f9a8d6d9d00010815cc,60e562c887f6dfa8c47df104,2021-07-07_11h16.32.053,Simcolourproject_2stim_asymm_v5,2020.2.10,Win32,60,60e52e7cfedb1dae636df45f,,,,,,,,,1081,95.33335525,34.66665697,1,0,0,response1disk,,6,-1.3333143,0.666655958,1,0,0,rectangle,-1.3333143,0.666655958,1,0,0,-1.3333143,0.666655958,1,0,0,0,80,80,11,1,,,,,,,,
,,,,,,,,,,,,,FF,,,,,,,,1.4333,,,,,,,,,,,,,,,,,,,,,,5d690f9a8d6d9d00010815cc,60e562c887f6dfa8c47df104,2021-07-07_11h16.32.053,Simcolourproject_2stim_asymm_v5,2020.2.10,Win32,60,60e52e7cfedb1dae636df45f,,,,,,,,,2606,-63.99998283,34.33330328,1,0,0,response7disk,,1,14.66668618,-11.3333444,1,0,0,rectangle,14.66668618,-11.3333444,1,0,0,14.66668618,-11.3333444,1,0,0,0,81,81,117,1,,,,,,,,
,,,,,,,,,,,,,FF,,,,,,,,2.6333,,,,,,,,,,,,,,,,,,,,,,5d690f9a8d6d9d00010815cc,60e562c887f6dfa8c47df104,2021-07-07_11h16.32.053,Simcolourproject_2stim_asymm_v5,2020.2.10,Win32,60,60e52e7cfedb1dae636df45f,,,,,,,,,646,95.33335525,-51.33334559,1,0,0,response3disk,,5,16.66668624,-3.000010818,1,0,0,rectangle,16.66668624,-3.000010818,1,0,0,16.66668624,-3.000010818,1,0,0,0,82,82,84,1,,,,,,,,
,,,,,,,,,,,,,FF,,,,,,,,1.0495,,,,,,,,,,,,,,,,,,,,,,5d690f9a8d6d9d00010815cc,60e562c887f6dfa8c47df104,2021-07-07_11h16.32.053,Simcolourproject_2stim_asymm_v5,2020.2.10,Win32,60,60e52e7cfedb1dae636df45f,,,,,,,,,2344,29.33339397,75.99999154,1,0,0,response1disk,,7,-5.666607072,12.66665632,1,0,0,rectangle,-5.666607072,12.66665632,1,0,0,-5.666607072,12.66665632,1,0,0,0,83,83,105,1,,,,,,,,
,,,,,,,,,,,,,FF,,,,,,,,1.186,,,,,,,,,,,,,,,,,,,,,,5d690f9a8d6d9d00010815cc,60e562c887f6dfa8c47df104,2021-07-07_11h16.32.053,Simcolourproject_2stim_asymm_v5,2020.2.10,Win32,60,60e52e7cfedb1dae636df45f,,,,,,,,,1624,50.33335391,90.33330495,1,0,0,response1disk,,7,2.333393166,6.333322793,1,0,0,rectangle,2.333393166,6.333322793,1,0,0,2.333393166,6.333322793,1,0,0,0,84,84,122,1,,,,,,,,
,,,,,,,,,,,,,FF,,,,,,,,1.2163,,,,,,,,,,,,,,,,,,,,,,5d690f9a8d6d9d00010815cc,60e562c887f6dfa8c47df104,2021-07-07_11h16.32.053,Simcolourproject_2stim_asymm_v5,2020.2.10,Win32,60,60e52e7cfedb1dae636df45f,,,,,,,,,403,64.00002098,38.3333034,1,0,0,response1disk,,6,0.66668576,-1.666677445,1,0,0,rectangle,0.66668576,-1.666677445,1,0,0,0.66668576,-1.666677445,1,0,0,0,85,85,44,1,,,,,,,,
,,,,,,,,,,,,,FF,,,,,,,,1.2335,,,,,,,,,,,,,,,,,,,,,,5d690f9a8d6d9d00010815cc,60e562c887f6dfa8c47df104,2021-07-07_11h16.32.053,Simcolourproject_2stim_asymm_v5,2020.2.10,Win32,60,60e52e7cfedb1dae636df45f,,,,,,,,,1972,75.33335465,-30.66667831,1,0,0,response3disk,,5,11.66668609,-12.66667777,1,0,0,rectangle,11.66668609,-12.66667777,1,0,0,11.66668609,-12.66667777,1,0,0,0,86,86,76,1,,,,,,,,
,,,,,,,,,,,,,FF,,,,,,,,0.9662,,,,,,,,,,,,,,,,,,,,,,5d690f9a8d6d9d00010815cc,60e562c887f6dfa8c47df104,2021-07-07_11h16.32.053,Simcolourproject_2stim_asymm_v5,2020.2.10,Win32,60,60e52e7cfedb1dae636df45f,,,,,,,,,948,25.00001982,69.33330433,1,0,0,response1disk,,7,-16.99998143,-6.000010908,1,0,0,rectangle,-16.99998143,-6.000010908,1,0,0,-16.99998143,-6.000010908,1,0,0,0,87,87,81,1,,,,,,,,
,,,,,,,,,,,,,FF,,,,,,,,0.95,,,,,,,,,,,,,,,,,,,,,,5d690f9a8d6d9d00010815cc,60e562c887f6dfa8c47df104,2021-07-07_11h16.32.053,Simcolourproject_2stim_asymm_v5,2020.2.10,Win32,60,60e52e7cfedb1dae636df45f,,,,,,,,,1028,32.66668671,61.66665778,1,0,0,response1disk,,7,-10.99998125,-5.000010878,1,0,0,rectangle,-10.99998125,-5.000010878,1,0,0,-10.99998125,-5.000010878,1,0,0,0,88,88,152,1,,,,,,,,
,,,,,,,,,,,,,FF,,,,,,,,1.3332,,,,,,,,,,,,,,,,,,,,,,5d690f9a8d6d9d00010815cc,60e562c887f6dfa8c47df104,2021-07-07_11h16.32.053,Simcolourproject_2stim_asymm_v5,2020.2.10,Win32,60,60e52e7cfedb1dae636df45f,,,,,,,,,4319,61.33335423,32.66665691,1,0,0,response1disk,,6,2.66668582,-0.333344072,1,0,0,rectangle,2.66668582,-0.333344072,1,0,0,2.66668582,-0.333344072,1,0,0,0,89,89,118,1,,,,,,,,
,,,,,,,,,,,,,FF,,,,,,,,0.9498,,,,,,,,,,,,,,,,,,,,,,5d690f9a8d6d9d00010815cc,60e562c887f6dfa8c47df104,2021-07-07_11h16.32.053,Simcolourproject_2stim_asymm_v5,2020.2.10,Win32,60,60e52e7cfedb1dae636df45f,,,,,,,,,3416,27.00001988,69.33330433,1,0,0,response1disk,,7,-9.666607191,3.99998939,1,0,0,rectangle,-9.666607191,3.99998939,1,0,0,-9.666607191,3.99998939,1,0,0,0,90,90,10,1,,,,,,,,
,,,,,,,,,,,,,FF,,,,,,,,1.6505,,,,,,,,,,,,,,,,,,,,,,5d690f9a8d6d9d00010815cc,60e562c887f6dfa8c47df104,2021-07-07_11h16.32.053,Simcolourproject_2stim_asymm_v5,2020.2.10,Win32,60,60e52e7cfedb1dae636df45f,,,,,,,,,3145,47.66668716,75.3333045,1,0,0,response1disk,,7,-12.66660728,-7.000010937,1,0,0,rectangle,-12.66660728,-7.000010937,1,0,0,-12.66660728,-7.000010937,1,0,0,0,91,91,16,1,,,,,,,,
,,,,,,,,,,,,,FF,,,,,,,,1.6666,,,,,,,,,,,,,,,,,,,,,,5d690f9a8d6d9d00010815cc,60e562c887f6dfa8c47df104,2021-07-07_11h16.32.053,Simcolourproject_2stim_asymm_v5,2020.2.10,Win32,60,60e52e7cfedb1dae636df45f,,,,,,,,,4363,-49.66660838,76.66665822,1,0,0,response7disk,,0,-10.99998125,5.99998945,1,0,0,rectangle,-10.99998125,5.99998945,1,0,0,-10.99998125,5.99998945,1,0,0,0,92,92,18,1,,,,,,,,
,,,,,,,,,,,,,FF,,,,,,,,2.0339,,,,,,,,,,,,,,,,,,,,,,5d690f9a8d6d9d00010815cc,60e562c887f6dfa8c47df104,2021-07-07_11h16.32.053,Simcolourproject_2stim_asymm_v5,2020.2.10,Win32,60,60e52e7cfedb1dae636df45f,,,,,,,,,877,100.0000221,35.33330331,1,0,0,response1disk,,6,-13.99998134,-3.000010818,1,0,0,rectangle,-13.99998134,-3.000010818,1,0,0,-13.99998134,-3.000010818,1,0,0,0,93,93,13,1,,,,,,,,
,,,,,,,,,,,,,FF,,,,,,,,1.0835,,,,,,,,,,,,,,,,,,,,,,5d690f9a8d6d9d00010815cc,60e562c887f6dfa8c47df104,2021-07-07_11h16.32.053,Simcolourproject_2stim_asymm_v5,2020.2.10,Win32,60,60e52e7cfedb1dae636df45f,,,,,,,,,2922,39.33339427,86.66665852,1,0,0,response1disk,,7,1.000019103,-2.333344132,1,0,0,rectangle,1.000019103,-2.333344132,1,0,0,1.000019103,-2.333344132,1,0,0,0,94,94,49,1,,,,,,,,
,,,,,,,,,,,,,FF,,,,,,,,0.9667,,,,,,,,,,,,,,,,,,,,,,5d690f9a8d6d9d00010815cc,60e562c887f6dfa8c47df104,2021-07-07_11h16.32.053,Simcolourproject_2stim_asymm_v5,2020.2.10,Win32,60,60e52e7cfedb1dae636df45f,,,,,,,,,3857,37.33339421,70.99999139,1,0,0,response1disk,,7,-6.999981135,6.666656137,1,0,0,rectangle,-6.999981135,6.666656137,1,0,0,-6.999981135,6.666656137,1,0,0,0,95,95,53,1,,,,,,,,
,,,,,,,,,,,,,FF,,,,,,,,1.1997,,,,,,,,,,,,,,,,,,,,,,5d690f9a8d6d9d00010815cc,60e562c887f6dfa8c47df104,2021-07-07_11h16.32.053,Simcolourproject_2stim_asymm_v5,2020.2.10,Win32,60,60e52e7cfedb1dae636df45f,,,,,,,,,3834,47.33335382,42.33330352,1,0,0,response1disk,,6,1.333393137,6.99998948,1,0,0,rectangle,1.333393137,6.99998948,1,0,0,1.333393137,6.99998948,1,0,0,0,96,96,102,1,,,,,,,,
,,,,,,,,,,,,,FF,,,,,,,,1.3,,,,,,,,,,,,,,,,,,,,,,5d690f9a8d6d9d00010815cc,60e562c887f6dfa8c47df104,2021-07-07_11h16.32.053,Simcolourproject_2stim_asymm_v5,2020.2.10,Win32,60,60e52e7cfedb1dae636df45f,,,,,,,,,3078,33.00002006,57.33330397,1,0,0,response1disk,,7,-3.666607012,4.333322734,1,0,0,rectangle,-3.666607012,4.333322734,1,0,0,-3.666607012,4.333322734,1,0,0,0,97,97,40,1,,,,,,,,
,,,,,,,,,,,,,FF,,,,,,,,1.4665,,,,,,,,,,,,,,,,,,,,,,5d690f9a8d6d9d00010815cc,60e562c887f6dfa8c47df104,2021-07-07_11h16.32.053,Simcolourproject_2stim_asymm_v5,2020.2.10,Win32,60,60e52e7cfedb1dae636df45f,,,,,,,,,2231,-80.33331665,-65.00001267,1,0,0,response5disk,,2,-2.333314329,-9.000010997,1,0,0,rectangle,-2.333314329,-9.000010997,1,0,0,-2.333314329,-9.000010997,1,0,0,0,98,98,106,1,,,,,,,,
,,,,,,,,,,,,,FF,,,,,,,,1.3001,,,,,,,,,,,,,,,,,,,,,,5d690f9a8d6d9d00010815cc,60e562c887f6dfa8c47df104,2021-07-07_11h16.32.053,Simcolourproject_2stim_asymm_v5,2020.2.10,Win32,60,60e52e7cfedb1dae636df45f,,,,,,,,,1669,52.00002062,87.66665855,1,0,0,response1disk,,7,-16.33331475,-11.66667774,1,0,0,rectangle,-16.33331475,-11.66667774,1,0,0,-16.33331475,-11.66667774,1,0,0,0,99,99,94,1,,,,,,,,
,,,,,,,,,,,,,FF,,,,,,,,1.1666,,,,,,,,,,,,,,,,,,,,,,5d690f9a8d6d9d00010815cc,60e562c887f6dfa8c47df104,2021-07-07_11h16.32.053,Simcolourproject_2stim_asymm_v5,2020.2.10,Win32,60,60e52e7cfedb1dae636df45f,,,,,,,,,3740,53.333354,104.3333257,1,0,0,response1disk,,7,-4.333314389,5.333322763,1,0,0,rectangle,-4.333314389,5.333322763,1,0,0,-4.333314389,5.333322763,1,0,0,0,100,100,50,1,,,,,,,,
,,,,,,,,,,,,,FF,,,,,,,,1.0855,,,,,,,,,,,,,,,,,,,,,,5d690f9a8d6d9d00010815cc,60e562c887f6dfa8c47df104,2021-07-07_11h16.32.053,Simcolourproject_2stim_asymm_v5,2020.2.10,Win32,60,60e52e7cfedb1dae636df45f,,,,,,,,,2479,60.3333542,86.66665852,1,0,0,response1disk,,7,0.333393107,-1.666677445,1,0,0,rectangle,0.333393107,-1.666677445,1,0,0,0.333393107,-1.666677445,1,0,0,0,101,101,74,1,,,,,,,,
,,,,,,,,,,,,,FF,,,,,,,,1.0999,,,,,,,,,,,,,,,,,,,,,,5d690f9a8d6d9d00010815cc,60e562c887f6dfa8c47df104,2021-07-07_11h16.32.053,Simcolourproject_2stim_asymm_v5,2020.2.10,Win32,60,60e52e7cfedb1dae636df45f,,,,,,,,,2918,28.33339394,60.66665775,1,0,0,response1disk,,7,2.000019133,3.99998939,1,0,0,rectangle,2.000019133,3.99998939,1,0,0,2.000019133,3.99998939,1,0,0,0,102,102,1,1,,,,,,,,
,,,,,,,,,,,,,FF,,,,,,,,1.0642,,,,,,,,,,,,,,,,,,,,,,5d690f9a8d6d9d00010815cc,60e562c887f6dfa8c47df104,2021-07-07_11h16.32.053,Simcolourproject_2stim_asymm_v5,2020.2.10,Win32,60,60e52e7cfedb1dae636df45f,,,,,,,,,3648,53.66668734,49.66665742,1,0,0,response1disk,,6,4.333393226,9.999989569,1,0,0,rectangle,4.333393226,9.999989569,1,0,0,4.333393226,9.999989569,1,0,0,0,103,103,79,1,,,,,,,,
,,,,,,,,,,,,,FF,,,,,,,,1.6836,,,,,,,,,,,,,,,,,,,,,,5d690f9a8d6d9d00010815cc,60e562c887f6dfa8c47df104,2021-07-07_11h16.32.053,Simcolourproject_2stim_asymm_v5,2020.2.10,Win32,60,60e52e7cfedb1dae636df45f,,,,,,,,,3382,-53.33331585,63.33330415,1,0,0,response7disk,,0,4.000019193,1.999989331,1,0,0,rectangle,4.000019193,1.999989331,1,0,0,4.000019193,1.999989331,1,0,0,0,104,104,100,1,,,,,,,,
,,,,,,,,,,,,,FF,,,,,,,,1.2828,,,,,,,,,,,,,,,,,,,,,,5d690f9a8d6d9d00010815cc,60e562c887f6dfa8c47df104,2021-07-07_11h16.32.053,Simcolourproject_2stim_asymm_v5,2020.2.10,Win32,60,60e52e7cfedb1dae636df45f,,,,,,,,,262,-48.3333157,54.99999091,1,0,0,response7disk,,0,-9.333314538,-1.07288E-05,1,0,0,rectangle,-9.333314538,-1.07288E-05,1,0,0,-9.333314538,-1.07288E-05,1,0,0,0,105,105,87,1,,,,,,,,
,,,,,,,,,,,,,FF,,,,,,,,1.0499,,,,,,,,,,,,,,,,,,,,,,5d690f9a8d6d9d00010815cc,60e562c887f6dfa8c47df104,2021-07-07_11h16.32.053,Simcolourproject_2stim_asymm_v5,2020.2.10,Win32,60,60e52e7cfedb1dae636df45f,,,,,,,,,3122,84.66668826,26.33330304,1,0,0,response1disk,,6,-15.66660737,-10.00001103,1,0,0,rectangle,-23.99998164,105.3333257,1,0,0,1.66668579,7.333322823,1,0,0,0,106,106,150,1,,response7disk_3,TRUE,0,0,"[319,7,7,283,107,128,31,278,254,197,65,45,34,44,291,145,80,24,3,10]",1.5498,rectangle
,,,,,,,,,,,,,FF,,,,,,,,1.0662,,,,,,,,,,,,,,,,,,,,,,5d690f9a8d6d9d00010815cc,60e562c887f6dfa8c47df104,2021-07-07_11h16.32.053,Simcolourproject_2stim_asymm_v5,2020.2.10,Win32,60,60e52e7cfedb1dae636df45f,,,,,,,,,330,49.33335388,107.6666591,1,0,0,response1disk,,7,-8.333314508,5.99998945,1,0,0,rectangle,-8.333314508,5.99998945,1,0,0,-8.333314508,5.99998945,1,0,0,0,107,107,143,1,,,,,,,,
,,,,,,,,,,,,,FF,,,,,,,,2.5527,,,,,,,,,,,,,,,,,,,,,,5d690f9a8d6d9d00010815cc,60e562c887f6dfa8c47df104,2021-07-07_11h16.32.053,Simcolourproject_2stim_asymm_v5,2020.2.10,Win32,60,60e52e7cfedb1dae636df45f,,,,,,,,,1792,85.33335495,45.99999064,1,0,0,response1disk,,6,-5.999981105,-0.333344072,1,0,0,rectangle,-5.999981105,-0.333344072,1,0,0,-5.999981105,-0.333344072,1,0,0,0,108,108,20,1,,,,,,,,
,,,,,,,,,,,,,FF,,,,,,,,1.6504,,,,,,,,,,,,,,,,,,,,,,5d690f9a8d6d9d00010815cc,60e562c887f6dfa8c47df104,2021-07-07_11h16.32.053,Simcolourproject_2stim_asymm_v5,2020.2.10,Win32,60,60e52e7cfedb1dae636df45f,,,,,,,,,1193,-83.33331674,-26.66667819,1,0,0,response5disk,,2,-1.3333143,-3.333344162,1,0,0,rectangle,-1.3333143,-3.333344162,1,0,0,-1.3333143,-3.333344162,1,0,0,0,109,109,29,1,,,,,,,,
,,,,,,,,,,,,,FF,,,,,,,,1.6664,,,,,,,,,,,,,,,,,,,,,,5d690f9a8d6d9d00010815cc,60e562c887f6dfa8c47df104,2021-07-07_11h16.32.053,Simcolourproject_2stim_asymm_v5,2020.2.10,Win32,60,60e52e7cfedb1dae636df45f,,,,,,,,,464,46.33335379,-32.33334503,1,0,0,response3disk,,5,1.9735E-05,2.333322674,1,0,0,rectangle,1.9735E-05,2.333322674,1,0,0,1.9735E-05,2.333322674,1,0,0,0,110,110,57,1,,,,,,,,
,,,,,,,,,,,,,FF,,,,,,,,1.404,,,,,,,,,,,,,,,,,,,,,,5d690f9a8d6d9d00010815cc,60e562c887f6dfa8c47df104,2021-07-07_11h16.32.053,Simcolourproject_2stim_asymm_v5,2020.2.10,Win32,60,60e52e7cfedb1dae636df45f,,,,,,,,,3400,-43.33331555,-59.66667917,1,0,0,response5disk,,3,3.666685849,7.333322823,1,0,0,rectangle,3.666685849,7.333322823,1,0,0,3.666685849,7.333322823,1,0,0,0,111,111,101,1,,,,,,,,
,,,,,,,,,,,,,FF,,,,,,,,1.2372,,,,,,,,,,,,,,,,,,,,,,5d690f9a8d6d9d00010815cc,60e562c887f6dfa8c47df104,2021-07-07_11h16.32.053,Simcolourproject_2stim_asymm_v5,2020.2.10,Win32,60,60e52e7cfedb1dae636df45f,,,,,,,,,2911,70.3333545,-28.00001156,1,0,0,response3disk,,5,7.333393315,-1.333344102,1,0,0,rectangle,7.333393315,-1.333344102,1,0,0,7.333393315,-1.333344102,1,0,0,0,112,112,48,1,,,,,,,,
,,,,,,,,,,,,,FF,,,,,,,,1.1858,,,,,,,,,,,,,,,,,,,,,,5d690f9a8d6d9d00010815cc,60e562c887f6dfa8c47df104,2021-07-07_11h16.32.053,Simcolourproject_2stim_asymm_v5,2020.2.10,Win32,60,60e52e7cfedb1dae636df45f,,,,,,,,,1925,34.66668677,44.33330358,1,0,0,response1disk,,7,6.666685939,5.666656107,1,0,0,rectangle,6.666685939,5.666656107,1,0,0,6.666685939,5.666656107,1,0,0,0,113,113,93,1,,,,,,,,
,,,,,,,,,,,,,FF,,,,,,,,1.7,,,,,,,,,,,,,,,,,,,,,,5d690f9a8d6d9d00010815cc,60e562c887f6dfa8c47df104,2021-07-07_11h16.32.053,Simcolourproject_2stim_asymm_v5,2020.2.10,Win32,60,60e52e7cfedb1dae636df45f,,,,,,,,,2658,48.0000205,-69.00001279,1,0,0,response3disk,,4,2.333393166,-8.666677654,1,0,0,rectangle,2.333393166,-8.666677654,1,0,0,2.333393166,-8.666677654,1,0,0,0,114,114,88,1,,,,,,,,
,,,,,,,,,,,,,FF,,,,,,,,2.2498,,,,,,,,,,,,,,,,,,,,,,5d690f9a8d6d9d00010815cc,60e562c887f6dfa8c47df104,2021-07-07_11h16.32.053,Simcolourproject_2stim_asymm_v5,2020.2.10,Win32,60,60e52e7cfedb1dae636df45f,,,,,,,,,3988,-33.33331525,-72.33334622,1,0,0,response5disk,,3,1.9735E-05,-5.666677564,1,0,0,rectangle,1.9735E-05,-5.666677564,1,0,0,1.9735E-05,-5.666677564,1,0,0,0,115,115,149,1,,,,,,,,
,,,,,,,,,,,,,FF,,,,,,,,1.2336,,,,,,,,,,,,,,,,,,,,,,5d690f9a8d6d9d00010815cc,60e562c887f6dfa8c47df104,2021-07-07_11h16.32.053,Simcolourproject_2stim_asymm_v5,2020.2.10,Win32,60,60e52e7cfedb1dae636df45f,,,,,,,,,736,59.66668752,37.66665706,1,0,0,response1disk,,6,12.66668612,7.666656166,1,0,0,rectangle,12.66668612,7.666656166,1,0,0,12.66668612,7.666656166,1,0,0,0,116,116,85,1,,,,,,,,
,,,,,,,,,,,,,FF,,,,,,,,1.2835,,,,,,,,,,,,,,,,,,,,,,5d690f9a8d6d9d00010815cc,60e562c887f6dfa8c47df104,2021-07-07_11h16.32.053,Simcolourproject_2stim_asymm_v5,2020.2.10,Win32,60,60e52e7cfedb1dae636df45f,,,,,,,,,3438,-52.99998251,-78.3333464,1,0,0,response5disk,,3,1.333393137,-4.333344191,1,0,0,rectangle,1.333393137,-4.333344191,1,0,0,1.333393137,-4.333344191,1,0,0,0,117,117,35,1,,,,,,,,
,,,,,,,,,,,,,FF,,,,,,,,1.1835,,,,,,,,,,,,,,,,,,,,,,5d690f9a8d6d9d00010815cc,60e562c887f6dfa8c47df104,2021-07-07_11h16.32.053,Simcolourproject_2stim_asymm_v5,2020.2.10,Win32,60,60e52e7cfedb1dae636df45f,,,,,,,,,220,52.66668731,-22.33334473,1,0,0,response3disk,,5,3.000019163,-3.666677505,1,0,0,rectangle,3.000019163,-3.666677505,1,0,0,3.000019163,-3.666677505,1,0,0,0,118,118,58,1,,,,,,,,
,,,,,,,,,,,,,FF,,,,,,,,1.2499,,,,,,,,,,,,,,,,,,,,,,5d690f9a8d6d9d00010815cc,60e562c887f6dfa8c47df104,2021-07-07_11h16.32.053,Simcolourproject_2stim_asymm_v5,2020.2.10,Win32,60,60e52e7cfedb1dae636df45f,,,,,,,,,2391,82.00002152,50.66665745,1,0,0,response1disk,,6,-11.66660725,4.666656077,1,0,0,rectangle,-11.66660725,4.666656077,1,0,0,-11.66660725,4.666656077,1,0,0,0,119,119,61,1,,,,,,,,
,,,,,,,,,,,,,FF,,,,,,,,1.134,,,,,,,,,,,,,,,,,,,,,,5d690f9a8d6d9d00010815cc,60e562c887f6dfa8c47df104,2021-07-07_11h16.32.053,Simcolourproject_2stim_asymm_v5,2020.2.10,Win32,60,60e52e7cfedb1dae636df45f,,,,,,,,,4351,-67.33331627,13.99998969,1,0,0,response7disk,,1,4.666685879,4.333322734,1,0,0,rectangle,4.666685879,4.333322734,1,0,0,4.666685879,4.333322734,1,0,0,0,120,120,25,1,,,,,,,,
,,,,,,,,,,,,,FF,,,,,,,,0.9834,,,,,,,,,,,,,,,,,,,,,,5d690f9a8d6d9d00010815cc,60e562c887f6dfa8c47df104,2021-07-07_11h16.32.053,Simcolourproject_2stim_asymm_v5,2020.2.10,Win32,60,60e52e7cfedb1dae636df45f,,,,,,,,,1103,52.00002062,83.99999177,1,0,0,response1disk,,7,-4.666607042,1.999989331,1,0,0,rectangle,-4.666607042,1.999989331,1,0,0,-4.666607042,1.999989331,1,0,0,0,121,121,139,1,,,,,,,,
,,,,,,,,,,,,,FF,,,,,,,,1.1832,,,,,,,,,,,,,,,,,,,,,,5d690f9a8d6d9d00010815cc,60e562c887f6dfa8c47df104,2021-07-07_11h16.32.053,Simcolourproject_2stim_asymm_v5,2020.2.10,Win32,60,60e52e7cfedb1dae636df45f,,,,,,,,,1251,41.0000203,78.99999163,1,0,0,response1disk,,7,-7.999981165,-3.000010818,1,0,0,rectangle,-7.999981165,-3.000010818,1,0,0,-7.999981165,-3.000010818,1,0,0,0,122,122,51,1,,,,,,,,
,,,,,,,,,,,,,FF,,,,,,,,1.1334,,,,,,,,,,,,,,,,,,,,,,5d690f9a8d6d9d00010815cc,60e562c887f6dfa8c47df104,2021-07-07_11h16.32.053,Simcolourproject_2stim_asymm_v5,2020.2.10,Win32,60,60e52e7cfedb1dae636df45f,,,,,,,,,436,-83.33331674,22.33330293,1,0,0,response7disk,,1,-8.666607161,3.333322704,1,0,0,rectangle,-8.666607161,3.333322704,1,0,0,-8.666607161,3.333322704,1,0,0,0,123,123,144,1,,,,,,,,
,,,,,,,,,,,,,FF,,,,,,,,0.8837,,,,,,,,,,,,,,,,,,,,,,5d690f9a8d6d9d00010815cc,60e562c887f6dfa8c47df104,2021-07-07_11h16.32.053,Simcolourproject_2stim_asymm_v5,2020.2.10,Win32,60,60e52e7cfedb1dae636df45f,,,,,,,,,1491,40.66668695,32.33330322,1,0,0,response1disk,,6,-5.666607072,-1.333344102,1,0,0,rectangle,-5.666607072,-1.333344102,1,0,0,-5.666607072,-1.333344102,1,0,0,0,124,124,124,1,,,,,,,,
,,,,,,,,,,,,,FF,,,,,,,,1.8664,,,,,,,,,,,,,,,,,,,,,,5d690f9a8d6d9d00010815cc,60e562c887f6dfa8c47df104,2021-07-07_11h16.32.053,Simcolourproject_2stim_asymm_v5,2020.2.10,Win32,60,60e52e7cfedb1dae636df45f,,,,,,,,,4145,-71.66660904,-91.33334678,1,0,0,response5disk,,3,-5.666607072,-4.666677535,1,0,0,rectangle,-5.666607072,-4.666677535,1,0,0,-5.666607072,-4.666677535,1,0,0,0,125,125,110,1,,,,,,,,
,,,,,,,,,,,,,FF,,,,,,,,1.5997,,,,,,,,,,,,,,,,,,,,,,5d690f9a8d6d9d00010815cc,60e562c887f6dfa8c47df104,2021-07-07_11h16.32.053,Simcolourproject_2stim_asymm_v5,2020.2.10,Win32,60,60e52e7cfedb1dae636df45f,,,,,,,,,1030,76.33335468,35.99999034,1,0,0,response1disk,,6,-0.33331427,4.666656077,1,0,0,rectangle,-0.33331427,4.666656077,1,0,0,-0.33331427,4.666656077,1,0,0,0,126,126,32,1,,,,,,,,
,,,,,,,,,,,,,FF,,,,,,,,1.0995,,,,,,,,,,,,,,,,,,,,,,5d690f9a8d6d9d00010815cc,60e562c887f6dfa8c47df104,2021-07-07_11h16.32.053,Simcolourproject_2stim_asymm_v5,2020.2.10,Win32,60,60e52e7cfedb1dae636df45f,,,,,,,,,2397,24.33339382,67.66665795,1,0,0,response1disk,,7,-5.666607072,4.666656077,1,0,0,rectangle,46.66668713,111.3333259,1,0,0,4.000019193,10.33332291,1,0,0,0,127,127,147,1,,response1disk_3,TRUE,7,7,"[319,7,7,283,107,128,31,278,254,197,65,45,34,44,291,145,80,24,3,10]",1.9836,rectangle
,,,,,,,,,,,,,FF,,,,,,,,1.6329,,,,,,,,,,,,,,,,,,,,,,5d690f9a8d6d9d00010815cc,60e562c887f6dfa8c47df104,2021-07-07_11h16.32.053,Simcolourproject_2stim_asymm_v5,2020.2.10,Win32,60,60e52e7cfedb1dae636df45f,,,,,,,,,3983,48.33335385,-29.33334494,1,0,0,response3disk,,5,9.000019342,-10.66667771,1,0,0,rectangle,9.000019342,-10.66667771,1,0,0,9.000019342,-10.66667771,1,0,0,0,128,128,145,1,,,,,,,,
,,,,,,,,,,,,,FF,,,,,,,,0.9993,,,,,,,,,,,,,,,,,,,,,,5d690f9a8d6d9d00010815cc,60e562c887f6dfa8c47df104,2021-07-07_11h16.32.053,Simcolourproject_2stim_asymm_v5,2020.2.10,Win32,60,60e52e7cfedb1dae636df45f,,,,,,,,,2178,40.3333943,82.6666584,1,0,0,response1disk,,7,-3.999981046,-0.333344072,1,0,0,rectangle,-3.999981046,-0.333344072,1,0,0,-3.999981046,-0.333344072,1,0,0,0,129,129,72,1,,,,,,,,
,,,,,,,,,,,,,FF,,,,,,,,0.9664,,,,,,,,,,,,,,,,,,,,,,5d690f9a8d6d9d00010815cc,60e562c887f6dfa8c47df104,2021-07-07_11h16.32.053,Simcolourproject_2stim_asymm_v5,2020.2.10,Win32,60,60e52e7cfedb1dae636df45f,,,,,,,,,4271,34.00002009,72.6666581,1,0,0,response1disk,,7,-15.33331472,-3.000010818,1,0,0,rectangle,-15.33331472,-3.000010818,1,0,0,-15.33331472,-3.000010818,1,0,0,0,130,130,7,1,,,,,,,,
,,,,,,,,,,,,,FF,,,,,,,,1.4867,,,,,,,,,,,,,,,,,,,,,,5d690f9a8d6d9d00010815cc,60e562c887f6dfa8c47df104,2021-07-07_11h16.32.053,Simcolourproject_2stim_asymm_v5,2020.2.10,Win32,60,60e52e7cfedb1dae636df45f,,,,,,,,,2432,57.66668746,40.66665715,1,0,0,response1disk,,6,6.000019252,6.99998948,1,0,0,rectangle,6.000019252,6.99998948,1,0,0,6.000019252,6.99998948,1,0,0,0,131,131,31,1,,,,,,,,
,,,,,,,,,,,,,FF,,,,,,,,0.9701,,,,,,,,,,,,,,,,,,,,,,5d690f9a8d6d9d00010815cc,60e562c887f6dfa8c47df104,2021-07-07_11h16.32.053,Simcolourproject_2stim_asymm_v5,2020.2.10,Win32,60,60e52e7cfedb1dae636df45f,,,,,,,,,116,31.33339403,67.9999913,1,0,0,response1disk,,7,-13.66660731,-9.666677684,1,0,0,rectangle,-13.66660731,-9.666677684,1,0,0,-13.66660731,-9.666677684,1,0,0,0,132,132,89,1,,,,,,,,
,,,,,,,,,,,,,FF,,,,,,,,0.967,,,,,,,,,,,,,,,,,,,,,,5d690f9a8d6d9d00010815cc,60e562c887f6dfa8c47df104,2021-07-07_11h16.32.053,Simcolourproject_2stim_asymm_v5,2020.2.10,Win32,60,60e52e7cfedb1dae636df45f,,,,,,,,,3578,40.66668695,75.66665819,1,0,0,response1disk,,7,2.333393166,7.666656166,1,0,0,rectangle,2.333393166,7.666656166,1,0,0,2.333393166,7.666656166,1,0,0,0,133,133,158,1,,,,,,,,
,,,,,,,,,,,,,FF,,,,,,,,1.7004,,,,,,,,,,,,,,,,,,,,,,5d690f9a8d6d9d00010815cc,60e562c887f6dfa8c47df104,2021-07-07_11h16.32.053,Simcolourproject_2stim_asymm_v5,2020.2.10,Win32,60,60e52e7cfedb1dae636df45f,,,,,,,,,1060,80.66668814,38.3333034,1,0,0,response1disk,,6,6.000019252,6.666656137,1,0,0,rectangle,6.000019252,6.666656137,1,0,0,6.000019252,6.666656137,1,0,0,0,134,134,64,1,,,,,,,,
,,,,,,,,,,,,,FF,,,,,,,,1.4165,,,,,,,,,,,,,,,,,,,,,,5d690f9a8d6d9d00010815cc,60e562c887f6dfa8c47df104,2021-07-07_11h16.32.053,Simcolourproject_2stim_asymm_v5,2020.2.10,Win32,60,60e52e7cfedb1dae636df45f,,,,,,,,,3547,-82.9999834,-29.33334494,1,0,0,response5disk,,2,-9.333314538,0.666655958,1,0,0,rectangle,-9.333314538,0.666655958,1,0,0,-9.333314538,0.666655958,1,0,0,0,135,135,26,1,,,,,,,,
,,,,,,,,,,,,,FF,,,,,,,,1.2173,,,,,,,,,,,,,,,,,,,,,,5d690f9a8d6d9d00010815cc,60e562c887f6dfa8c47df104,2021-07-07_11h16.32.053,Simcolourproject_2stim_asymm_v5,2020.2.10,Win32,60,60e52e7cfedb1dae636df45f,,,,,,,,,411,62.66668761,-26.33334485,1,0,0,response3disk,,5,10.3333934,-3.333344162,1,0,0,rectangle,10.3333934,-3.333344162,1,0,0,10.3333934,-3.333344162,1,0,0,0,136,136,108,1,,,,,,,,
,,,,,,,,,,,,,FF,,,,,,,,2.0163,,,,,,,,,,,,,,,,,,,,,,5d690f9a8d6d9d00010815cc,60e562c887f6dfa8c47df104,2021-07-07_11h16.32.053,Simcolourproject_2stim_asymm_v5,2020.2.10,Win32,60,60e52e7cfedb1dae636df45f,,,,,,,,,819,-53.6666085,-71.33334619,1,0,0,response5disk,,3,2.333393166,7.333322823,1,0,0,rectangle,2.333393166,7.333322823,1,0,0,2.333393166,7.333322823,1,0,0,0,137,137,67,1,,,,,,,,
,,,,,,,,,,,,,FF,,,,,,,,0.8666,,,,,,,,,,,,,,,,,,,,,,5d690f9a8d6d9d00010815cc,60e562c887f6dfa8c47df104,2021-07-07_11h16.32.053,Simcolourproject_2stim_asymm_v5,2020.2.10,Win32,60,60e52e7cfedb1dae636df45f,,,,,,,,,2117,35.33339415,69.33330433,1,0,0,response1disk,,7,2.000019133,5.333322763,1,0,0,rectangle,2.000019133,5.333322763,1,0,0,2.000019133,5.333322763,1,0,0,0,138,138,37,1,,,,,,,,
,,,,,,,,,,,,,FF,,,,,,,,1.2167,,,,,,,,,,,,,,,,,,,,,,5d690f9a8d6d9d00010815cc,60e562c887f6dfa8c47df104,2021-07-07_11h16.32.053,Simcolourproject_2stim_asymm_v5,2020.2.10,Win32,60,60e52e7cfedb1dae636df45f,,,,,,,,,490,31.33339403,76.33330453,1,0,0,response1disk,,7,-14.33331469,-9.000010997,1,0,0,rectangle,-14.33331469,-9.000010997,1,0,0,-14.33331469,-9.000010997,1,0,0,0,139,139,137,1,,,,,,,,
,,,,,,,,,,,,,FF,,,,,,,,1.0833,,,,,,,,,,,,,,,,,,,,,,5d690f9a8d6d9d00010815cc,60e562c887f6dfa8c47df104,2021-07-07_11h16.32.053,Simcolourproject_2stim_asymm_v5,2020.2.10,Win32,60,60e52e7cfedb1dae636df45f,,,,,,,,,939,33.66668674,70.99999139,1,0,0,response1disk,,7,-1.999980986,2.333322674,1,0,0,rectangle,-1.999980986,2.333322674,1,0,0,-1.999980986,2.333322674,1,0,0,0,140,140,104,1,,,,,,,,
,,,,,,,,,,,,,FF,,,,,,,,2.4499,,,,,,,,,,,,,,,,,,,,,,5d690f9a8d6d9d00010815cc,60e562c887f6dfa8c47df104,2021-07-07_11h16.32.053,Simcolourproject_2stim_asymm_v5,2020.2.10,Win32,60,60e52e7cfedb1dae636df45f,,,,,,,,,4032,46.33335379,-41.66667864,1,0,0,response3disk,,5,16.33339358,-2.333344132,1,0,0,rectangle,16.33339358,-2.333344132,1,0,0,16.33339358,-2.333344132,1,0,0,0,141,141,98,1,,,,,,,,
,,,,,,,,,,,,,FF,,,,,,,,1.1,,,,,,,,,,,,,,,,,,,,,,5d690f9a8d6d9d00010815cc,60e562c887f6dfa8c47df104,2021-07-07_11h16.32.053,Simcolourproject_2stim_asymm_v5,2020.2.10,Win32,60,60e52e7cfedb1dae636df45f,,,,,,,,,712,51.00002059,30.9999902,1,0,0,response1disk,,6,-12.66660728,-10.66667771,1,0,0,rectangle,-12.66660728,-10.66667771,1,0,0,-12.66660728,-10.66667771,1,0,0,0,142,142,126,1,,,,,,,,
,,,,,,,,,,,,,FF,,,,,,,,0.8328,,,,,,,,,,,,,,,,,,,,,,5d690f9a8d6d9d00010815cc,60e562c887f6dfa8c47df104,2021-07-07_11h16.32.053,Simcolourproject_2stim_asymm_v5,2020.2.10,Win32,60,60e52e7cfedb1dae636df45f,,,,,,,,,2971,52.66668731,91.99999201,1,0,0,response1disk,,7,1.333393137,-6.333344251,1,0,0,rectangle,1.333393137,-6.333344251,1,0,0,1.333393137,-6.333344251,1,0,0,0,143,143,75,1,,,,,,,,
,,,,,,,,,,,,,FF,,,,,,,,1.0832,,,,,,,,,,,,,,,,,,,,,,5d690f9a8d6d9d00010815cc,60e562c887f6dfa8c47df104,2021-07-07_11h16.32.053,Simcolourproject_2stim_asymm_v5,2020.2.10,Win32,60,60e52e7cfedb1dae636df45f,,,,,,,,,134,37.33339421,80.33330465,1,0,0,response1disk,,7,-0.999980956,6.666656137,1,0,0,rectangle,45.6666871,90.99999198,1,0,0,-21.66660755,-12.00001109,1,0,0,0,144,144,116,1,,response1disk_3,TRUE,7,7,"[319,7,7,283,107,128,31,278,254,197,65,45,34,44,291,145,80,24,3,10]",1.2836,rectangle
,,,,,,,,,,,,,FF,,,,,,,,0.9835,,,,,,,,,,,,,,,,,,,,,,5d690f9a8d6d9d00010815cc,60e562c887f6dfa8c47df104,2021-07-07_11h16.32.053,Simcolourproject_2stim_asymm_v5,2020.2.10,Win32,60,60e52e7cfedb1dae636df45f,,,,,,,,,1242,38.33339424,62.66665781,1,0,0,response1disk,,7,-0.33331427,12.66665632,1,0,0,rectangle,-0.33331427,12.66665632,1,0,0,-0.33331427,12.66665632,1,0,0,0,145,145,17,1,,,,,,,,
,,,,,,,,,,,,,FF,,,,,,,,0.7997,,,,,,,,,,,,,,,,,,,,,,5d690f9a8d6d9d00010815cc,60e562c887f6dfa8c47df104,2021-07-07_11h16.32.053,Simcolourproject_2stim_asymm_v5,2020.2.10,Win32,60,60e52e7cfedb1dae636df45f,,,,,,,,,1574,56.66668743,92.6666587,1,0,0,response1disk,,7,-7.666607132,-1.333344102,1,0,0,rectangle,-7.666607132,-1.333344102,1,0,0,-7.666607132,-1.333344102,1,0,0,0,146,146,155,1,,,,,,,,
,,,,,,,,,,,,,FF,,,,,,,,1.0697,,,,,,,,,,,,,,,,,,,,,,5d690f9a8d6d9d00010815cc,60e562c887f6dfa8c47df104,2021-07-07_11h16.32.053,Simcolourproject_2stim_asymm_v5,2020.2.10,Win32,60,60e52e7cfedb1dae636df45f,,,,,,,,,1269,38.00002021,38.3333034,1,0,0,response1disk,,7,6.000019252,10.9999896,1,0,0,rectangle,6.000019252,10.9999896,1,0,0,6.000019252,10.9999896,1,0,0,0,147,147,80,1,,,,,,,,
,,,,,,,,,,,,,FF,,,,,,,,1.1833,,,,,,,,,,,,,,,,,,,,,,5d690f9a8d6d9d00010815cc,60e562c887f6dfa8c47df104,2021-07-07_11h16.32.053,Simcolourproject_2stim_asymm_v5,2020.2.10,Win32,60,60e52e7cfedb1dae636df45f,,,,,,,,,1731,66.33335438,46.99999067,1,0,0,response1disk,,6,-12.33331463,-3.333344162,1,0,0,rectangle,-12.33331463,-3.333344162,1,0,0,-12.33331463,-3.333344162,1,0,0,0,148,148,19,1,,,,,,,,
,,,,,,,,,,,,,FF,,,,,,,,1.7502,,,,,,,,,,,,,,,,,,,,,,5d690f9a8d6d9d00010815cc,60e562c887f6dfa8c47df104,2021-07-07_11h16.32.053,Simcolourproject_2stim_asymm_v5,2020.2.10,Win32,60,60e52e7cfedb1dae636df45f,,,,,,,,,1978,85.66668829,-23.00001141,1,0,0,response3disk,,5,19.33339367,-1.000010759,1,0,0,rectangle,19.33339367,-1.000010759,1,0,0,19.33339367,-1.000010759,1,0,0,0,149,149,99,1,,,,,,,,
,,,,,,,,,,,,,FF,,,,,,,,2.3499,,,,,,,,,,,,,,,,,,,,,,5d690f9a8d6d9d00010815cc,60e562c887f6dfa8c47df104,2021-07-07_11h16.32.053,Simcolourproject_2stim_asymm_v5,2020.2.10,Win32,60,60e52e7cfedb1dae636df45f,,,,,,,,,2951,-82.66660937,-63.00001261,1,0,0,response5disk,,2,-15.9999814,-14.00001115,1,0,0,rectangle,-15.9999814,-14.00001115,1,0,0,-15.9999814,-14.00001115,1,0,0,0,150,150,86,1,,,,,,,,
,,,,,,,,,,,,,FF,,,,,,,,1.2501,,,,,,,,,,,,,,,,,,,,,,5d690f9a8d6d9d00010815cc,60e562c887f6dfa8c47df104,2021-07-07_11h16.32.053,Simcolourproject_2stim_asymm_v5,2020.2.10,Win32,60,60e52e7cfedb1dae636df45f,,,,,,,,,188,-48.66660835,74.66665816,1,0,0,response7disk,,0,-1.999980986,10.9999896,1,0,0,rectangle,-1.999980986,10.9999896,1,0,0,-1.999980986,10.9999896,1,0,0,0,151,151,156,1,,,,,,,,
,,,,,,,,,,,,,FF,,,,,,,,5.2997,,,,,,,,,,,,,,,,,,,,,,5d690f9a8d6d9d00010815cc,60e562c887f6dfa8c47df104,2021-07-07_11h16.32.053,Simcolourproject_2stim_asymm_v5,2020.2.10,Win32,60,60e52e7cfedb1dae636df45f,,,,,,,,,2471,-51.99998248,-47.33334547,1,0,0,response5disk,,2,3.333393196,7.666656166,1,0,0,rectangle,3.333393196,7.666656166,1,0,0,3.333393196,7.666656166,1,0,0,0,152,152,140,1,,,,,,,,
,,,,,,,,,,,,,FF,,,,,,,,2.2166,,,,,,,,,,,,,,,,,,,,,,5d690f9a8d6d9d00010815cc,60e562c887f6dfa8c47df104,2021-07-07_11h16.32.053,Simcolourproject_2stim_asymm_v5,2020.2.10,Win32,60,60e52e7cfedb1dae636df45f,,,,,,,,,162,-50.99998245,-82.00001317,1,0,0,response5disk,,3,2.000019133,-8.000010967,1,0,0,rectangle,2.000019133,-8.000010967,1,0,0,2.000019133,-8.000010967,1,0,0,0,153,153,27,1,,,,,,,,
,,,,,,,,,,,,,FF,,,,,,,,1.3833,,,,,,,,,,,,,,,,,,,,,,5d690f9a8d6d9d00010815cc,60e562c887f6dfa8c47df104,2021-07-07_11h16.32.053,Simcolourproject_2stim_asymm_v5,2020.2.10,Win32,60,60e52e7cfedb1dae636df45f,,,,,,,,,4244,65.33335435,-32.33334503,1,0,0,response3disk,,5,11.0000194,-7.666677624,1,0,0,rectangle,11.0000194,-7.666677624,1,0,0,11.0000194,-7.666677624,1,0,0,0,154,154,119,1,,,,,,,,
,,,,,,,,,,,,,FF,,,,,,,,1.5167,,,,,,,,,,,,,,,,,,,,,,5d690f9a8d6d9d00010815cc,60e562c887f6dfa8c47df104,2021-07-07_11h16.32.053,Simcolourproject_2stim_asymm_v5,2020.2.10,Win32,60,60e52e7cfedb1dae636df45f,,,,,,,,,1388,85.33335495,33.33330325,1,0,0,response1disk,,6,18.6666863,3.99998939,1,0,0,rectangle,18.6666863,3.99998939,1,0,0,18.6666863,3.99998939,1,0,0,0,155,155,103,1,,,,,,,,
,,,,,,,,,,,,,FF,,,,,,,,1.0332,,,,,,,,,,,,,,,,,,,,,,5d690f9a8d6d9d00010815cc,60e562c887f6dfa8c47df104,2021-07-07_11h16.32.053,Simcolourproject_2stim_asymm_v5,2020.2.10,Win32,60,60e52e7cfedb1dae636df45f,,,,,,,,,1764,77.00002137,42.99999055,1,0,0,response1disk,,6,-7.666607132,-2.000010788,1,0,0,rectangle,-7.666607132,-2.000010788,1,0,0,-7.666607132,-2.000010788,1,0,0,0,156,156,15,1,,,,,,,,
,,,,,,,,,,,,,FF,,,,,,,,1.6335,,,,,,,,,,,,,,,,,,,,,,5d690f9a8d6d9d00010815cc,60e562c887f6dfa8c47df104,2021-07-07_11h16.32.053,Simcolourproject_2stim_asymm_v5,2020.2.10,Win32,60,60e52e7cfedb1dae636df45f,,,,,,,,,1605,-29.33331513,-39.66667858,1,0,0,response5disk,,3,5.000019222,3.99998939,1,0,0,rectangle,5.000019222,3.99998939,1,0,0,5.000019222,3.99998939,1,0,0,0,157,157,130,1,,,,,,,,
,,,,,,,,,,,,,FF,,,,,,,,0.8826,,,,,,,,,,,,,,,,,,,,,,5d690f9a8d6d9d00010815cc,60e562c887f6dfa8c47df104,2021-07-07_11h16.32.053,Simcolourproject_2stim_asymm_v5,2020.2.10,Win32,60,60e52e7cfedb1dae636df45f,,,,,,,,,2133,47.66668716,78.66665828,1,0,0,response1disk,,7,-2.999981016,7.666656166,1,0,0,rectangle,-2.999981016,7.666656166,1,0,0,-2.999981016,7.666656166,1,0,0,0,158,158,38,1,,,,,,,,
,,,,,,,,,,,,,FF,,,,,,,,1.8332,,,,,,,,,,,,,,,,,,,,,,5d690f9a8d6d9d00010815cc,60e562c887f6dfa8c47df104,2021-07-07_11h16.32.053,Simcolourproject_2stim_asymm_v5,2020.2.10,Win32,60,60e52e7cfedb1dae636df45f,,,,,,,,,1955,70.00002116,36.33330334,1,0,0,response1disk,,6,-5.333314419,0.999989301,1,0,0,rectangle,-5.333314419,0.999989301,1,0,0,-5.333314419,0.999989301,1,0,0,0,159,159,3,1,,,,,,,,
,,,,,,,,,,,,,FF,,,,,,,,3.083,,,,,,,,,,,,,,,,,,,,,,5d690f9a8d6d9d00010815cc,60e562c887f6dfa8c47df104,2021-07-07_11h16.32.053,Simcolourproject_2stim_asymm_v5,2020.2.10,Win32,60,60e52e7cfedb1dae636df45f,,,,,,,,,3342,48.0000205,-39.00001189,1,0,0,response3disk,,5,3.000019163,-6.000010908,1,0,0,rectangle,3.000019163,-6.000010908,1,0,0,3.000019163,-6.000010908,1,0,0,1,0,160,14,1,,,,,,,,
,,,,,,,,,,,,,FF,,,,,,,,0.9669,,,,,,,,,,,,,,,,,,,,,,5d690f9a8d6d9d00010815cc,60e562c887f6dfa8c47df104,2021-07-07_11h16.32.053,Simcolourproject_2stim_asymm_v5,2020.2.10,Win32,60,60e52e7cfedb1dae636df45f,,,,,,,,,444,-76.66660919,42.66665721,1,0,0,response7disk,,1,-3.333314359,0.333322614,1,0,0,rectangle,-3.333314359,0.333322614,1,0,0,-3.333314359,0.333322614,1,0,0,1,1,161,73,1,,,,,,,,
,,,,,,,,,,,,,FF,,,,,,,,1.0159,,,,,,,,,,,,,,,,,,,,,,5d690f9a8d6d9d00010815cc,60e562c887f6dfa8c47df104,2021-07-07_11h16.32.053,Simcolourproject_2stim_asymm_v5,2020.2.10,Win32,60,60e52e7cfedb1dae636df45f,,,,,,,,,2463,83.00002155,102.9999923,1,0,0,response1disk,,7,5.666685909,4.99998942,1,0,0,rectangle,5.666685909,4.99998942,1,0,0,5.666685909,4.99998942,1,0,0,1,2,162,6,1,,,,,,,,
,,,,,,,,,,,,,FF,,,,,,,,1.0501,,,,,,,,,,,,,,,,,,,,,,5d690f9a8d6d9d00010815cc,60e562c887f6dfa8c47df104,2021-07-07_11h16.32.053,Simcolourproject_2stim_asymm_v5,2020.2.10,Win32,60,60e52e7cfedb1dae636df45f,,,,,,,,,3147,-71.66660904,50.99999079,1,0,0,response7disk,,1,-11.3333146,9.333322883,1,0,0,rectangle,-11.3333146,9.333322883,1,0,0,-11.3333146,9.333322883,1,0,0,1,3,163,102,1,,,,,,,,
,,,,,,,,,,,,,FF,,,,,,,,1.0998,,,,,,,,,,,,,,,,,,,,,,5d690f9a8d6d9d00010815cc,60e562c887f6dfa8c47df104,2021-07-07_11h16.32.053,Simcolourproject_2stim_asymm_v5,2020.2.10,Win32,60,60e52e7cfedb1dae636df45f,,,,,,,,,4359,-38.99998209,91.99999201,1,0,0,response7disk,,0,-9.333314538,3.333322704,1,0,0,rectangle,-9.333314538,3.333322704,1,0,0,-9.333314538,3.333322704,1,0,0,1,4,164,63,1,,,,,,,,
,,,,,,,,,,,,,FF,,,,,,,,1.584,,,,,,,,,,,,,,,,,,,,,,5d690f9a8d6d9d00010815cc,60e562c887f6dfa8c47df104,2021-07-07_11h16.32.053,Simcolourproject_2stim_asymm_v5,2020.2.10,Win32,60,60e52e7cfedb1dae636df45f,,,,,,,,,4236,-65.66660886,48.66665739,1,0,0,response7disk,,1,-14.99998137,9.666656226,1,0,0,rectangle,-14.99998137,9.666656226,1,0,0,-14.99998137,9.666656226,1,0,0,1,5,165,35,1,,,,,,,,
,,,,,,,,,,,,,FF,,,,,,,,1.9999,,,,,,,,,,,,,,,,,,,,,,5d690f9a8d6d9d00010815cc,60e562c887f6dfa8c47df104,2021-07-07_11h16.32.053,Simcolourproject_2stim_asymm_v5,2020.2.10,Win32,60,60e52e7cfedb1dae636df45f,,,,,,,,,768,37.66668686,88.99999192,1,0,0,response1disk,,7,-8.333314508,-9.666677684,1,0,0,rectangle,-8.333314508,-9.666677684,1,0,0,-8.333314508,-9.666677684,1,0,0,1,6,166,107,1,,,,,,,,
,,,,,,,,,,,,,FF,,,,,,,,1.1833,,,,,,,,,,,,,,,,,,,,,,5d690f9a8d6d9d00010815cc,60e562c887f6dfa8c47df104,2021-07-07_11h16.32.053,Simcolourproject_2stim_asymm_v5,2020.2.10,Win32,60,60e52e7cfedb1dae636df45f,,,,,,,,,314,40.66668695,65.99999124,1,0,0,response1disk,,7,-0.666606923,6.666656137,1,0,0,rectangle,-0.666606923,6.666656137,1,0,0,-0.666606923,6.666656137,1,0,0,1,7,167,115,1,,,,,,,,
,,,,,,,,,,,,,FF,,,,,,,,1.2332,,,,,,,,,,,,,,,,,,,,,,5d690f9a8d6d9d00010815cc,60e562c887f6dfa8c47df104,2021-07-07_11h16.32.053,Simcolourproject_2stim_asymm_v5,2020.2.10,Win32,60,60e52e7cfedb1dae636df45f,,,,,,,,,1057,-74.66660913,-40.66667861,1,0,0,response5disk,,2,3.666685849,-1.333344102,1,0,0,rectangle,3.666685849,-1.333344102,1,0,0,3.666685849,-1.333344102,1,0,0,1,8,168,123,1,,,,,,,,
,,,,,,,,,,,,,FF,,,,,,,,1.3167,,,,,,,,,,,,,,,,,,,,,,5d690f9a8d6d9d00010815cc,60e562c887f6dfa8c47df104,2021-07-07_11h16.32.053,Simcolourproject_2stim_asymm_v5,2020.2.10,Win32,60,60e52e7cfedb1dae636df45f,,,,,,,,,3194,55.6666874,-23.6666781,1,0,0,response3disk,,5,10.00001937,-6.000010908,1,0,0,rectangle,10.00001937,-6.000010908,1,0,0,10.00001937,-6.000010908,1,0,0,1,9,169,2,1,,,,,,,,
,,,,,,,,,,,,,FF,,,,,,,,0.9166,,,,,,,,,,,,,,,,,,,,,,5d690f9a8d6d9d00010815cc,60e562c887f6dfa8c47df104,2021-07-07_11h16.32.053,Simcolourproject_2stim_asymm_v5,2020.2.10,Win32,60,60e52e7cfedb1dae636df45f,,,,,,,,,1817,-61.66660874,35.666657,1,0,0,response7disk,,1,-7.999981165,8.999989539,1,0,0,rectangle,-7.999981165,8.999989539,1,0,0,-7.999981165,8.999989539,1,0,0,1,10,170,5,1,,,,,,,,
,,,,,,,,,,,,,FF,,,,,,,,0.8494,,,,,,,,,,,,,,,,,,,,,,5d690f9a8d6d9d00010815cc,60e562c887f6dfa8c47df104,2021-07-07_11h16.32.053,Simcolourproject_2stim_asymm_v5,2020.2.10,Win32,60,60e52e7cfedb1dae636df45f,,,,,,,,,1298,-40.99998215,69.66665801,1,0,0,response7disk,,0,-5.666607072,2.999989361,1,0,0,rectangle,-5.666607072,2.999989361,1,0,0,-5.666607072,2.999989361,1,0,0,1,11,171,15,1,,,,,,,,
,,,,,,,,,,,,,FF,,,,,,,,1.1332,,,,,,,,,,,,,,,,,,,,,,5d690f9a8d6d9d00010815cc,60e562c887f6dfa8c47df104,2021-07-07_11h16.32.053,Simcolourproject_2stim_asymm_v5,2020.2.10,Win32,60,60e52e7cfedb1dae636df45f,,,,,,,,,1579,88.66668838,58.99999103,1,0,0,response1disk,,6,-3.999981046,12.66665632,1,0,0,rectangle,-3.999981046,12.66665632,1,0,0,-3.999981046,12.66665632,1,0,0,1,12,172,78,1,,,,,,,,
,,,,,,,,,,,,,FF,,,,,,,,1.6537,,,,,,,,,,,,,,,,,,,,,,5d690f9a8d6d9d00010815cc,60e562c887f6dfa8c47df104,2021-07-07_11h16.32.053,Simcolourproject_2stim_asymm_v5,2020.2.10,Win32,60,60e52e7cfedb1dae636df45f,,,,,,,,,2744,-53.6666085,-85.00001326,1,0,0,response5disk,,3,14.66668618,7.666656166,1,0,0,rectangle,14.66668618,7.666656166,1,0,0,14.66668618,7.666656166,1,0,0,1,13,173,117,1,,,,,,,,
,,,,,,,,,,,,,FF,,,,,,,,1.1497,,,,,,,,,,,,,,,,,,,,,,5d690f9a8d6d9d00010815cc,60e562c887f6dfa8c47df104,2021-07-07_11h16.32.053,Simcolourproject_2stim_asymm_v5,2020.2.10,Win32,60,60e52e7cfedb1dae636df45f,,,,,,,,,1427,52.33335397,58.333304,1,0,0,response1disk,,7,-4.999981076,-7.000010937,1,0,0,rectangle,-4.999981076,-7.000010937,1,0,0,-4.999981076,-7.000010937,1,0,0,1,14,174,93,1,,,,,,,,
,,,,,,,,,,,,,FF,,,,,,,,1.0994,,,,,,,,,,,,,,,,,,,,,,5d690f9a8d6d9d00010815cc,60e562c887f6dfa8c47df104,2021-07-07_11h16.32.053,Simcolourproject_2stim_asymm_v5,2020.2.10,Win32,60,60e52e7cfedb1dae636df45f,,,,,,,,,3842,67.00002107,36.66665703,1,0,0,response1disk,,6,12.33339346,6.666656137,1,0,0,rectangle,12.33339346,6.666656137,1,0,0,12.33339346,6.666656137,1,0,0,1,15,175,56,1,,,,,,,,
,,,,,,,,,,,,,FF,,,,,,,,2.1166,,,,,,,,,,,,,,,,,,,,,,5d690f9a8d6d9d00010815cc,60e562c887f6dfa8c47df104,2021-07-07_11h16.32.053,Simcolourproject_2stim_asymm_v5,2020.2.10,Win32,60,60e52e7cfedb1dae636df45f,,,,,,,,,3110,77.66668805,-29.66667828,1,0,0,response3disk,,5,8.333393345,-7.666677624,1,0,0,rectangle,8.333393345,-7.666677624,1,0,0,8.333393345,-7.666677624,1,0,0,1,16,176,34,1,,,,,,,,
,,,,,,,,,,,,,FF,,,,,,,,1.0499,,,,,,,,,,,,,,,,,,,,,,5d690f9a8d6d9d00010815cc,60e562c887f6dfa8c47df104,2021-07-07_11h16.32.053,Simcolourproject_2stim_asymm_v5,2020.2.10,Win32,60,60e52e7cfedb1dae636df45f,,,,,,,,,2048,51.33335394,-26.0000115,1,0,0,response3disk,,5,7.000019282,-11.3333444,1,0,0,rectangle,7.000019282,-11.3333444,1,0,0,7.000019282,-11.3333444,1,0,0,1,17,177,159,1,,,,,,,,
,,,,,,,,,,,,,FF,,,,,,,,0.9337,,,,,,,,,,,,,,,,,,,,,,5d690f9a8d6d9d00010815cc,60e562c887f6dfa8c47df104,2021-07-07_11h16.32.053,Simcolourproject_2stim_asymm_v5,2020.2.10,Win32,60,60e52e7cfedb1dae636df45f,,,,,,,,,1999,29.66668662,69.66665801,1,0,0,response1disk,,7,-8.666607161,5.333322763,1,0,0,rectangle,-8.666607161,5.333322763,1,0,0,-8.666607161,5.333322763,1,0,0,1,18,178,17,1,,,,,,,,
,,,,,,,,,,,,,FF,,,,,,,,0.9501,,,,,,,,,,,,,,,,,,,,,,5d690f9a8d6d9d00010815cc,60e562c887f6dfa8c47df104,2021-07-07_11h16.32.053,Simcolourproject_2stim_asymm_v5,2020.2.10,Win32,60,60e52e7cfedb1dae636df45f,,,,,,,,,1504,46.66668713,77.66665825,1,0,0,response1disk,,7,-1.666606953,6.99998948,1,0,0,rectangle,-1.666606953,6.99998948,1,0,0,-1.666606953,6.99998948,1,0,0,1,19,179,135,1,,,,,,,,
,,,,,,,,,,,,,FF,,,,,,,,0.8667,,,,,,,,,,,,,,,,,,,,,,5d690f9a8d6d9d00010815cc,60e562c887f6dfa8c47df104,2021-07-07_11h16.32.053,Simcolourproject_2stim_asymm_v5,2020.2.10,Win32,60,60e52e7cfedb1dae636df45f,,,,,,,,,209,33.66668674,75.99999154,1,0,0,response1disk,,7,-10.33331457,-10.33334437,1,0,0,rectangle,-10.33331457,-10.33334437,1,0,0,-10.33331457,-10.33334437,1,0,0,1,20,180,46,1,,,,,,,,
,,,,,,,,,,,,,FF,,,,,,,,0.816,,,,,,,,,,,,,,,,,,,,,,5d690f9a8d6d9d00010815cc,60e562c887f6dfa8c47df104,2021-07-07_11h16.32.053,Simcolourproject_2stim_asymm_v5,2020.2.10,Win32,60,60e52e7cfedb1dae636df45f,,,,,,,,,319,55.00002071,80.99999169,1,0,0,response1disk,,7,5.000019222,-1.333344102,1,0,0,rectangle,5.000019222,-1.333344102,1,0,0,5.000019222,-1.333344102,1,0,0,1,21,181,88,1,,,,,,,,
,,,,,,,,,,,,,FF,,,,,,,,1.0834,,,,,,,,,,,,,,,,,,,,,,5d690f9a8d6d9d00010815cc,60e562c887f6dfa8c47df104,2021-07-07_11h16.32.053,Simcolourproject_2stim_asymm_v5,2020.2.10,Win32,60,60e52e7cfedb1dae636df45f,,,,,,,,,168,-78.66660925,-53.66667899,1,0,0,response5disk,,2,-1.999980986,3.333322704,1,0,0,rectangle,-1.999980986,3.333322704,1,0,0,-1.999980986,3.333322704,1,0,0,1,22,182,7,1,,,,,,,,
,,,,,,,,,,,,,FF,,,,,,,,1.3667,,,,,,,,,,,,,,,,,,,,,,5d690f9a8d6d9d00010815cc,60e562c887f6dfa8c47df104,2021-07-07_11h16.32.053,Simcolourproject_2stim_asymm_v5,2020.2.10,Win32,60,60e52e7cfedb1dae636df45f,,,,,,,,,545,65.6666877,39.33330343,1,0,0,response1disk,,6,17.66668627,5.99998945,1,0,0,rectangle,17.66668627,5.99998945,1,0,0,17.66668627,5.99998945,1,0,0,1,23,183,62,1,,,,,,,,
,,,,,,,,,,,,,FF,,,,,,,,0.9165,,,,,,,,,,,,,,,,,,,,,,5d690f9a8d6d9d00010815cc,60e562c887f6dfa8c47df104,2021-07-07_11h16.32.053,Simcolourproject_2stim_asymm_v5,2020.2.10,Win32,60,60e52e7cfedb1dae636df45f,,,,,,,,,504,60.3333542,95.3333051,1,0,0,response1disk,,7,-10.33331457,-9.000010997,1,0,0,rectangle,-10.33331457,-9.000010997,1,0,0,-10.33331457,-9.000010997,1,0,0,1,24,184,141,1,,,,,,,,
,,,,,,,,,,,,,FF,,,,,,,,1.3173,,,,,,,,,,,,,,,,,,,,,,5d690f9a8d6d9d00010815cc,60e562c887f6dfa8c47df104,2021-07-07_11h16.32.053,Simcolourproject_2stim_asymm_v5,2020.2.10,Win32,60,60e52e7cfedb1dae636df45f,,,,,,,,,2825,-74.33331648,-41.33334529,1,0,0,response5disk,,2,-14.33331469,-7.666677624,1,0,0,rectangle,-14.33331469,-7.666677624,1,0,0,-14.33331469,-7.666677624,1,0,0,1,25,185,110,1,,,,,,,,
,,,,,,,,,,,,,FF,,,,,,,,0.9496,,,,,,,,,,,,,,,,,,,,,,5d690f9a8d6d9d00010815cc,60e562c887f6dfa8c47df104,2021-07-07_11h16.32.053,Simcolourproject_2stim_asymm_v5,2020.2.10,Win32,60,60e52e7cfedb1dae636df45f,,,,,,,,,2167,-75.99998319,40.66665715,1,0,0,response7disk,,1,-1.3333143,4.99998942,1,0,0,rectangle,-1.3333143,4.99998942,1,0,0,-1.3333143,4.99998942,1,0,0,1,26,186,156,1,,,,,,,,
,,,,,,,,,,,,,FF,,,,,,,,2.7332,,,,,,,,,,,,,,,,,,,,,,5d690f9a8d6d9d00010815cc,60e562c887f6dfa8c47df104,2021-07-07_11h16.32.053,Simcolourproject_2stim_asymm_v5,2020.2.10,Win32,60,60e52e7cfedb1dae636df45f,,,,,,,,,3978,-82.33331671,-93.33334684,1,0,0,response5disk,,3,-3.999981046,7.99998951,1,0,0,rectangle,-3.999981046,7.99998951,1,0,0,-3.999981046,7.99998951,1,0,0,1,27,187,58,1,,,,,,,,
,,,,,,,,,,,,,FF,,,,,,,,1.1169,,,,,,,,,,,,,,,,,,,,,,5d690f9a8d6d9d00010815cc,60e562c887f6dfa8c47df104,2021-07-07_11h16.32.053,Simcolourproject_2stim_asymm_v5,2020.2.10,Win32,60,60e52e7cfedb1dae636df45f,,,,,,,,,3361,52.00002062,68.3333043,1,0,0,response1disk,,7,-6.999981135,-2.666677475,1,0,0,rectangle,-6.999981135,-2.666677475,1,0,0,-6.999981135,-2.666677475,1,0,0,1,28,188,96,1,,,,,,,,
,,,,,,,,,,,,,FF,,,,,,,,1.4669,,,,,,,,,,,,,,,,,,,,,,5d690f9a8d6d9d00010815cc,60e562c887f6dfa8c47df104,2021-07-07_11h16.32.053,Simcolourproject_2stim_asymm_v5,2020.2.10,Win32,60,60e52e7cfedb1dae636df45f,,,,,,,,,3137,-55.33331591,-24.66667813,1,0,0,response5disk,,2,-10.99998125,-1.666677445,1,0,0,rectangle,-10.99998125,-1.666677445,1,0,0,-10.99998125,-1.666677445,1,0,0,1,29,189,53,1,,,,,,,,
,,,,,,,,,,,,,FF,,,,,,,,0.9996,,,,,,,,,,,,,,,,,,,,,,5d690f9a8d6d9d00010815cc,60e562c887f6dfa8c47df104,2021-07-07_11h16.32.053,Simcolourproject_2stim_asymm_v5,2020.2.10,Win32,60,60e52e7cfedb1dae636df45f,,,,,,,,,1012,49.66668722,-15.00001118,1,0,0,response3disk,,5,1.000019103,0.666655958,1,0,0,rectangle,1.000019103,0.666655958,1,0,0,1.000019103,0.666655958,1,0,0,1,30,190,1,1,,,,,,,,
,,,,,,,,,,,,,FF,,,,,,,,1.4999,,,,,,,,,,,,,,,,,,,,,,5d690f9a8d6d9d00010815cc,60e562c887f6dfa8c47df104,2021-07-07_11h16.32.053,Simcolourproject_2stim_asymm_v5,2020.2.10,Win32,60,60e52e7cfedb1dae636df45f,,,,,,,,,27,69.66668782,46.33330364,1,0,0,response1disk,,6,2.66668582,0.333322614,1,0,0,rectangle,2.66668582,0.333322614,1,0,0,2.66668582,0.333322614,1,0,0,1,31,191,144,1,,,,,,,,
,,,,,,,,,,,,,FF,,,,,,,,1.8834,,,,,,,,,,,,,,,,,,,,,,5d690f9a8d6d9d00010815cc,60e562c887f6dfa8c47df104,2021-07-07_11h16.32.053,Simcolourproject_2stim_asymm_v5,2020.2.10,Win32,60,60e52e7cfedb1dae636df45f,,,,,,,,,1540,54.66668737,-14.00001115,1,0,0,response3disk,,5,-8.999981195,3.333322704,1,0,0,rectangle,-8.999981195,3.333322704,1,0,0,-8.999981195,3.333322704,1,0,0,1,32,192,94,1,,,,,,,,
,,,,,,,,,,,,,FF,,,,,,,,1.4165,,,,,,,,,,,,,,,,,,,,,,5d690f9a8d6d9d00010815cc,60e562c887f6dfa8c47df104,2021-07-07_11h16.32.053,Simcolourproject_2stim_asymm_v5,2020.2.10,Win32,60,60e52e7cfedb1dae636df45f,,,,,,,,,1219,-65.33331621,-36.33334514,1,0,0,response5disk,,2,-5.999981105,-11.66667774,1,0,0,rectangle,-5.999981105,-11.66667774,1,0,0,-5.999981105,-11.66667774,1,0,0,1,33,193,106,1,,,,,,,,
,,,,,,,,,,,,,FF,,,,,,,,1.1664,,,,,,,,,,,,,,,,,,,,,,5d690f9a8d6d9d00010815cc,60e562c887f6dfa8c47df104,2021-07-07_11h16.32.053,Simcolourproject_2stim_asymm_v5,2020.2.10,Win32,60,60e52e7cfedb1dae636df45f,,,,,,,,,1565,75.33335465,43.33330355,1,0,0,response1disk,,6,22.33339376,9.999989569,1,0,0,rectangle,22.33339376,9.999989569,1,0,0,22.33339376,9.999989569,1,0,0,1,34,194,126,1,,,,,,,,
,,,,,,,,,,,,,FF,,,,,,,,1.783,,,,,,,,,,,,,,,,,,,,,,5d690f9a8d6d9d00010815cc,60e562c887f6dfa8c47df104,2021-07-07_11h16.32.053,Simcolourproject_2stim_asymm_v5,2020.2.10,Win32,60,60e52e7cfedb1dae636df45f,,,,,,,,,1317,83.66668823,49.99999076,1,0,0,response1disk,,6,8.666685998,6.333322793,1,0,0,rectangle,8.666685998,6.333322793,1,0,0,8.666685998,6.333322793,1,0,0,1,35,195,133,1,,,,,,,,
,,,,,,,,,,,,,FF,,,,,,,,0.8837,,,,,,,,,,,,,,,,,,,,,,5d690f9a8d6d9d00010815cc,60e562c887f6dfa8c47df104,2021-07-07_11h16.32.053,Simcolourproject_2stim_asymm_v5,2020.2.10,Win32,60,60e52e7cfedb1dae636df45f,,,,,,,,,2233,-29.66660779,53.33330385,1,0,0,response7disk,,0,-7.333314478,4.666656077,1,0,0,rectangle,-33.66660791,82.99999174,1,0,0,-5.999981105,13.66665635,1,0,0,1,36,196,67,1,,response7disk_3,TRUE,0,0,"[319,7,7,283,107,128,31,278,254,197,65,45,34,44,291,145,80,24,3,10]",1.381,rectangle
,,,,,,,,,,,,,FF,,,,,,,,1.2338,,,,,,,,,,,,,,,,,,,,,,5d690f9a8d6d9d00010815cc,60e562c887f6dfa8c47df104,2021-07-07_11h16.32.053,Simcolourproject_2stim_asymm_v5,2020.2.10,Win32,60,60e52e7cfedb1dae636df45f,,,,,,,,,1550,52.33335397,-37.00001183,1,0,0,response3disk,,5,4.666685879,-3.000010818,1,0,0,rectangle,4.666685879,-3.000010818,1,0,0,4.666685879,-3.000010818,1,0,0,1,37,197,57,1,,,,,,,,
,,,,,,,,,,,,,FF,,,,,,,,1.1499,,,,,,,,,,,,,,,,,,,,,,5d690f9a8d6d9d00010815cc,60e562c887f6dfa8c47df104,2021-07-07_11h16.32.053,Simcolourproject_2stim_asymm_v5,2020.2.10,Win32,60,60e52e7cfedb1dae636df45f,,,,,,,,,3242,55.33335406,71.99999142,1,0,0,response1disk,,7,-0.666606923,2.333322674,1,0,0,rectangle,-0.666606923,2.333322674,1,0,0,-0.666606923,2.333322674,1,0,0,1,38,198,87,1,,,,,,,,
,,,,,,,,,,,,,FF,,,,,,,,0.9332,,,,,,,,,,,,,,,,,,,,,,5d690f9a8d6d9d00010815cc,60e562c887f6dfa8c47df104,2021-07-07_11h16.32.053,Simcolourproject_2stim_asymm_v5,2020.2.10,Win32,60,60e52e7cfedb1dae636df45f,,,,,,,,,357,56.00002074,78.66665828,1,0,0,response1disk,,7,-3.999981046,-5.666677564,1,0,0,rectangle,-3.999981046,-5.666677564,1,0,0,-3.999981046,-5.666677564,1,0,0,1,39,199,42,1,,,,,,,,
,,,,,,,,,,,,,FF,,,,,,,,1.2009,,,,,,,,,,,,,,,,,,,,,,5d690f9a8d6d9d00010815cc,60e562c887f6dfa8c47df104,2021-07-07_11h16.32.053,Simcolourproject_2stim_asymm_v5,2020.2.10,Win32,60,60e52e7cfedb1dae636df45f,,,,,,,,,2243,-38.66660806,-52.66667897,1,0,0,response5disk,,3,-7.666607132,-6.333344251,1,0,0,rectangle,-7.666607132,-6.333344251,1,0,0,-7.666607132,-6.333344251,1,0,0,1,40,200,66,1,,,,,,,,
,,,,,,,,,,,,,FF,,,,,,,,0.8336,,,,,,,,,,,,,,,,,,,,,,5d690f9a8d6d9d00010815cc,60e562c887f6dfa8c47df104,2021-07-07_11h16.32.053,Simcolourproject_2stim_asymm_v5,2020.2.10,Win32,60,60e52e7cfedb1dae636df45f,,,,,,,,,1409,51.00002059,85.66665849,1,0,0,response1disk,,7,1.333393137,-0.333344072,1,0,0,rectangle,1.333393137,-0.333344072,1,0,0,1.333393137,-0.333344072,1,0,0,1,41,201,154,1,,,,,,,,
,,,,,,,,,,,,,FF,,,,,,,,1.1003,,,,,,,,,,,,,,,,,,,,,,5d690f9a8d6d9d00010815cc,60e562c887f6dfa8c47df104,2021-07-07_11h16.32.053,Simcolourproject_2stim_asymm_v5,2020.2.10,Win32,60,60e52e7cfedb1dae636df45f,,,,,,,,,3150,-62.66660877,-34.33334509,1,0,0,response5disk,,2,-16.99998143,-10.66667771,1,0,0,rectangle,-16.99998143,-10.66667771,1,0,0,-16.99998143,-10.66667771,1,0,0,1,42,202,86,1,,,,,,,,
,,,,,,,,,,,,,FF,,,,,,,,1.383,,,,,,,,,,,,,,,,,,,,,,5d690f9a8d6d9d00010815cc,60e562c887f6dfa8c47df104,2021-07-07_11h16.32.053,Simcolourproject_2stim_asymm_v5,2020.2.10,Win32,60,60e52e7cfedb1dae636df45f,,,,,,,,,3638,51.66668728,-55.66667905,1,0,0,response3disk,,4,11.0000194,-8.333344311,1,0,0,rectangle,11.0000194,-8.333344311,1,0,0,11.0000194,-8.333344311,1,0,0,1,43,203,79,1,,,,,,,,
,,,,,,,,,,,,,FF,,,,,,,,1.0662,,,,,,,,,,,,,,,,,,,,,,5d690f9a8d6d9d00010815cc,60e562c887f6dfa8c47df104,2021-07-07_11h16.32.053,Simcolourproject_2stim_asymm_v5,2020.2.10,Win32,60,60e52e7cfedb1dae636df45f,,,,,,,,,1229,-81.66660934,-32.33334503,1,0,0,response5disk,,2,-9.666607191,-9.666677684,1,0,0,rectangle,-9.666607191,-9.666677684,1,0,0,-9.666607191,-9.666677684,1,0,0,1,44,204,29,1,,,,,,,,
,,,,,,,,,,,,,FF,,,,,,,,1.0668,,,,,,,,,,,,,,,,,,,,,,5d690f9a8d6d9d00010815cc,60e562c887f6dfa8c47df104,2021-07-07_11h16.32.053,Simcolourproject_2stim_asymm_v5,2020.2.10,Win32,60,60e52e7cfedb1dae636df45f,,,,,,,,,1598,-100.6666099,-36.66667849,1,0,0,response5disk,,2,-10.33331457,-1.000010759,1,0,0,rectangle,-10.33331457,-1.000010759,1,0,0,-10.33331457,-1.000010759,1,0,0,1,45,205,27,1,,,,,,,,
,,,,,,,,,,,,,FF,,,,,,,,1.0036,,,,,,,,,,,,,,,,,,,,,,5d690f9a8d6d9d00010815cc,60e562c887f6dfa8c47df104,2021-07-07_11h16.32.053,Simcolourproject_2stim_asymm_v5,2020.2.10,Win32,60,60e52e7cfedb1dae636df45f,,,,,,,,,2673,-53.99998254,-51.33334559,1,0,0,response5disk,,2,1.66668579,-9.000010997,1,0,0,rectangle,1.66668579,-9.000010997,1,0,0,1.66668579,-9.000010997,1,0,0,1,46,206,51,1,,,,,,,,
,,,,,,,,,,,,,FF,,,,,,,,1.6164,,,,,,,,,,,,,,,,,,,,,,5d690f9a8d6d9d00010815cc,60e562c887f6dfa8c47df104,2021-07-07_11h16.32.053,Simcolourproject_2stim_asymm_v5,2020.2.10,Win32,60,60e52e7cfedb1dae636df45f,,,,,,,,,1026,77.00002137,-49.00001219,1,0,0,response3disk,,5,-7.999981165,1.666655988,1,0,0,rectangle,-7.999981165,1.666655988,1,0,0,-7.999981165,1.666655988,1,0,0,1,47,207,64,1,,,,,,,,
,,,,,,,,,,,,,FF,,,,,,,,0.9034,,,,,,,,,,,,,,,,,,,,,,5d690f9a8d6d9d00010815cc,60e562c887f6dfa8c47df104,2021-07-07_11h16.32.053,Simcolourproject_2stim_asymm_v5,2020.2.10,Win32,60,60e52e7cfedb1dae636df45f,,,,,,,,,1118,77.66668805,30.9999902,1,0,0,response1disk,,6,21.0000197,6.666656137,1,0,0,rectangle,21.0000197,6.666656137,1,0,0,21.0000197,6.666656137,1,0,0,1,48,208,45,1,,,,,,,,
,,,,,,,,,,,,,FF,,,,,,,,0.7665,,,,,,,,,,,,,,,,,,,,,,5d690f9a8d6d9d00010815cc,60e562c887f6dfa8c47df104,2021-07-07_11h16.32.053,Simcolourproject_2stim_asymm_v5,2020.2.10,Win32,60,60e52e7cfedb1dae636df45f,,,,,,,,,4017,47.00002047,71.33330439,1,0,0,response1disk,,7,-6.333314449,-8.000010967,1,0,0,rectangle,-6.333314449,-8.000010967,1,0,0,-6.333314449,-8.000010967,1,0,0,1,49,209,138,1,,,,,,,,
,,,,,,,,,,,,,FF,,,,,,,,0.7668,,,,,,,,,,,,,,,,,,,,,,5d690f9a8d6d9d00010815cc,60e562c887f6dfa8c47df104,2021-07-07_11h16.32.053,Simcolourproject_2stim_asymm_v5,2020.2.10,Win32,60,60e52e7cfedb1dae636df45f,,,,,,,,,3354,18.6666863,59.99999106,1,0,0,response1disk,,7,-12.33331463,-1.333344102,1,0,0,rectangle,-12.33331463,-1.333344102,1,0,0,-12.33331463,-1.333344102,1,0,0,1,50,210,74,1,,,,,,,,
,,,,,,,,,,,,,FF,,,,,,,,0.9836,,,,,,,,,,,,,,,,,,,,,,5d690f9a8d6d9d00010815cc,60e562c887f6dfa8c47df104,2021-07-07_11h16.32.053,Simcolourproject_2stim_asymm_v5,2020.2.10,Win32,60,60e52e7cfedb1dae636df45f,,,,,,,,,2370,-50.99998245,-61.33334589,1,0,0,response5disk,,3,-1.666606953,2.333322674,1,0,0,rectangle,-1.666606953,2.333322674,1,0,0,-1.666606953,2.333322674,1,0,0,1,51,211,97,1,,,,,,,,
,,,,,,,,,,,,,FF,,,,,,,,1.1497,,,,,,,,,,,,,,,,,,,,,,5d690f9a8d6d9d00010815cc,60e562c887f6dfa8c47df104,2021-07-07_11h16.32.053,Simcolourproject_2stim_asymm_v5,2020.2.10,Win32,60,60e52e7cfedb1dae636df45f,,,,,,,,,836,59.66668752,29.33330313,1,0,0,response1disk,,6,12.33339346,9.666656226,1,0,0,rectangle,12.33339346,9.666656226,1,0,0,12.33339346,9.666656226,1,0,0,1,52,212,69,1,,,,,,,,
,,,,,,,,,,,,,FF,,,,,,,,1.1334,,,,,,,,,,,,,,,,,,,,,,5d690f9a8d6d9d00010815cc,60e562c887f6dfa8c47df104,2021-07-07_11h16.32.053,Simcolourproject_2stim_asymm_v5,2020.2.10,Win32,60,60e52e7cfedb1dae636df45f,,,,,,,,,1902,28.33339394,-71.66667953,1,0,0,response3disk,,4,-4.666607042,-2.666677475,1,0,0,rectangle,-4.666607042,-2.666677475,1,0,0,-4.666607042,-2.666677475,1,0,0,1,53,213,16,1,,,,,,,,
,,,,,,,,,,,,,FF,,,,,,,,1.9666,,,,,,,,,,,,,,,,,,,,,,5d690f9a8d6d9d00010815cc,60e562c887f6dfa8c47df104,2021-07-07_11h16.32.053,Simcolourproject_2stim_asymm_v5,2020.2.10,Win32,60,60e52e7cfedb1dae636df45f,,,,,,,,,424,91.33335513,-51.66667894,1,0,0,response3disk,,5,10.00001937,-11.66667774,1,0,0,rectangle,10.00001937,-11.66667774,1,0,0,10.00001937,-11.66667774,1,0,0,1,54,214,59,1,,,,,,,,
,,,,,,,,,,,,,FF,,,,,,,,0.9167,,,,,,,,,,,,,,,,,,,,,,5d690f9a8d6d9d00010815cc,60e562c887f6dfa8c47df104,2021-07-07_11h16.32.053,Simcolourproject_2stim_asymm_v5,2020.2.10,Win32,60,60e52e7cfedb1dae636df45f,,,,,,,,,30,27.33339391,50.33330376,1,0,0,response1disk,,7,-2.333314329,5.666656107,1,0,0,rectangle,-2.333314329,5.666656107,1,0,0,-2.333314329,5.666656107,1,0,0,1,55,215,158,1,,,,,,,,
,,,,,,,,,,,,,FF,,,,,,,,1.1501,,,,,,,,,,,,,,,,,,,,,,5d690f9a8d6d9d00010815cc,60e562c887f6dfa8c47df104,2021-07-07_11h16.32.053,Simcolourproject_2stim_asymm_v5,2020.2.10,Win32,60,60e52e7cfedb1dae636df45f,,,,,,,,,4130,-54.33331588,-27.66667822,1,0,0,response5disk,,2,-9.666607191,-9.000010997,1,0,0,rectangle,-9.666607191,-9.000010997,1,0,0,-9.666607191,-9.000010997,1,0,0,1,56,216,72,1,,,,,,,,
,,,,,,,,,,,,,FF,,,,,,,,1.9496,,,,,,,,,,,,,,,,,,,,,,5d690f9a8d6d9d00010815cc,60e562c887f6dfa8c47df104,2021-07-07_11h16.32.053,Simcolourproject_2stim_asymm_v5,2020.2.10,Win32,60,60e52e7cfedb1dae636df45f,,,,,,,,,4151,-103.66661,-66.33334604,1,0,0,response5disk,,2,5.333393256,9.666656226,1,0,0,rectangle,5.333393256,9.666656226,1,0,0,5.333393256,9.666656226,1,0,0,1,57,217,85,1,,,,,,,,
,,,,,,,,,,,,,FF,,,,,,,,1.0498,,,,,,,,,,,,,,,,,,,,,,5d690f9a8d6d9d00010815cc,60e562c887f6dfa8c47df104,2021-07-07_11h16.32.053,Simcolourproject_2stim_asymm_v5,2020.2.10,Win32,60,60e52e7cfedb1dae636df45f,,,,,,,,,2368,-102.3333173,-58.66667914,1,0,0,response5disk,,2,-18.66660746,-7.333344281,1,0,0,rectangle,-18.66660746,-7.333344281,1,0,0,-18.66660746,-7.333344281,1,0,0,1,58,218,13,1,,,,,,,,
,,,,,,,,,,,,,FF,,,,,,,,1.1333,,,,,,,,,,,,,,,,,,,,,,5d690f9a8d6d9d00010815cc,60e562c887f6dfa8c47df104,2021-07-07_11h16.32.053,Simcolourproject_2stim_asymm_v5,2020.2.10,Win32,60,60e52e7cfedb1dae636df45f,,,,,,,,,1543,-41.66660814,-70.00001281,1,0,0,response5disk,,3,-8.666607161,-4.333344191,1,0,0,rectangle,-8.666607161,-4.333344191,1,0,0,-8.666607161,-4.333344191,1,0,0,1,59,219,137,1,,,,,,,,
,,,,,,,,,,,,,FF,,,,,,,,1.2167,,,,,,,,,,,,,,,,,,,,,,5d690f9a8d6d9d00010815cc,60e562c887f6dfa8c47df104,2021-07-07_11h16.32.053,Simcolourproject_2stim_asymm_v5,2020.2.10,Win32,60,60e52e7cfedb1dae636df45f,,,,,,,,,2782,-55.33331591,74.66665816,1,0,0,response7disk,,0,-8.999981195,8.333322853,1,0,0,rectangle,-8.999981195,8.333322853,1,0,0,-8.999981195,8.333322853,1,0,0,1,60,220,140,1,,,,,,,,
,,,,,,,,,,,,,FF,,,,,,,,1.0139,,,,,,,,,,,,,,,,,,,,,,5d690f9a8d6d9d00010815cc,60e562c887f6dfa8c47df104,2021-07-07_11h16.32.053,Simcolourproject_2stim_asymm_v5,2020.2.10,Win32,60,60e52e7cfedb1dae636df45f,,,,,,,,,4215,46.00002044,58.66665769,1,0,0,response1disk,,7,12.00001943,-6.333344251,1,0,0,rectangle,12.00001943,-6.333344251,1,0,0,12.00001943,-6.333344251,1,0,0,1,61,221,103,1,,,,,,,,
,,,,,,,,,,,,,FF,,,,,,,,0.8186,,,,,,,,,,,,,,,,,,,,,,5d690f9a8d6d9d00010815cc,60e562c887f6dfa8c47df104,2021-07-07_11h16.32.053,Simcolourproject_2stim_asymm_v5,2020.2.10,Win32,60,60e52e7cfedb1dae636df45f,,,,,,,,,3143,42.33339436,19.33330284,1,0,0,response1disk,,6,-17.33331478,-14.00001115,1,0,0,rectangle,-17.33331478,-14.00001115,1,0,0,-17.33331478,-14.00001115,1,0,0,1,62,222,20,1,,,,,,,,
,,,,,,,,,,,,,FF,,,,,,,,0.9999,,,,,,,,,,,,,,,,,,,,,,5d690f9a8d6d9d00010815cc,60e562c887f6dfa8c47df104,2021-07-07_11h16.32.053,Simcolourproject_2stim_asymm_v5,2020.2.10,Win32,60,60e52e7cfedb1dae636df45f,,,,,,,,,1355,44.66668707,74.99999151,1,0,0,response1disk,,7,5.666685909,7.333322823,1,0,0,rectangle,5.666685909,7.333322823,1,0,0,5.666685909,7.333322823,1,0,0,1,63,223,4,1,,,,,,,,
,,,,,,,,,,,,,FF,,,,,,,,2.0167,,,,,,,,,,,,,,,,,,,,,,5d690f9a8d6d9d00010815cc,60e562c887f6dfa8c47df104,2021-07-07_11h16.32.053,Simcolourproject_2stim_asymm_v5,2020.2.10,Win32,60,60e52e7cfedb1dae636df45f,,,,,,,,,4117,35.00002012,-95.3333469,1,0,0,response3disk,,4,-2.333314329,12.66665632,1,0,0,rectangle,-2.333314329,12.66665632,1,0,0,-2.333314329,12.66665632,1,0,0,1,64,224,120,1,,,,,,,,
,,,,,,,,,,,,,FF,,,,,,,,1.0665,,,,,,,,,,,,,,,,,,,,,,5d690f9a8d6d9d00010815cc,60e562c887f6dfa8c47df104,2021-07-07_11h16.32.053,Simcolourproject_2stim_asymm_v5,2020.2.10,Win32,60,60e52e7cfedb1dae636df45f,,,,,,,,,2799,56.33335409,46.33330364,1,0,0,response1disk,,6,-1.666606953,9.666656226,1,0,0,rectangle,-1.666606953,9.666656226,1,0,0,-1.666606953,9.666656226,1,0,0,1,65,225,21,1,,,,,,,,
,,,,,,,,,,,,,FF,,,,,,,,1.1166,,,,,,,,,,,,,,,,,,,,,,5d690f9a8d6d9d00010815cc,60e562c887f6dfa8c47df104,2021-07-07_11h16.32.053,Simcolourproject_2stim_asymm_v5,2020.2.10,Win32,60,60e52e7cfedb1dae636df45f,,,,,,,,,3139,-80.99998334,-50.33334556,1,0,0,response5disk,,2,-2.666606983,4.666656077,1,0,0,rectangle,-2.666606983,4.666656077,1,0,0,-2.666606983,4.666656077,1,0,0,1,66,226,104,1,,,,,,,,
,,,,,,,,,,,,,FF,,,,,,,,1.2814,,,,,,,,,,,,,,,,,,,,,,5d690f9a8d6d9d00010815cc,60e562c887f6dfa8c47df104,2021-07-07_11h16.32.053,Simcolourproject_2stim_asymm_v5,2020.2.10,Win32,60,60e52e7cfedb1dae636df45f,,,,,,,,,149,14.00001949,40.99999049,1,0,0,response1disk,,7,3.333393196,11.33332294,1,0,0,rectangle,3.333393196,11.33332294,1,0,0,3.333393196,11.33332294,1,0,0,1,67,227,19,1,,,,,,,,
,,,,,,,,,,,,,FF,,,,,,,,1.1668,,,,,,,,,,,,,,,,,,,,,,5d690f9a8d6d9d00010815cc,60e562c887f6dfa8c47df104,2021-07-07_11h16.32.053,Simcolourproject_2stim_asymm_v5,2020.2.10,Win32,60,60e52e7cfedb1dae636df45f,,,,,,,,,1389,68.33335444,-29.33334494,1,0,0,response3disk,,5,7.333393315,-3.666677505,1,0,0,rectangle,7.333393315,-3.666677505,1,0,0,7.333393315,-3.666677505,1,0,0,1,68,228,68,1,,,,,,,,
,,,,,,,,,,,,,FF,,,,,,,,1.5161,,,,,,,,,,,,,,,,,,,,,,5d690f9a8d6d9d00010815cc,60e562c887f6dfa8c47df104,2021-07-07_11h16.32.053,Simcolourproject_2stim_asymm_v5,2020.2.10,Win32,60,60e52e7cfedb1dae636df45f,,,,,,,,,945,70.66668785,26.66665673,1,0,0,response1disk,,6,9.000019342,-1.333344102,1,0,0,rectangle,9.000019342,-1.333344102,1,0,0,9.000019342,-1.333344102,1,0,0,1,69,229,36,1,,,,,,,,
,,,,,,,,,,,,,FF,,,,,,,,1.2503,,,,,,,,,,,,,,,,,,,,,,5d690f9a8d6d9d00010815cc,60e562c887f6dfa8c47df104,2021-07-07_11h16.32.053,Simcolourproject_2stim_asymm_v5,2020.2.10,Win32,60,60e52e7cfedb1dae636df45f,,,,,,,,,1156,-45.9999823,-48.66667885,1,0,0,response5disk,,3,-1.666606953,-2.000010788,1,0,0,rectangle,-1.666606953,-2.000010788,1,0,0,-1.666606953,-2.000010788,1,0,0,1,70,230,147,1,,,,,,,,
,,,,,,,,,,,,,FF,,,,,,,,0.9335,,,,,,,,,,,,,,,,,,,,,,5d690f9a8d6d9d00010815cc,60e562c887f6dfa8c47df104,2021-07-07_11h16.32.053,Simcolourproject_2stim_asymm_v5,2020.2.10,Win32,60,60e52e7cfedb1dae636df45f,,,,,,,,,3090,-61.66660874,-17.00001124,1,0,0,response5disk,,2,-24.33331499,-5.000010878,1,0,0,rectangle,-24.33331499,-5.000010878,1,0,0,-24.33331499,-5.000010878,1,0,0,1,71,231,112,1,,,,,,,,
,,,,,,,,,,,,,FF,,,,,,,,1.2165,,,,,,,,,,,,,,,,,,,,,,5d690f9a8d6d9d00010815cc,60e562c887f6dfa8c47df104,2021-07-07_11h16.32.053,Simcolourproject_2stim_asymm_v5,2020.2.10,Win32,60,60e52e7cfedb1dae636df45f,,,,,,,,,1698,-27.33331507,-62.66667926,1,0,0,response5disk,,3,24.00001979,6.666656137,1,0,0,rectangle,24.00001979,6.666656137,1,0,0,24.00001979,6.666656137,1,0,0,1,72,232,44,1,,,,,,,,
,,,,,,,,,,,,,FF,,,,,,,,1.2883,,,,,,,,,,,,,,,,,,,,,,5d690f9a8d6d9d00010815cc,60e562c887f6dfa8c47df104,2021-07-07_11h16.32.053,Simcolourproject_2stim_asymm_v5,2020.2.10,Win32,60,60e52e7cfedb1dae636df45f,,,,,,,,,199,39.33339427,-80.6666798,1,0,0,response3disk,,4,-9.999981225,6.99998948,1,0,0,rectangle,-9.999981225,6.99998948,1,0,0,-9.999981225,6.99998948,1,0,0,1,73,233,47,1,,,,,,,,
,,,,,,,,,,,,,FF,,,,,,,,1.7501,,,,,,,,,,,,,,,,,,,,,,5d690f9a8d6d9d00010815cc,60e562c887f6dfa8c47df104,2021-07-07_11h16.32.053,Simcolourproject_2stim_asymm_v5,2020.2.10,Win32,60,60e52e7cfedb1dae636df45f,,,,,,,,,3865,87.66668835,-43.6666787,1,0,0,response3disk,,5,19.00001964,-5.000010878,1,0,0,rectangle,19.00001964,-5.000010878,1,0,0,19.00001964,-5.000010878,1,0,0,1,74,234,43,1,,,,,,,,
,,,,,,,,,,,,,FF,,,,,,,,0.9191,,,,,,,,,,,,,,,,,,,,,,5d690f9a8d6d9d00010815cc,60e562c887f6dfa8c47df104,2021-07-07_11h16.32.053,Simcolourproject_2stim_asymm_v5,2020.2.10,Win32,60,60e52e7cfedb1dae636df45f,,,,,,,,,478,27.00001988,66.66665792,1,0,0,response1disk,,7,2.000019133,-0.666677415,1,0,0,rectangle,2.000019133,-0.666677415,1,0,0,2.000019133,-0.666677415,1,0,0,1,75,235,91,1,,,,,,,,
,,,,,,,,,,,,,FF,,,,,,,,0.9192,,,,,,,,,,,,,,,,,,,,,,5d690f9a8d6d9d00010815cc,60e562c887f6dfa8c47df104,2021-07-07_11h16.32.053,Simcolourproject_2stim_asymm_v5,2020.2.10,Win32,60,60e52e7cfedb1dae636df45f,,,,,,,,,2328,40.3333943,75.66665819,1,0,0,response1disk,,7,-7.333314478,-1.333344102,1,0,0,rectangle,-7.333314478,-1.333344102,1,0,0,-7.333314478,-1.333344102,1,0,0,1,76,236,25,1,,,,,,,,
,,,,,,,,,,,,,FF,,,,,,,,1.35,,,,,,,,,,,,,,,,,,,,,,5d690f9a8d6d9d00010815cc,60e562c887f6dfa8c47df104,2021-07-07_11h16.32.053,Simcolourproject_2stim_asymm_v5,2020.2.10,Win32,60,60e52e7cfedb1dae636df45f,,,,,,,,,2770,-78.33331659,-93.33334684,1,0,0,response5disk,,3,-7.333314478,4.666656077,1,0,0,rectangle,-7.333314478,4.666656077,1,0,0,-7.333314478,4.666656077,1,0,0,1,77,237,131,1,,,,,,,,
,,,,,,,,,,,,,FF,,,,,,,,1.1835,,,,,,,,,,,,,,,,,,,,,,5d690f9a8d6d9d00010815cc,60e562c887f6dfa8c47df104,2021-07-07_11h16.32.053,Simcolourproject_2stim_asymm_v5,2020.2.10,Win32,60,60e52e7cfedb1dae636df45f,,,,,,,,,3157,-79.66660928,-48.66667885,1,0,0,response5disk,,2,-6.333314449,-1.000010759,1,0,0,rectangle,-6.333314449,-1.000010759,1,0,0,-6.333314449,-1.000010759,1,0,0,1,78,238,18,1,,,,,,,,
,,,,,,,,,,,,,FF,,,,,,,,1.3328,,,,,,,,,,,,,,,,,,,,,,5d690f9a8d6d9d00010815cc,60e562c887f6dfa8c47df104,2021-07-07_11h16.32.053,Simcolourproject_2stim_asymm_v5,2020.2.10,Win32,60,60e52e7cfedb1dae636df45f,,,,,,,,,3210,-54.99998257,-21.00001135,1,0,0,response5disk,,2,-13.99998134,1.999989331,1,0,0,rectangle,-13.99998134,1.999989331,1,0,0,-13.99998134,1.999989331,1,0,0,1,79,239,71,1,,,,,,,,
,,,,,,,,,,,,,FF,,,,,,,,1.2826,,,,,,,,,,,,,,,,,,,,,,5d690f9a8d6d9d00010815cc,60e562c887f6dfa8c47df104,2021-07-07_11h16.32.053,Simcolourproject_2stim_asymm_v5,2020.2.10,Win32,60,60e52e7cfedb1dae636df45f,,,,,,,,,1081,61.66668758,-22.66667807,1,0,0,response3disk,,5,8.666685998,-0.333344072,1,0,0,rectangle,8.666685998,-0.333344072,1,0,0,8.666685998,-0.333344072,1,0,0,1,80,240,70,1,,,,,,,,
,,,,,,,,,,,,,FF,,,,,,,,0.9161,,,,,,,,,,,,,,,,,,,,,,5d690f9a8d6d9d00010815cc,60e562c887f6dfa8c47df104,2021-07-07_11h16.32.053,Simcolourproject_2stim_asymm_v5,2020.2.10,Win32,60,60e52e7cfedb1dae636df45f,,,,,,,,,2606,-73.99998313,35.33330331,1,0,0,response7disk,,1,-14.99998137,9.999989569,1,0,0,rectangle,-14.99998137,9.999989569,1,0,0,-14.99998137,9.999989569,1,0,0,1,81,241,129,1,,,,,,,,
,,,,,,,,,,,,,FF,,,,,,,,1.1502,,,,,,,,,,,,,,,,,,,,,,5d690f9a8d6d9d00010815cc,60e562c887f6dfa8c47df104,2021-07-07_11h16.32.053,Simcolourproject_2stim_asymm_v5,2020.2.10,Win32,60,60e52e7cfedb1dae636df45f,,,,,,,,,646,-64.99998286,-64.00001264,1,0,0,response5disk,,2,-12.99998131,-8.666677654,1,0,0,rectangle,-12.99998131,-8.666677654,1,0,0,-12.99998131,-8.666677654,1,0,0,1,82,242,82,1,,,,,,,,
,,,,,,,,,,,,,FF,,,,,,,,1.3664,,,,,,,,,,,,,,,,,,,,,,5d690f9a8d6d9d00010815cc,60e562c887f6dfa8c47df104,2021-07-07_11h16.32.053,Simcolourproject_2stim_asymm_v5,2020.2.10,Win32,60,60e52e7cfedb1dae636df45f,,,,,,,,,2344,59.66668752,89.66665861,1,0,0,response1disk,,7,3.333393196,-2.000010788,1,0,0,rectangle,3.333393196,-2.000010788,1,0,0,3.333393196,-2.000010788,1,0,0,1,83,243,145,1,,,,,,,,
