key_resp.keys,key_resp.rt,key_resp_14.keys,key_resp_14.rt,key_resp_15.keys,key_resp_15.rt,key_resp_17.keys,key_resp_17.rt,key_resp_9.keys,key_resp_9.rt,key_resp_10.keys,key_resp_10.rt,practice_comparison,Ecc,mouse_5.x,mouse_5.y,mouse_5.leftButton,mouse_5.midButton,mouse_5.rightButton,mouse_5.clicked_name,pracsimilarity,response_time,mouse_10.x,mouse_10.y,mouse_10.leftButton,mouse_10.midButton,mouse_10.rightButton,mouse_10.clicked_name,mouse_7.x,mouse_7.y,mouse_7.leftButton,mouse_7.midButton,mouse_7.rightButton,mouse_6.x,mouse_6.y,mouse_6.leftButton,mouse_6.midButton,mouse_6.rightButton,duringprac.thisRepN,duringprac.thisTrialN,duringprac.thisN,duringprac.thisIndex,duringprac.ran,participant,session,date,expName,psychopyVersion,OS,frameRate,study_id,mouse_7.clicked_name,catchpracsimilarity,catch_response_time,catchnumberprac,catchtrialorderprac,mouse_6.clicked_name,key_resp_22.keys,key_resp_22.rt,realcomparison,mouse.x,mouse.y,mouse.leftButton,mouse.midButton,mouse.rightButton,mouse.clicked_name,Colour2,similarity,mouse_2.x,mouse_2.y,mouse_2.leftButton,mouse_2.midButton,mouse_2.rightButton,mouse_2.clicked_name,mouse_3.x,mouse_3.y,mouse_3.leftButton,mouse_3.midButton,mouse_3.rightButton,mouse_3.clicked_name,catchornah,catchsimilarity,catchnumber,catchtrialorder,catchRT,mouse_11.x,mouse_11.y,mouse_11.leftButton,mouse_11.midButton,mouse_11.rightButton,mouse_11.clicked_name,trials_2.thisRepN,trials_2.thisTrialN,trials_2.thisN,trials_2.thisIndex,trials_2.ran,Colour1
space,2.0207,space,13.7377,space,16.4481,space,8.2842,space,1.1847,space,3.7095,146,FF,134,75,1,0,0,response1disk_5,6,3.4504,-18,-3,1,0,0,rectangle_8,-18,-3,1,0,0,-18,-3,1,0,0,0,0,0,5,1,5da3501124681c0015e6f56c,60e56392ceb7aeb9d000fd93,2021-07-07_10h20.48.086,Simcolourproject_2stim_asymm_v5,2020.2.10,Win32,60,60e52e7cfedb1dae636df45f,,,,,,,,,,,,,,,,,,,,,,,,,,,,,,,,,,,,,,,,,,,,,,
,,,,,,,,,,,,84,PF,127,-48,1,0,0,response3disk_5,5,3.4504,-2,7,1,0,0,rectangle_8,139,-61,1,0,0,2,-10,1,0,0,0,1,1,4,1,5da3501124681c0015e6f56c,60e56392ceb7aeb9d000fd93,2021-07-07_10h20.48.086,Simcolourproject_2stim_asymm_v5,2020.2.10,Win32,60,60e52e7cfedb1dae636df45f,response3disk_7,5,3.0176,5,"[2,5]",rectangle_4,,,,,,,,,,,,,,,,,,,,,,,,,,,,,,,,,,,,,,,,
,,,,,,,,,,,,16,PF,102,-50,1,0,0,response3disk_5,5,2.6496,-14,6,1,0,0,rectangle_8,-14,6,1,0,0,-14,6,1,0,0,0,2,2,2,1,5da3501124681c0015e6f56c,60e56392ceb7aeb9d000fd93,2021-07-07_10h20.48.086,Simcolourproject_2stim_asymm_v5,2020.2.10,Win32,60,60e52e7cfedb1dae636df45f,,,,,,,,,,,,,,,,,,,,,,,,,,,,,,,,,,,,,,,,,,,,,,
,,,,,,,,,,,,104,PF,-58,128,1,0,0,response7disk_5,0,1.9503,18,-2,1,0,0,rectangle_8,18,-2,1,0,0,18,-2,1,0,0,0,3,3,1,1,5da3501124681c0015e6f56c,60e56392ceb7aeb9d000fd93,2021-07-07_10h20.48.086,Simcolourproject_2stim_asymm_v5,2020.2.10,Win32,60,60e52e7cfedb1dae636df45f,,,,,,,,,,,,,,,,,,,,,,,,,,,,,,,,,,,,,,,,,,,,,,
,,,,,,,,,,,,52,FF,120,44,1,0,0,response1disk_5,6,3.5995,-3,-9,1,0,0,rectangle_8,125,-60,1,0,0,3,2,1,0,0,0,4,4,3,1,5da3501124681c0015e6f56c,60e56392ceb7aeb9d000fd93,2021-07-07_10h20.48.086,Simcolourproject_2stim_asymm_v5,2020.2.10,Win32,60,60e52e7cfedb1dae636df45f,response3disk_7,5,3.333,5,"[2,5]",rectangle_4,,,,,,,,,,,,,,,,,,,,,,,,,,,,,,,,,,,,,,,,
,,,,,,,,,,,,114,FF,-46,-86,1,0,0,response5disk_5,3,1.6162,20,-1,1,0,0,rectangle_8,20,-1,1,0,0,20,-1,1,0,0,0,5,5,0,1,5da3501124681c0015e6f56c,60e56392ceb7aeb9d000fd93,2021-07-07_10h20.48.086,Simcolourproject_2stim_asymm_v5,2020.2.10,Win32,60,60e52e7cfedb1dae636df45f,,,,,,,,,,,,,,,,,,,,,,,,,,,,,,,,,,,,,,,,,,,,,,
,,,,,,,,,,,,118,PF,101,46,1,0,0,response1disk_5,6,1.3995,-3,-12,1,0,0,rectangle_8,-3,-12,1,0,0,-3,-12,1,0,0,0,6,6,6,1,5da3501124681c0015e6f56c,60e56392ceb7aeb9d000fd93,2021-07-07_10h20.48.086,Simcolourproject_2stim_asymm_v5,2020.2.10,Win32,60,60e52e7cfedb1dae636df45f,,,,,,,,,,,,,,,,,,,,,,,,,,,,,,,,,,,,,,,,,,,,,,
,,,,,,,,,,,,,FF,,,,,,,,2.4164,,,,,,,,,,,,,,,,,,,,,,5da3501124681c0015e6f56c,60e56392ceb7aeb9d000fd93,2021-07-07_10h20.48.086,Simcolourproject_2stim_asymm_v5,2020.2.10,Win32,60,60e52e7cfedb1dae636df45f,,,,,,,space,3.9038,4231,114,-40,1,0,0,response3disk,,5,17,8,1,0,0,rectangle,-38,-138,1,0,0,response5disk_3,TRUE,3,3,"[282,127,39,1,187,181,207,296,241,306,52,277,226,279,263,52,33,206,144,266]",1.95,13,7,1,0,0,rectangle,0,0,0,94,1,
,,,,,,,,,,,,,FF,,,,,,,,1.4997,,,,,,,,,,,,,,,,,,,,,,5da3501124681c0015e6f56c,60e56392ceb7aeb9d000fd93,2021-07-07_10h20.48.086,Simcolourproject_2stim_asymm_v5,2020.2.10,Win32,60,60e52e7cfedb1dae636df45f,,,,,,,,,3944,-53,-94,1,0,0,response5disk,,3,-7,-8,1,0,0,rectangle,-7,-8,1,0,0,,,,,,,-7,-8,1,0,0,,0,1,1,149,1,
,,,,,,,,,,,,,FF,,,,,,,,2.2496,,,,,,,,,,,,,,,,,,,,,,5da3501124681c0015e6f56c,60e56392ceb7aeb9d000fd93,2021-07-07_10h20.48.086,Simcolourproject_2stim_asymm_v5,2020.2.10,Win32,60,60e52e7cfedb1dae636df45f,,,,,,,,,2891,-129,31,1,0,0,response7disk,,1,16,0,1,0,0,rectangle,16,0,1,0,0,,,,,,,16,0,1,0,0,,0,2,2,60,1,
,,,,,,,,,,,,,FF,,,,,,,,0.9659,,,,,,,,,,,,,,,,,,,,,,5da3501124681c0015e6f56c,60e56392ceb7aeb9d000fd93,2021-07-07_10h20.48.086,Simcolourproject_2stim_asymm_v5,2020.2.10,Win32,60,60e52e7cfedb1dae636df45f,,,,,,,,,3249,-62,31,1,0,0,response7disk,,1,5,-1,1,0,0,rectangle,5,-1,1,0,0,,,,,,,5,-1,1,0,0,,0,3,3,34,1,
,,,,,,,,,,,,,FF,,,,,,,,3.4495,,,,,,,,,,,,,,,,,,,,,,5da3501124681c0015e6f56c,60e56392ceb7aeb9d000fd93,2021-07-07_10h20.48.086,Simcolourproject_2stim_asymm_v5,2020.2.10,Win32,60,60e52e7cfedb1dae636df45f,,,,,,,,,3790,48,-135,1,0,0,response3disk,,4,7,2,1,0,0,rectangle,7,2,1,0,0,,,,,,,7,2,1,0,0,,0,4,4,123,1,
,,,,,,,,,,,,,FF,,,,,,,,2.1481,,,,,,,,,,,,,,,,,,,,,,5da3501124681c0015e6f56c,60e56392ceb7aeb9d000fd93,2021-07-07_10h20.48.086,Simcolourproject_2stim_asymm_v5,2020.2.10,Win32,60,60e52e7cfedb1dae636df45f,,,,,,,,,275,59,-133,1,0,0,response3disk,,4,-3,3,1,0,0,rectangle,-3,3,1,0,0,,,,,,,-3,3,1,0,0,,0,5,5,50,1,
,,,,,,,,,,,,,FF,,,,,,,,1.7664,,,,,,,,,,,,,,,,,,,,,,5da3501124681c0015e6f56c,60e56392ceb7aeb9d000fd93,2021-07-07_10h20.48.086,Simcolourproject_2stim_asymm_v5,2020.2.10,Win32,60,60e52e7cfedb1dae636df45f,,,,,,,,,145,105,-47,1,0,0,response3disk,,5,-3,-8,1,0,0,rectangle,-3,-8,1,0,0,,,,,,,-3,-8,1,0,0,,0,6,6,27,1,
,,,,,,,,,,,,,FF,,,,,,,,4.3498,,,,,,,,,,,,,,,,,,,,,,5da3501124681c0015e6f56c,60e56392ceb7aeb9d000fd93,2021-07-07_10h20.48.086,Simcolourproject_2stim_asymm_v5,2020.2.10,Win32,60,60e52e7cfedb1dae636df45f,,,,,,,,,2152,94,-62,1,0,0,response3disk,,5,4,-6,1,0,0,rectangle,4,-6,1,0,0,,,,,,,4,-6,1,0,0,,0,7,7,30,1,
,,,,,,,,,,,,,FF,,,,,,,,1.5669,,,,,,,,,,,,,,,,,,,,,,5da3501124681c0015e6f56c,60e56392ceb7aeb9d000fd93,2021-07-07_10h20.48.086,Simcolourproject_2stim_asymm_v5,2020.2.10,Win32,60,60e52e7cfedb1dae636df45f,,,,,,,,,1455,-101,-42,1,0,0,response5disk,,2,-18,-1,1,0,0,rectangle,-18,-1,1,0,0,,,,,,,-18,-1,1,0,0,,0,8,8,130,1,
,,,,,,,,,,,,,FF,,,,,,,,0.8498,,,,,,,,,,,,,,,,,,,,,,5da3501124681c0015e6f56c,60e56392ceb7aeb9d000fd93,2021-07-07_10h20.48.086,Simcolourproject_2stim_asymm_v5,2020.2.10,Win32,60,60e52e7cfedb1dae636df45f,,,,,,,,,2165,-106,44,1,0,0,response7disk,,1,-22,11,1,0,0,rectangle,-22,11,1,0,0,,,,,,,-22,11,1,0,0,,0,9,9,124,1,
,,,,,,,,,,,,,FF,,,,,,,,1.6336,,,,,,,,,,,,,,,,,,,,,,5da3501124681c0015e6f56c,60e56392ceb7aeb9d000fd93,2021-07-07_10h20.48.086,Simcolourproject_2stim_asymm_v5,2020.2.10,Win32,60,60e52e7cfedb1dae636df45f,,,,,,,,,3260,122,-77,1,0,0,response3disk,,5,9,-5,1,0,0,rectangle,9,-5,1,0,0,,,,,,,9,-5,1,0,0,,0,10,10,111,1,
,,,,,,,,,,,,,FF,,,,,,,,1.4978,,,,,,,,,,,,,,,,,,,,,,5da3501124681c0015e6f56c,60e56392ceb7aeb9d000fd93,2021-07-07_10h20.48.086,Simcolourproject_2stim_asymm_v5,2020.2.10,Win32,60,60e52e7cfedb1dae636df45f,,,,,,,,,2906,124,83,1,0,0,response1disk,,6,33,0,1,0,0,rectangle,33,0,1,0,0,,,,,,,33,0,1,0,0,,0,11,11,72,1,
,,,,,,,,,,,,,FF,,,,,,,,0.9192,,,,,,,,,,,,,,,,,,,,,,5da3501124681c0015e6f56c,60e56392ceb7aeb9d000fd93,2021-07-07_10h20.48.086,Simcolourproject_2stim_asymm_v5,2020.2.10,Win32,60,60e52e7cfedb1dae636df45f,,,,,,,,,2908,93,50,1,0,0,response1disk,,6,12,0,1,0,0,rectangle,12,0,1,0,0,,,,,,,12,0,1,0,0,,0,12,12,156,1,
,,,,,,,,,,,,,FF,,,,,,,,1.9167,,,,,,,,,,,,,,,,,,,,,,5da3501124681c0015e6f56c,60e56392ceb7aeb9d000fd93,2021-07-07_10h20.48.086,Simcolourproject_2stim_asymm_v5,2020.2.10,Win32,60,60e52e7cfedb1dae636df45f,,,,,,,,,2307,99,-42,1,0,0,response3disk,,5,22,-7,1,0,0,rectangle,22,-7,1,0,0,,,,,,,22,-7,1,0,0,,0,13,13,100,1,
,,,,,,,,,,,,,FF,,,,,,,,3.733,,,,,,,,,,,,,,,,,,,,,,5da3501124681c0015e6f56c,60e56392ceb7aeb9d000fd93,2021-07-07_10h20.48.086,Simcolourproject_2stim_asymm_v5,2020.2.10,Win32,60,60e52e7cfedb1dae636df45f,,,,,,,,,3110,126,-75,1,0,0,response3disk,,5,10,6,1,0,0,rectangle,10,6,1,0,0,,,,,,,10,6,1,0,0,,0,14,14,76,1,
,,,,,,,,,,,,,FF,,,,,,,,1.8672,,,,,,,,,,,,,,,,,,,,,,5da3501124681c0015e6f56c,60e56392ceb7aeb9d000fd93,2021-07-07_10h20.48.086,Simcolourproject_2stim_asymm_v5,2020.2.10,Win32,60,60e52e7cfedb1dae636df45f,,,,,,,,,2829,-95,-68,1,0,0,response5disk,,2,21,-7,1,0,0,rectangle,21,-7,1,0,0,,,,,,,21,-7,1,0,0,,0,15,15,150,1,
,,,,,,,,,,,,,FF,,,,,,,,1.3666,,,,,,,,,,,,,,,,,,,,,,5da3501124681c0015e6f56c,60e56392ceb7aeb9d000fd93,2021-07-07_10h20.48.086,Simcolourproject_2stim_asymm_v5,2020.2.10,Win32,60,60e52e7cfedb1dae636df45f,,,,,,,,,3117,105,-69,1,0,0,response3disk,,5,-11,-5,1,0,0,rectangle,-11,-5,1,0,0,,,,,,,-11,-5,1,0,0,,0,16,16,20,1,
,,,,,,,,,,,,,FF,,,,,,,,0.9166,,,,,,,,,,,,,,,,,,,,,,5da3501124681c0015e6f56c,60e56392ceb7aeb9d000fd93,2021-07-07_10h20.48.086,Simcolourproject_2stim_asymm_v5,2020.2.10,Win32,60,60e52e7cfedb1dae636df45f,,,,,,,,,4299,115,61,1,0,0,response1disk,,6,-17,-11,1,0,0,rectangle,-17,-11,1,0,0,,,,,,,-17,-11,1,0,0,,0,17,17,99,1,
,,,,,,,,,,,,,FF,,,,,,,,0.7862,,,,,,,,,,,,,,,,,,,,,,5da3501124681c0015e6f56c,60e56392ceb7aeb9d000fd93,2021-07-07_10h20.48.086,Simcolourproject_2stim_asymm_v5,2020.2.10,Win32,60,60e52e7cfedb1dae636df45f,,,,,,,,,2456,59,112,1,0,0,response1disk,,7,19,3,1,0,0,rectangle,19,3,1,0,0,,,,,,,19,3,1,0,0,,0,18,18,92,1,
,,,,,,,,,,,,,FF,,,,,,,,1.8835,,,,,,,,,,,,,,,,,,,,,,5da3501124681c0015e6f56c,60e56392ceb7aeb9d000fd93,2021-07-07_10h20.48.086,Simcolourproject_2stim_asymm_v5,2020.2.10,Win32,60,60e52e7cfedb1dae636df45f,,,,,,,,,2170,97,-69,1,0,0,response3disk,,5,-30,11,1,0,0,rectangle,-30,11,1,0,0,,,,,,,-30,11,1,0,0,,0,19,19,97,1,
,,,,,,,,,,,,,FF,,,,,,,,1.7973,,,,,,,,,,,,,,,,,,,,,,5da3501124681c0015e6f56c,60e56392ceb7aeb9d000fd93,2021-07-07_10h20.48.086,Simcolourproject_2stim_asymm_v5,2020.2.10,Win32,60,60e52e7cfedb1dae636df45f,,,,,,,,,1086,63,-91,1,0,0,response3disk,,4,8,-4,1,0,0,rectangle,8,-4,1,0,0,,,,,,,8,-4,1,0,0,,0,20,20,108,1,
,,,,,,,,,,,,,FF,,,,,,,,3.1828,,,,,,,,,,,,,,,,,,,,,,5da3501124681c0015e6f56c,60e56392ceb7aeb9d000fd93,2021-07-07_10h20.48.086,Simcolourproject_2stim_asymm_v5,2020.2.10,Win32,60,60e52e7cfedb1dae636df45f,,,,,,,,,2510,56,-104,1,0,0,response3disk,,4,5,-10,1,0,0,rectangle,5,-10,1,0,0,,,,,,,5,-10,1,0,0,,0,21,21,31,1,
,,,,,,,,,,,,,FF,,,,,,,,1.183,,,,,,,,,,,,,,,,,,,,,,5da3501124681c0015e6f56c,60e56392ceb7aeb9d000fd93,2021-07-07_10h20.48.086,Simcolourproject_2stim_asymm_v5,2020.2.10,Win32,60,60e52e7cfedb1dae636df45f,,,,,,,,,2790,-48,-86,1,0,0,response5disk,,3,3,-5,1,0,0,rectangle,3,-5,1,0,0,,,,,,,3,-5,1,0,0,,0,22,22,51,1,
,,,,,,,,,,,,,FF,,,,,,,,1.5831,,,,,,,,,,,,,,,,,,,,,,5da3501124681c0015e6f56c,60e56392ceb7aeb9d000fd93,2021-07-07_10h20.48.086,Simcolourproject_2stim_asymm_v5,2020.2.10,Win32,60,60e52e7cfedb1dae636df45f,,,,,,,,,3236,-39,-89,1,0,0,response5disk,,3,15,8,1,0,0,rectangle,15,8,1,0,0,,,,,,,15,8,1,0,0,,0,23,23,0,1,
,,,,,,,,,,,,,FF,,,,,,,,1.8334,,,,,,,,,,,,,,,,,,,,,,5da3501124681c0015e6f56c,60e56392ceb7aeb9d000fd93,2021-07-07_10h20.48.086,Simcolourproject_2stim_asymm_v5,2020.2.10,Win32,60,60e52e7cfedb1dae636df45f,,,,,,,,,1283,110,-54,1,0,0,response3disk,,5,17,0,1,0,0,rectangle,17,0,1,0,0,,,,,,,17,0,1,0,0,,0,24,24,144,1,
,,,,,,,,,,,,,FF,,,,,,,,1.3333,,,,,,,,,,,,,,,,,,,,,,5da3501124681c0015e6f56c,60e56392ceb7aeb9d000fd93,2021-07-07_10h20.48.086,Simcolourproject_2stim_asymm_v5,2020.2.10,Win32,60,60e52e7cfedb1dae636df45f,,,,,,,,,1808,81,-35,1,0,0,response3disk,,5,-7,21,1,0,0,rectangle,-7,21,1,0,0,,,,,,,-7,21,1,0,0,,0,25,25,56,1,
,,,,,,,,,,,,,FF,,,,,,,,0.7667,,,,,,,,,,,,,,,,,,,,,,5da3501124681c0015e6f56c,60e56392ceb7aeb9d000fd93,2021-07-07_10h20.48.086,Simcolourproject_2stim_asymm_v5,2020.2.10,Win32,60,60e52e7cfedb1dae636df45f,,,,,,,,,941,71,97,1,0,0,response1disk,,7,0,-4,1,0,0,rectangle,0,-4,1,0,0,,,,,,,0,-4,1,0,0,,0,26,26,110,1,
,,,,,,,,,,,,,FF,,,,,,,,1.7829,,,,,,,,,,,,,,,,,,,,,,5da3501124681c0015e6f56c,60e56392ceb7aeb9d000fd93,2021-07-07_10h20.48.086,Simcolourproject_2stim_asymm_v5,2020.2.10,Win32,60,60e52e7cfedb1dae636df45f,,,,,,,,,4096,-51,-106,1,0,0,response5disk,,3,15,9,1,0,0,rectangle,15,9,1,0,0,,,,,,,15,9,1,0,0,,0,27,27,25,1,
,,,,,,,,,,,,,FF,,,,,,,,1.0833,,,,,,,,,,,,,,,,,,,,,,5da3501124681c0015e6f56c,60e56392ceb7aeb9d000fd93,2021-07-07_10h20.48.086,Simcolourproject_2stim_asymm_v5,2020.2.10,Win32,60,60e52e7cfedb1dae636df45f,,,,,,,,,3053,-136,-71,1,0,0,response5disk,,2,45,6,1,0,0,rectangle,45,6,1,0,0,,,,,,,45,6,1,0,0,,0,28,28,98,1,
,,,,,,,,,,,,,FF,,,,,,,,0.8666,,,,,,,,,,,,,,,,,,,,,,5da3501124681c0015e6f56c,60e56392ceb7aeb9d000fd93,2021-07-07_10h20.48.086,Simcolourproject_2stim_asymm_v5,2020.2.10,Win32,60,60e52e7cfedb1dae636df45f,,,,,,,,,4337,-91,-42,1,0,0,response5disk,,2,19,-15,1,0,0,rectangle,19,-15,1,0,0,,,,,,,19,-15,1,0,0,,0,29,29,12,1,
,,,,,,,,,,,,,FF,,,,,,,,1.1,,,,,,,,,,,,,,,,,,,,,,5da3501124681c0015e6f56c,60e56392ceb7aeb9d000fd93,2021-07-07_10h20.48.086,Simcolourproject_2stim_asymm_v5,2020.2.10,Win32,60,60e52e7cfedb1dae636df45f,,,,,,,,,121,118,-66,1,0,0,response3disk,,5,36,-1,1,0,0,rectangle,36,-1,1,0,0,,,,,,,36,-1,1,0,0,,0,30,30,15,1,
,,,,,,,,,,,,,FF,,,,,,,,0.9167,,,,,,,,,,,,,,,,,,,,,,5da3501124681c0015e6f56c,60e56392ceb7aeb9d000fd93,2021-07-07_10h20.48.086,Simcolourproject_2stim_asymm_v5,2020.2.10,Win32,60,60e52e7cfedb1dae636df45f,,,,,,,,,1150,120,58,1,0,0,response1disk,,6,-3,8,1,0,0,rectangle,-3,8,1,0,0,,,,,,,-3,8,1,0,0,,0,31,31,137,1,
,,,,,,,,,,,,,FF,,,,,,,,1.7502,,,,,,,,,,,,,,,,,,,,,,5da3501124681c0015e6f56c,60e56392ceb7aeb9d000fd93,2021-07-07_10h20.48.086,Simcolourproject_2stim_asymm_v5,2020.2.10,Win32,60,60e52e7cfedb1dae636df45f,,,,,,,,,1685,74,-119,1,0,0,response3disk,,4,-4,-2,1,0,0,rectangle,-64,-112,1,0,0,response5disk_3,TRUE,3,3,"[282,127,39,1,187,181,207,296,241,306,52,277,226,279,263,52,33,206,144,266]",1.5836,-10,-6,1,0,0,rectangle,0,32,32,117,1,
,,,,,,,,,,,,,FF,,,,,,,,1.9332,,,,,,,,,,,,,,,,,,,,,,5da3501124681c0015e6f56c,60e56392ceb7aeb9d000fd93,2021-07-07_10h20.48.086,Simcolourproject_2stim_asymm_v5,2020.2.10,Win32,60,60e52e7cfedb1dae636df45f,,,,,,,,,1851,110,28,1,0,0,response1disk,,6,-3,-4,1,0,0,rectangle,-3,-4,1,0,0,,,,,,,-3,-4,1,0,0,,0,33,33,83,1,
,,,,,,,,,,,,,FF,,,,,,,,1.2166,,,,,,,,,,,,,,,,,,,,,,5da3501124681c0015e6f56c,60e56392ceb7aeb9d000fd93,2021-07-07_10h20.48.086,Simcolourproject_2stim_asymm_v5,2020.2.10,Win32,60,60e52e7cfedb1dae636df45f,,,,,,,,,2988,104,-62,1,0,0,response3disk,,5,-9,13,1,0,0,rectangle,-9,13,1,0,0,,,,,,,-9,13,1,0,0,,0,34,34,62,1,
,,,,,,,,,,,,,FF,,,,,,,,1.7314,,,,,,,,,,,,,,,,,,,,,,5da3501124681c0015e6f56c,60e56392ceb7aeb9d000fd93,2021-07-07_10h20.48.086,Simcolourproject_2stim_asymm_v5,2020.2.10,Win32,60,60e52e7cfedb1dae636df45f,,,,,,,,,2337,76,100,1,0,0,response1disk,,7,30,5,1,0,0,rectangle,30,5,1,0,0,,,,,,,30,5,1,0,0,,0,35,35,138,1,
,,,,,,,,,,,,,FF,,,,,,,,1.9661,,,,,,,,,,,,,,,,,,,,,,5da3501124681c0015e6f56c,60e56392ceb7aeb9d000fd93,2021-07-07_10h20.48.086,Simcolourproject_2stim_asymm_v5,2020.2.10,Win32,60,60e52e7cfedb1dae636df45f,,,,,,,,,3627,76,-102,1,0,0,response3disk,,4,27,5,1,0,0,rectangle,27,5,1,0,0,,,,,,,27,5,1,0,0,,0,36,36,29,1,
,,,,,,,,,,,,,FF,,,,,,,,0.9163,,,,,,,,,,,,,,,,,,,,,,5da3501124681c0015e6f56c,60e56392ceb7aeb9d000fd93,2021-07-07_10h20.48.086,Simcolourproject_2stim_asymm_v5,2020.2.10,Win32,60,60e52e7cfedb1dae636df45f,,,,,,,,,2281,82,61,1,0,0,response1disk,,6,-15,15,1,0,0,rectangle,-15,15,1,0,0,,,,,,,-15,15,1,0,0,,0,37,37,24,1,
,,,,,,,,,,,,,FF,,,,,,,,0.7165,,,,,,,,,,,,,,,,,,,,,,5da3501124681c0015e6f56c,60e56392ceb7aeb9d000fd93,2021-07-07_10h20.48.086,Simcolourproject_2stim_asymm_v5,2020.2.10,Win32,60,60e52e7cfedb1dae636df45f,,,,,,,,,1075,57,114,1,0,0,response1disk,,7,-11,-14,1,0,0,rectangle,-40,-127,1,0,0,response5disk_3,TRUE,3,3,"[282,127,39,1,187,181,207,296,241,306,52,277,226,279,263,52,33,206,144,266]",1.8825,6,-1,1,0,0,rectangle,0,38,38,126,1,
,,,,,,,,,,,,,FF,,,,,,,,2.1663,,,,,,,,,,,,,,,,,,,,,,5da3501124681c0015e6f56c,60e56392ceb7aeb9d000fd93,2021-07-07_10h20.48.086,Simcolourproject_2stim_asymm_v5,2020.2.10,Win32,60,60e52e7cfedb1dae636df45f,,,,,,,,,920,46,103,1,0,0,response1disk,,7,2,2,1,0,0,rectangle,2,2,1,0,0,,,,,,,2,2,1,0,0,,0,39,39,7,1,
,,,,,,,,,,,,,FF,,,,,,,,1.2162,,,,,,,,,,,,,,,,,,,,,,5da3501124681c0015e6f56c,60e56392ceb7aeb9d000fd93,2021-07-07_10h20.48.086,Simcolourproject_2stim_asymm_v5,2020.2.10,Win32,60,60e52e7cfedb1dae636df45f,,,,,,,,,1385,127,-46,1,0,0,response3disk,,5,19,0,1,0,0,rectangle,19,0,1,0,0,,,,,,,19,0,1,0,0,,0,40,40,61,1,
,,,,,,,,,,,,,FF,,,,,,,,1.2526,,,,,,,,,,,,,,,,,,,,,,5da3501124681c0015e6f56c,60e56392ceb7aeb9d000fd93,2021-07-07_10h20.48.086,Simcolourproject_2stim_asymm_v5,2020.2.10,Win32,60,60e52e7cfedb1dae636df45f,,,,,,,,,694,112,-51,1,0,0,response3disk,,5,13,6,1,0,0,rectangle,13,6,1,0,0,,,,,,,13,6,1,0,0,,0,41,41,58,1,
,,,,,,,,,,,,,FF,,,,,,,,0.9833,,,,,,,,,,,,,,,,,,,,,,5da3501124681c0015e6f56c,60e56392ceb7aeb9d000fd93,2021-07-07_10h20.48.086,Simcolourproject_2stim_asymm_v5,2020.2.10,Win32,60,60e52e7cfedb1dae636df45f,,,,,,,,,916,87,41,1,0,0,response1disk,,6,-6,8,1,0,0,rectangle,-6,8,1,0,0,,,,,,,-6,8,1,0,0,,0,42,42,157,1,
,,,,,,,,,,,,,FF,,,,,,,,1.3329,,,,,,,,,,,,,,,,,,,,,,5da3501124681c0015e6f56c,60e56392ceb7aeb9d000fd93,2021-07-07_10h20.48.086,Simcolourproject_2stim_asymm_v5,2020.2.10,Win32,60,60e52e7cfedb1dae636df45f,,,,,,,,,2049,97,52,1,0,0,response1disk,,6,-27,-6,1,0,0,rectangle,-27,-6,1,0,0,,,,,,,-27,-6,1,0,0,,0,43,43,135,1,
,,,,,,,,,,,,,FF,,,,,,,,0.716,,,,,,,,,,,,,,,,,,,,,,5da3501124681c0015e6f56c,60e56392ceb7aeb9d000fd93,2021-07-07_10h20.48.086,Simcolourproject_2stim_asymm_v5,2020.2.10,Win32,60,60e52e7cfedb1dae636df45f,,,,,,,,,1695,68,124,1,0,0,response1disk,,7,28,-7,1,0,0,rectangle,28,-7,1,0,0,,,,,,,28,-7,1,0,0,,0,44,44,8,1,
,,,,,,,,,,,,,FF,,,,,,,,0.8165,,,,,,,,,,,,,,,,,,,,,,5da3501124681c0015e6f56c,60e56392ceb7aeb9d000fd93,2021-07-07_10h20.48.086,Simcolourproject_2stim_asymm_v5,2020.2.10,Win32,60,60e52e7cfedb1dae636df45f,,,,,,,,,1125,100,44,1,0,0,response1disk,,6,-32,3,1,0,0,rectangle,-32,3,1,0,0,,,,,,,-32,3,1,0,0,,0,45,45,17,1,
,,,,,,,,,,,,,FF,,,,,,,,2.4668,,,,,,,,,,,,,,,,,,,,,,5da3501124681c0015e6f56c,60e56392ceb7aeb9d000fd93,2021-07-07_10h20.48.086,Simcolourproject_2stim_asymm_v5,2020.2.10,Win32,60,60e52e7cfedb1dae636df45f,,,,,,,,,263,-50,-127,1,0,0,response5disk,,3,14,-8,1,0,0,rectangle,14,-8,1,0,0,,,,,,,14,-8,1,0,0,,0,46,46,21,1,
,,,,,,,,,,,,,FF,,,,,,,,1.4996,,,,,,,,,,,,,,,,,,,,,,5da3501124681c0015e6f56c,60e56392ceb7aeb9d000fd93,2021-07-07_10h20.48.086,Simcolourproject_2stim_asymm_v5,2020.2.10,Win32,60,60e52e7cfedb1dae636df45f,,,,,,,,,3,-39,-105,1,0,0,response5disk,,3,15,-4,1,0,0,rectangle,15,-4,1,0,0,,,,,,,15,-4,1,0,0,,0,47,47,113,1,
,,,,,,,,,,,,,FF,,,,,,,,1.6333,,,,,,,,,,,,,,,,,,,,,,5da3501124681c0015e6f56c,60e56392ceb7aeb9d000fd93,2021-07-07_10h20.48.086,Simcolourproject_2stim_asymm_v5,2020.2.10,Win32,60,60e52e7cfedb1dae636df45f,,,,,,,,,682,100,-49,1,0,0,response3disk,,5,11,-7,1,0,0,rectangle,11,-7,1,0,0,,,,,,,11,-7,1,0,0,,0,48,48,59,1,
,,,,,,,,,,,,,FF,,,,,,,,1.9665,,,,,,,,,,,,,,,,,,,,,,5da3501124681c0015e6f56c,60e56392ceb7aeb9d000fd93,2021-07-07_10h20.48.086,Simcolourproject_2stim_asymm_v5,2020.2.10,Win32,60,60e52e7cfedb1dae636df45f,,,,,,,,,1892,-100,-36,1,0,0,response5disk,,2,7,11,1,0,0,rectangle,7,11,1,0,0,,,,,,,7,11,1,0,0,,0,49,49,132,1,
,,,,,,,,,,,,,FF,,,,,,,,1.4161,,,,,,,,,,,,,,,,,,,,,,5da3501124681c0015e6f56c,60e56392ceb7aeb9d000fd93,2021-07-07_10h20.48.086,Simcolourproject_2stim_asymm_v5,2020.2.10,Win32,60,60e52e7cfedb1dae636df45f,,,,,,,,,2222,69,-110,1,0,0,response3disk,,4,2,2,1,0,0,rectangle,2,2,1,0,0,,,,,,,2,2,1,0,0,,0,50,50,35,1,
,,,,,,,,,,,,,FF,,,,,,,,1.2492,,,,,,,,,,,,,,,,,,,,,,5da3501124681c0015e6f56c,60e56392ceb7aeb9d000fd93,2021-07-07_10h20.48.086,Simcolourproject_2stim_asymm_v5,2020.2.10,Win32,60,60e52e7cfedb1dae636df45f,,,,,,,,,689,-58,-104,1,0,0,response5disk,,3,3,1,1,0,0,rectangle,58,-99,1,0,0,response3disk_3,TRUE,4,4,"[282,127,39,1,187,181,207,296,241,306,52,277,226,279,263,52,33,206,144,266]",1.3994,3,7,1,0,0,rectangle,0,51,51,14,1,
,,,,,,,,,,,,,FF,,,,,,,,1.6997,,,,,,,,,,,,,,,,,,,,,,5da3501124681c0015e6f56c,60e56392ceb7aeb9d000fd93,2021-07-07_10h20.48.086,Simcolourproject_2stim_asymm_v5,2020.2.10,Win32,60,60e52e7cfedb1dae636df45f,,,,,,,,,1705,82,-44,1,0,0,response3disk,,5,-18,2,1,0,0,rectangle,-18,2,1,0,0,,,,,,,-18,2,1,0,0,,0,52,52,49,1,
,,,,,,,,,,,,,FF,,,,,,,,2.5001,,,,,,,,,,,,,,,,,,,,,,5da3501124681c0015e6f56c,60e56392ceb7aeb9d000fd93,2021-07-07_10h20.48.086,Simcolourproject_2stim_asymm_v5,2020.2.10,Win32,60,60e52e7cfedb1dae636df45f,,,,,,,,,3761,65,-117,1,0,0,response3disk,,4,9,-7,1,0,0,rectangle,9,-7,1,0,0,,,,,,,9,-7,1,0,0,,0,53,53,116,1,
,,,,,,,,,,,,,FF,,,,,,,,27.1829,,,,,,,,,,,,,,,,,,,,,,5da3501124681c0015e6f56c,60e56392ceb7aeb9d000fd93,2021-07-07_10h20.48.086,Simcolourproject_2stim_asymm_v5,2020.2.10,Win32,60,60e52e7cfedb1dae636df45f,,,,,,,,,1068,121,28,1,0,0,response1disk,,6,2,-12,1,0,0,rectangle,2,-12,1,0,0,,,,,,,2,-12,1,0,0,,0,54,54,153,1,
,,,,,,,,,,,,,FF,,,,,,,,1.5998,,,,,,,,,,,,,,,,,,,,,,5da3501124681c0015e6f56c,60e56392ceb7aeb9d000fd93,2021-07-07_10h20.48.086,Simcolourproject_2stim_asymm_v5,2020.2.10,Win32,60,60e52e7cfedb1dae636df45f,,,,,,,,,1600,-124,26,1,0,0,response7disk,,1,-31,-8,1,0,0,rectangle,-31,-8,1,0,0,,,,,,,-31,-8,1,0,0,,0,55,55,143,1,
,,,,,,,,,,,,,FF,,,,,,,,1.35,,,,,,,,,,,,,,,,,,,,,,5da3501124681c0015e6f56c,60e56392ceb7aeb9d000fd93,2021-07-07_10h20.48.086,Simcolourproject_2stim_asymm_v5,2020.2.10,Win32,60,60e52e7cfedb1dae636df45f,,,,,,,,,2616,118,-73,1,0,0,response3disk,,5,0,-9,1,0,0,rectangle,0,-9,1,0,0,,,,,,,0,-9,1,0,0,,0,56,56,69,1,
,,,,,,,,,,,,,FF,,,,,,,,0.9501,,,,,,,,,,,,,,,,,,,,,,5da3501124681c0015e6f56c,60e56392ceb7aeb9d000fd93,2021-07-07_10h20.48.086,Simcolourproject_2stim_asymm_v5,2020.2.10,Win32,60,60e52e7cfedb1dae636df45f,,,,,,,,,293,80,-40,1,0,0,response3disk,,5,16,-2,1,0,0,rectangle,16,-2,1,0,0,,,,,,,16,-2,1,0,0,,0,57,57,128,1,
,,,,,,,,,,,,,FF,,,,,,,,0.9332,,,,,,,,,,,,,,,,,,,,,,5da3501124681c0015e6f56c,60e56392ceb7aeb9d000fd93,2021-07-07_10h20.48.086,Simcolourproject_2stim_asymm_v5,2020.2.10,Win32,60,60e52e7cfedb1dae636df45f,,,,,,,,,4161,-53,107,1,0,0,response7disk,,0,9,3,1,0,0,rectangle,9,3,1,0,0,,,,,,,9,3,1,0,0,,0,58,58,45,1,
,,,,,,,,,,,,,FF,,,,,,,,1.1002,,,,,,,,,,,,,,,,,,,,,,5da3501124681c0015e6f56c,60e56392ceb7aeb9d000fd93,2021-07-07_10h20.48.086,Simcolourproject_2stim_asymm_v5,2020.2.10,Win32,60,60e52e7cfedb1dae636df45f,,,,,,,,,2734,-46,-97,1,0,0,response5disk,,3,-2,-5,1,0,0,rectangle,-2,-5,1,0,0,,,,,,,-2,-5,1,0,0,,0,59,59,75,1,
,,,,,,,,,,,,,FF,,,,,,,,0.867,,,,,,,,,,,,,,,,,,,,,,5da3501124681c0015e6f56c,60e56392ceb7aeb9d000fd93,2021-07-07_10h20.48.086,Simcolourproject_2stim_asymm_v5,2020.2.10,Win32,60,60e52e7cfedb1dae636df45f,,,,,,,,,1291,-42,-104,1,0,0,response5disk,,3,-1,-11,1,0,0,rectangle,-1,-11,1,0,0,,,,,,,-1,-11,1,0,0,,0,60,60,82,1,
,,,,,,,,,,,,,FF,,,,,,,,0.7501,,,,,,,,,,,,,,,,,,,,,,5da3501124681c0015e6f56c,60e56392ceb7aeb9d000fd93,2021-07-07_10h20.48.086,Simcolourproject_2stim_asymm_v5,2020.2.10,Win32,60,60e52e7cfedb1dae636df45f,,,,,,,,,1373,-29,-84,1,0,0,response5disk,,3,5,-8,1,0,0,rectangle,5,-8,1,0,0,,,,,,,5,-8,1,0,0,,0,61,61,46,1,
,,,,,,,,,,,,,FF,,,,,,,,1.1,,,,,,,,,,,,,,,,,,,,,,5da3501124681c0015e6f56c,60e56392ceb7aeb9d000fd93,2021-07-07_10h20.48.086,Simcolourproject_2stim_asymm_v5,2020.2.10,Win32,60,60e52e7cfedb1dae636df45f,,,,,,,,,596,119,76,1,0,0,response1disk,,6,7,12,1,0,0,rectangle,7,12,1,0,0,,,,,,,7,12,1,0,0,,0,62,62,146,1,
,,,,,,,,,,,,,FF,,,,,,,,0.9359,,,,,,,,,,,,,,,,,,,,,,5da3501124681c0015e6f56c,60e56392ceb7aeb9d000fd93,2021-07-07_10h20.48.086,Simcolourproject_2stim_asymm_v5,2020.2.10,Win32,60,60e52e7cfedb1dae636df45f,,,,,,,,,1506,52,118,1,0,0,response1disk,,7,-20,7,1,0,0,rectangle,-20,7,1,0,0,,,,,,,-20,7,1,0,0,,0,63,63,68,1,
,,,,,,,,,,,,,FF,,,,,,,,1.3997,,,,,,,,,,,,,,,,,,,,,,5da3501124681c0015e6f56c,60e56392ceb7aeb9d000fd93,2021-07-07_10h20.48.086,Simcolourproject_2stim_asymm_v5,2020.2.10,Win32,60,60e52e7cfedb1dae636df45f,,,,,,,,,1307,-43,-104,1,0,0,response5disk,,3,-3,-1,1,0,0,rectangle,-3,-1,1,0,0,,,,,,,-3,-1,1,0,0,,0,64,64,74,1,
,,,,,,,,,,,,,FF,,,,,,,,1.4171,,,,,,,,,,,,,,,,,,,,,,5da3501124681c0015e6f56c,60e56392ceb7aeb9d000fd93,2021-07-07_10h20.48.086,Simcolourproject_2stim_asymm_v5,2020.2.10,Win32,60,60e52e7cfedb1dae636df45f,,,,,,,,,3460,50,-100,1,0,0,response3disk,,4,4,17,1,0,0,rectangle,4,17,1,0,0,,,,,,,4,17,1,0,0,,0,65,65,112,1,
,,,,,,,,,,,,,FF,,,,,,,,0.8989,,,,,,,,,,,,,,,,,,,,,,5da3501124681c0015e6f56c,60e56392ceb7aeb9d000fd93,2021-07-07_10h20.48.086,Simcolourproject_2stim_asymm_v5,2020.2.10,Win32,60,60e52e7cfedb1dae636df45f,,,,,,,,,913,97,51,1,0,0,response1disk,,6,10,5,1,0,0,rectangle,10,5,1,0,0,,,,,,,10,5,1,0,0,,0,66,66,102,1,
,,,,,,,,,,,,,FF,,,,,,,,0.8832,,,,,,,,,,,,,,,,,,,,,,5da3501124681c0015e6f56c,60e56392ceb7aeb9d000fd93,2021-07-07_10h20.48.086,Simcolourproject_2stim_asymm_v5,2020.2.10,Win32,60,60e52e7cfedb1dae636df45f,,,,,,,,,2128,123,55,1,0,0,response1disk,,6,-6,1,1,0,0,rectangle,-6,1,1,0,0,,,,,,,-6,1,1,0,0,,0,67,67,86,1,
,,,,,,,,,,,,,FF,,,,,,,,0.7999,,,,,,,,,,,,,,,,,,,,,,5da3501124681c0015e6f56c,60e56392ceb7aeb9d000fd93,2021-07-07_10h20.48.086,Simcolourproject_2stim_asymm_v5,2020.2.10,Win32,60,60e52e7cfedb1dae636df45f,,,,,,,,,245,94,-47,1,0,0,response3disk,,5,-16,6,1,0,0,rectangle,-16,6,1,0,0,,,,,,,-16,6,1,0,0,,0,68,68,40,1,
,,,,,,,,,,,,,FF,,,,,,,,1.4334,,,,,,,,,,,,,,,,,,,,,,5da3501124681c0015e6f56c,60e56392ceb7aeb9d000fd93,2021-07-07_10h20.48.086,Simcolourproject_2stim_asymm_v5,2020.2.10,Win32,60,60e52e7cfedb1dae636df45f,,,,,,,,,2953,-58,-109,1,0,0,response5disk,,3,11,0,1,0,0,rectangle,11,0,1,0,0,,,,,,,11,0,1,0,0,,0,69,69,19,1,
,,,,,,,,,,,,,FF,,,,,,,,0.7186,,,,,,,,,,,,,,,,,,,,,,5da3501124681c0015e6f56c,60e56392ceb7aeb9d000fd93,2021-07-07_10h20.48.086,Simcolourproject_2stim_asymm_v5,2020.2.10,Win32,60,60e52e7cfedb1dae636df45f,,,,,,,,,3810,-72,141,1,0,0,response7disk,,0,-3,6,1,0,0,rectangle,-3,6,1,0,0,,,,,,,-3,6,1,0,0,,0,70,70,139,1,
,,,,,,,,,,,,,FF,,,,,,,,1.1995,,,,,,,,,,,,,,,,,,,,,,5da3501124681c0015e6f56c,60e56392ceb7aeb9d000fd93,2021-07-07_10h20.48.086,Simcolourproject_2stim_asymm_v5,2020.2.10,Win32,60,60e52e7cfedb1dae636df45f,,,,,,,,,3760,56,-128,1,0,0,response3disk,,4,0,3,1,0,0,rectangle,0,3,1,0,0,,,,,,,0,3,1,0,0,,0,71,71,64,1,
,,,,,,,,,,,,,FF,,,,,,,,1.2831,,,,,,,,,,,,,,,,,,,,,,5da3501124681c0015e6f56c,60e56392ceb7aeb9d000fd93,2021-07-07_10h20.48.086,Simcolourproject_2stim_asymm_v5,2020.2.10,Win32,60,60e52e7cfedb1dae636df45f,,,,,,,,,2224,86,60,1,0,0,response1disk,,6,14,9,1,0,0,rectangle,14,9,1,0,0,,,,,,,14,9,1,0,0,,0,72,72,28,1,
,,,,,,,,,,,,,FF,,,,,,,,0.933,,,,,,,,,,,,,,,,,,,,,,5da3501124681c0015e6f56c,60e56392ceb7aeb9d000fd93,2021-07-07_10h20.48.086,Simcolourproject_2stim_asymm_v5,2020.2.10,Win32,60,60e52e7cfedb1dae636df45f,,,,,,,,,1534,108,64,1,0,0,response1disk,,6,7,4,1,0,0,rectangle,7,4,1,0,0,,,,,,,7,4,1,0,0,,0,73,73,18,1,
,,,,,,,,,,,,,FF,,,,,,,,2.3665,,,,,,,,,,,,,,,,,,,,,,5da3501124681c0015e6f56c,60e56392ceb7aeb9d000fd93,2021-07-07_10h20.48.086,Simcolourproject_2stim_asymm_v5,2020.2.10,Win32,60,60e52e7cfedb1dae636df45f,,,,,,,,,666,114,69,1,0,0,response1disk,,6,0,10,1,0,0,rectangle,0,10,1,0,0,,,,,,,0,10,1,0,0,,0,74,74,43,1,
,,,,,,,,,,,,,FF,,,,,,,,0.736,,,,,,,,,,,,,,,,,,,,,,5da3501124681c0015e6f56c,60e56392ceb7aeb9d000fd93,2021-07-07_10h20.48.086,Simcolourproject_2stim_asymm_v5,2020.2.10,Win32,60,60e52e7cfedb1dae636df45f,,,,,,,,,3168,63,121,1,0,0,response1disk,,7,6,9,1,0,0,rectangle,6,9,1,0,0,,,,,,,6,9,1,0,0,,0,75,75,44,1,
,,,,,,,,,,,,,FF,,,,,,,,1.3164,,,,,,,,,,,,,,,,,,,,,,5da3501124681c0015e6f56c,60e56392ceb7aeb9d000fd93,2021-07-07_10h20.48.086,Simcolourproject_2stim_asymm_v5,2020.2.10,Win32,60,60e52e7cfedb1dae636df45f,,,,,,,,,1304,59,-112,1,0,0,response3disk,,4,4,-9,1,0,0,rectangle,4,-9,1,0,0,,,,,,,4,-9,1,0,0,,0,76,76,67,1,
,,,,,,,,,,,,,FF,,,,,,,,1.9002,,,,,,,,,,,,,,,,,,,,,,5da3501124681c0015e6f56c,60e56392ceb7aeb9d000fd93,2021-07-07_10h20.48.086,Simcolourproject_2stim_asymm_v5,2020.2.10,Win32,60,60e52e7cfedb1dae636df45f,,,,,,,,,264,-143,-65,1,0,0,response5disk,,2,-8,-1,1,0,0,rectangle,-8,-1,1,0,0,,,,,,,-8,-1,1,0,0,,0,77,77,131,1,
,,,,,,,,,,,,,FF,,,,,,,,1.2003,,,,,,,,,,,,,,,,,,,,,,5da3501124681c0015e6f56c,60e56392ceb7aeb9d000fd93,2021-07-07_10h20.48.086,Simcolourproject_2stim_asymm_v5,2020.2.10,Win32,60,60e52e7cfedb1dae636df45f,,,,,,,,,3757,118,-58,1,0,0,response3disk,,5,5,3,1,0,0,rectangle,5,3,1,0,0,,,,,,,5,3,1,0,0,,0,78,78,154,1,
,,,,,,,,,,,,,FF,,,,,,,,2.0665,,,,,,,,,,,,,,,,,,,,,,5da3501124681c0015e6f56c,60e56392ceb7aeb9d000fd93,2021-07-07_10h20.48.086,Simcolourproject_2stim_asymm_v5,2020.2.10,Win32,60,60e52e7cfedb1dae636df45f,,,,,,,,,97,56,-123,1,0,0,response3disk,,4,2,9,1,0,0,rectangle,2,9,1,0,0,,,,,,,2,9,1,0,0,,0,79,79,55,1,
,,,,,,,,,,,,,FF,,,,,,,,1.4187,,,,,,,,,,,,,,,,,,,,,,5da3501124681c0015e6f56c,60e56392ceb7aeb9d000fd93,2021-07-07_10h20.48.086,Simcolourproject_2stim_asymm_v5,2020.2.10,Win32,60,60e52e7cfedb1dae636df45f,,,,,,,,,1388,144,38,1,0,0,response1disk,,6,-9,-4,1,0,0,rectangle,-9,-4,1,0,0,,,,,,,-9,-4,1,0,0,,0,80,80,129,1,
,,,,,,,,,,,,,FF,,,,,,,,0.817,,,,,,,,,,,,,,,,,,,,,,5da3501124681c0015e6f56c,60e56392ceb7aeb9d000fd93,2021-07-07_10h20.48.086,Simcolourproject_2stim_asymm_v5,2020.2.10,Win32,60,60e52e7cfedb1dae636df45f,,,,,,,,,3152,122,60,1,0,0,response1disk,,6,-11,3,1,0,0,rectangle,-11,3,1,0,0,,,,,,,-11,3,1,0,0,,0,81,81,65,1,
,,,,,,,,,,,,,FF,,,,,,,,0.683,,,,,,,,,,,,,,,,,,,,,,5da3501124681c0015e6f56c,60e56392ceb7aeb9d000fd93,2021-07-07_10h20.48.086,Simcolourproject_2stim_asymm_v5,2020.2.10,Win32,60,60e52e7cfedb1dae636df45f,,,,,,,,,3626,153,69,1,0,0,response1disk,,6,22,6,1,0,0,rectangle,22,6,1,0,0,,,,,,,22,6,1,0,0,,0,82,82,159,1,
,,,,,,,,,,,,,FF,,,,,,,,0.683,,,,,,,,,,,,,,,,,,,,,,5da3501124681c0015e6f56c,60e56392ceb7aeb9d000fd93,2021-07-07_10h20.48.086,Simcolourproject_2stim_asymm_v5,2020.2.10,Win32,60,60e52e7cfedb1dae636df45f,,,,,,,,,2618,78,127,1,0,0,response1disk,,7,-6,11,1,0,0,rectangle,-6,11,1,0,0,,,,,,,-6,11,1,0,0,,0,83,83,152,1,
,,,,,,,,,,,,,FF,,,,,,,,1.4161,,,,,,,,,,,,,,,,,,,,,,5da3501124681c0015e6f56c,60e56392ceb7aeb9d000fd93,2021-07-07_10h20.48.086,Simcolourproject_2stim_asymm_v5,2020.2.10,Win32,60,60e52e7cfedb1dae636df45f,,,,,,,,,2087,134,-53,1,0,0,response3disk,,5,4,6,1,0,0,rectangle,4,6,1,0,0,,,,,,,4,6,1,0,0,,0,84,84,9,1,
,,,,,,,,,,,,,FF,,,,,,,,1.0334,,,,,,,,,,,,,,,,,,,,,,5da3501124681c0015e6f56c,60e56392ceb7aeb9d000fd93,2021-07-07_10h20.48.086,Simcolourproject_2stim_asymm_v5,2020.2.10,Win32,60,60e52e7cfedb1dae636df45f,,,,,,,,,4323,64,156,1,0,0,response1disk,,7,-4,19,1,0,0,rectangle,-4,19,1,0,0,,,,,,,-4,19,1,0,0,,0,85,85,106,1,
,,,,,,,,,,,,,FF,,,,,,,,0.8643,,,,,,,,,,,,,,,,,,,,,,5da3501124681c0015e6f56c,60e56392ceb7aeb9d000fd93,2021-07-07_10h20.48.086,Simcolourproject_2stim_asymm_v5,2020.2.10,Win32,60,60e52e7cfedb1dae636df45f,,,,,,,,,3894,115,-62,1,0,0,response3disk,,5,9,-5,1,0,0,rectangle,9,-5,1,0,0,,,,,,,9,-5,1,0,0,,0,86,86,96,1,
,,,,,,,,,,,,,FF,,,,,,,,2.8831,,,,,,,,,,,,,,,,,,,,,,5da3501124681c0015e6f56c,60e56392ceb7aeb9d000fd93,2021-07-07_10h20.48.086,Simcolourproject_2stim_asymm_v5,2020.2.10,Win32,60,60e52e7cfedb1dae636df45f,,,,,,,,,2537,132,-45,1,0,0,response3disk,,5,20,1,1,0,0,rectangle,20,1,1,0,0,,,,,,,20,1,1,0,0,,0,87,87,103,1,
,,,,,,,,,,,,,FF,,,,,,,,0.6667,,,,,,,,,,,,,,,,,,,,,,5da3501124681c0015e6f56c,60e56392ceb7aeb9d000fd93,2021-07-07_10h20.48.086,Simcolourproject_2stim_asymm_v5,2020.2.10,Win32,60,60e52e7cfedb1dae636df45f,,,,,,,,,0,-85,128,1,0,0,response7disk,,0,1,13,1,0,0,rectangle,1,13,1,0,0,,,,,,,1,13,1,0,0,,0,88,88,145,1,
,,,,,,,,,,,,,FF,,,,,,,,2.0999,,,,,,,,,,,,,,,,,,,,,,5da3501124681c0015e6f56c,60e56392ceb7aeb9d000fd93,2021-07-07_10h20.48.086,Simcolourproject_2stim_asymm_v5,2020.2.10,Win32,60,60e52e7cfedb1dae636df45f,,,,,,,,,2045,123,-57,1,0,0,response3disk,,5,-10,14,1,0,0,rectangle,-10,14,1,0,0,,,,,,,-10,14,1,0,0,,0,89,89,41,1,
,,,,,,,,,,,,,FF,,,,,,,,14.5837,,,,,,,,,,,,,,,,,,,,,,5da3501124681c0015e6f56c,60e56392ceb7aeb9d000fd93,2021-07-07_10h20.48.086,Simcolourproject_2stim_asymm_v5,2020.2.10,Win32,60,60e52e7cfedb1dae636df45f,,,,,,,,,3569,70,-103.5,1,0,0,response3disk,,4,7,9.5,1,0,0,rectangle,7,9.5,1,0,0,,,,,,,7,9.5,1,0,0,,0,90,90,118,1,
,,,,,,,,,,,,,FF,,,,,,,,2.6161,,,,,,,,,,,,,,,,,,,,,,5da3501124681c0015e6f56c,60e56392ceb7aeb9d000fd93,2021-07-07_10h20.48.086,Simcolourproject_2stim_asymm_v5,2020.2.10,Win32,60,60e52e7cfedb1dae636df45f,,,,,,,,,8,-61,-108.5,1,0,0,response5disk,,3,-15,12.5,1,0,0,rectangle,-15,12.5,1,0,0,,,,,,,-15,12.5,1,0,0,,0,91,91,13,1,
,,,,,,,,,,,,,FF,,,,,,,,25.9333,,,,,,,,,,,,,,,,,,,,,,5da3501124681c0015e6f56c,60e56392ceb7aeb9d000fd93,2021-07-07_10h20.48.086,Simcolourproject_2stim_asymm_v5,2020.2.10,Win32,60,60e52e7cfedb1dae636df45f,,,,,,,,,2493,82,-64.5,1,0,0,response3disk,,5,-1,-3.5,1,0,0,rectangle,-1,-3.5,1,0,0,,,,,,,-1,-3.5,1,0,0,,0,92,92,151,1,
,,,,,,,,,,,,,FF,,,,,,,,1.0689,,,,,,,,,,,,,,,,,,,,,,5da3501124681c0015e6f56c,60e56392ceb7aeb9d000fd93,2021-07-07_10h20.48.086,Simcolourproject_2stim_asymm_v5,2020.2.10,Win32,60,60e52e7cfedb1dae636df45f,,,,,,,,,2345,72,167.5,1,0,0,response1disk,,7,9,14.5,1,0,0,rectangle,9,14.5,1,0,0,,,,,,,9,14.5,1,0,0,,0,93,93,155,1,
,,,,,,,,,,,,,FF,,,,,,,,3.1331,,,,,,,,,,,,,,,,,,,,,,5da3501124681c0015e6f56c,60e56392ceb7aeb9d000fd93,2021-07-07_10h20.48.086,Simcolourproject_2stim_asymm_v5,2020.2.10,Win32,60,60e52e7cfedb1dae636df45f,,,,,,,,,3890,89,44.5,1,0,0,response1disk,,6,16,3.5,1,0,0,rectangle,16,3.5,1,0,0,,,,,,,16,3.5,1,0,0,,0,94,94,66,1,
,,,,,,,,,,,,,FF,,,,,,,,0.9163,,,,,,,,,,,,,,,,,,,,,,5da3501124681c0015e6f56c,60e56392ceb7aeb9d000fd93,2021-07-07_10h20.48.086,Simcolourproject_2stim_asymm_v5,2020.2.10,Win32,60,60e52e7cfedb1dae636df45f,,,,,,,,,2594,123,-35.5,1,0,0,response3disk,,5,-3,12.5,1,0,0,rectangle,-3,12.5,1,0,0,,,,,,,-3,12.5,1,0,0,,0,95,95,3,1,
,,,,,,,,,,,,,FF,,,,,,,,0.9826,,,,,,,,,,,,,,,,,,,,,,5da3501124681c0015e6f56c,60e56392ceb7aeb9d000fd93,2021-07-07_10h20.48.086,Simcolourproject_2stim_asymm_v5,2020.2.10,Win32,60,60e52e7cfedb1dae636df45f,,,,,,,,,2654,133,-66.5,1,0,0,response3disk,,5,2,15.5,1,0,0,rectangle,2,15.5,1,0,0,,,,,,,2,15.5,1,0,0,,0,96,96,53,1,
,,,,,,,,,,,,,FF,,,,,,,,1.5498,,,,,,,,,,,,,,,,,,,,,,5da3501124681c0015e6f56c,60e56392ceb7aeb9d000fd93,2021-07-07_10h20.48.086,Simcolourproject_2stim_asymm_v5,2020.2.10,Win32,60,60e52e7cfedb1dae636df45f,,,,,,,,,2888,-83,-33.5,1,0,0,response5disk,,2,-6,-0.5,1,0,0,rectangle,-6,-0.5,1,0,0,,,,,,,-6,-0.5,1,0,0,,0,97,97,136,1,
,,,,,,,,,,,,,FF,,,,,,,,1.3663,,,,,,,,,,,,,,,,,,,,,,5da3501124681c0015e6f56c,60e56392ceb7aeb9d000fd93,2021-07-07_10h20.48.086,Simcolourproject_2stim_asymm_v5,2020.2.10,Win32,60,60e52e7cfedb1dae636df45f,,,,,,,,,1062,93,-46.5,1,0,0,response3disk,,5,-1,-9.5,1,0,0,rectangle,-1,-9.5,1,0,0,,,,,,,-1,-9.5,1,0,0,,0,98,98,81,1,
,,,,,,,,,,,,,FF,,,,,,,,0.6498,,,,,,,,,,,,,,,,,,,,,,5da3501124681c0015e6f56c,60e56392ceb7aeb9d000fd93,2021-07-07_10h20.48.086,Simcolourproject_2stim_asymm_v5,2020.2.10,Win32,60,60e52e7cfedb1dae636df45f,,,,,,,,,2174,97,-44.5,1,0,0,response3disk,,5,9,9.5,1,0,0,rectangle,9,9.5,1,0,0,,,,,,,9,9.5,1,0,0,,0,99,99,80,1,
,,,,,,,,,,,,,FF,,,,,,,,1.4995,,,,,,,,,,,,,,,,,,,,,,5da3501124681c0015e6f56c,60e56392ceb7aeb9d000fd93,2021-07-07_10h20.48.086,Simcolourproject_2stim_asymm_v5,2020.2.10,Win32,60,60e52e7cfedb1dae636df45f,,,,,,,,,3561,70,107.5,1,0,0,response1disk,,7,-1,9.5,1,0,0,rectangle,-1,9.5,1,0,0,,,,,,,-1,9.5,1,0,0,,0,100,100,48,1,
,,,,,,,,,,,,,FF,,,,,,,,1.517,,,,,,,,,,,,,,,,,,,,,,5da3501124681c0015e6f56c,60e56392ceb7aeb9d000fd93,2021-07-07_10h20.48.086,Simcolourproject_2stim_asymm_v5,2020.2.10,Win32,60,60e52e7cfedb1dae636df45f,,,,,,,,,2784,56,-137.5,1,0,0,response3disk,,4,5,11.5,1,0,0,rectangle,5,11.5,1,0,0,,,,,,,5,11.5,1,0,0,,0,101,101,148,1,
,,,,,,,,,,,,,FF,,,,,,,,0.7004,,,,,,,,,,,,,,,,,,,,,,5da3501124681c0015e6f56c,60e56392ceb7aeb9d000fd93,2021-07-07_10h20.48.086,Simcolourproject_2stim_asymm_v5,2020.2.10,Win32,60,60e52e7cfedb1dae636df45f,,,,,,,,,3202,55,-109.5,1,0,0,response3disk,,4,-6,-0.5,1,0,0,rectangle,-6,-0.5,1,0,0,,,,,,,-6,-0.5,1,0,0,,0,102,102,85,1,
,,,,,,,,,,,,,FF,,,,,,,,1.4497,,,,,,,,,,,,,,,,,,,,,,5da3501124681c0015e6f56c,60e56392ceb7aeb9d000fd93,2021-07-07_10h20.48.086,Simcolourproject_2stim_asymm_v5,2020.2.10,Win32,60,60e52e7cfedb1dae636df45f,,,,,,,,,3063,125,-53.5,1,0,0,response3disk,,5,10,-3.5,1,0,0,rectangle,10,-3.5,1,0,0,,,,,,,10,-3.5,1,0,0,,0,103,103,107,1,
,,,,,,,,,,,,,FF,,,,,,,,0.6658,,,,,,,,,,,,,,,,,,,,,,5da3501124681c0015e6f56c,60e56392ceb7aeb9d000fd93,2021-07-07_10h20.48.086,Simcolourproject_2stim_asymm_v5,2020.2.10,Win32,60,60e52e7cfedb1dae636df45f,,,,,,,,,4140,-80,138.5,1,0,0,response7disk,,0,2,4.5,1,0,0,rectangle,2,4.5,1,0,0,,,,,,,2,4.5,1,0,0,,0,104,104,87,1,
,,,,,,,,,,,,,FF,,,,,,,,1.1831,,,,,,,,,,,,,,,,,,,,,,5da3501124681c0015e6f56c,60e56392ceb7aeb9d000fd93,2021-07-07_10h20.48.086,Simcolourproject_2stim_asymm_v5,2020.2.10,Win32,60,60e52e7cfedb1dae636df45f,,,,,,,,,417,48,120.5,1,0,0,response1disk,,7,2,15.5,1,0,0,rectangle,2,15.5,1,0,0,,,,,,,2,15.5,1,0,0,,0,105,105,22,1,
,,,,,,,,,,,,,FF,,,,,,,,1.0525,,,,,,,,,,,,,,,,,,,,,,5da3501124681c0015e6f56c,60e56392ceb7aeb9d000fd93,2021-07-07_10h20.48.086,Simcolourproject_2stim_asymm_v5,2020.2.10,Win32,60,60e52e7cfedb1dae636df45f,,,,,,,,,769,38,112.5,1,0,0,response1disk,,7,-2,-4.5,1,0,0,rectangle,-2,-4.5,1,0,0,,,,,,,-2,-4.5,1,0,0,,0,106,106,91,1,
,,,,,,,,,,,,,FF,,,,,,,,0.8661,,,,,,,,,,,,,,,,,,,,,,5da3501124681c0015e6f56c,60e56392ceb7aeb9d000fd93,2021-07-07_10h20.48.086,Simcolourproject_2stim_asymm_v5,2020.2.10,Win32,60,60e52e7cfedb1dae636df45f,,,,,,,,,1123,43,-108.5,1,0,0,response3disk,,4,-5,8.5,1,0,0,rectangle,-5,8.5,1,0,0,,,,,,,-5,8.5,1,0,0,,0,107,107,134,1,
,,,,,,,,,,,,,FF,,,,,,,,1.5331,,,,,,,,,,,,,,,,,,,,,,5da3501124681c0015e6f56c,60e56392ceb7aeb9d000fd93,2021-07-07_10h20.48.086,Simcolourproject_2stim_asymm_v5,2020.2.10,Win32,60,60e52e7cfedb1dae636df45f,,,,,,,,,3819,69,-96.5,1,0,0,response3disk,,4,-11,-7.5,1,0,0,rectangle,-11,-7.5,1,0,0,,,,,,,-11,-7.5,1,0,0,,0,108,108,26,1,
,,,,,,,,,,,,,FF,,,,,,,,1.1498,,,,,,,,,,,,,,,,,,,,,,5da3501124681c0015e6f56c,60e56392ceb7aeb9d000fd93,2021-07-07_10h20.48.086,Simcolourproject_2stim_asymm_v5,2020.2.10,Win32,60,60e52e7cfedb1dae636df45f,,,,,,,,,2426,97,-45.5,1,0,0,response3disk,,5,3,-3.5,1,0,0,rectangle,3,-3.5,1,0,0,,,,,,,3,-3.5,1,0,0,,0,109,109,4,1,
,,,,,,,,,,,,,FF,,,,,,,,1.9535,,,,,,,,,,,,,,,,,,,,,,5da3501124681c0015e6f56c,60e56392ceb7aeb9d000fd93,2021-07-07_10h20.48.086,Simcolourproject_2stim_asymm_v5,2020.2.10,Win32,60,60e52e7cfedb1dae636df45f,,,,,,,,,1987,124,37.5,1,0,0,response1disk,,6,-3,-7.5,1,0,0,rectangle,-3,-7.5,1,0,0,,,,,,,-3,-7.5,1,0,0,,0,110,110,16,1,
,,,,,,,,,,,,,FF,,,,,,,,0.8335,,,,,,,,,,,,,,,,,,,,,,5da3501124681c0015e6f56c,60e56392ceb7aeb9d000fd93,2021-07-07_10h20.48.086,Simcolourproject_2stim_asymm_v5,2020.2.10,Win32,60,60e52e7cfedb1dae636df45f,,,,,,,,,3796,129,57.5,1,0,0,response1disk,,6,-1,2.5,1,0,0,rectangle,-1,2.5,1,0,0,,,,,,,-1,2.5,1,0,0,,0,111,111,140,1,
,,,,,,,,,,,,,FF,,,,,,,,0.6667,,,,,,,,,,,,,,,,,,,,,,5da3501124681c0015e6f56c,60e56392ceb7aeb9d000fd93,2021-07-07_10h20.48.086,Simcolourproject_2stim_asymm_v5,2020.2.10,Win32,60,60e52e7cfedb1dae636df45f,,,,,,,,,968,-62,117.5,1,0,0,response7disk,,0,-1,16.5,1,0,0,rectangle,-1,16.5,1,0,0,,,,,,,-1,16.5,1,0,0,,0,112,112,142,1,
,,,,,,,,,,,,,FF,,,,,,,,1.0334,,,,,,,,,,,,,,,,,,,,,,5da3501124681c0015e6f56c,60e56392ceb7aeb9d000fd93,2021-07-07_10h20.48.086,Simcolourproject_2stim_asymm_v5,2020.2.10,Win32,60,60e52e7cfedb1dae636df45f,,,,,,,,,1404,104,43.5,1,0,0,response1disk,,6,-11,4.5,1,0,0,rectangle,-11,4.5,1,0,0,,,,,,,-11,4.5,1,0,0,,0,113,113,57,1,
,,,,,,,,,,,,,FF,,,,,,,,1.233,,,,,,,,,,,,,,,,,,,,,,5da3501124681c0015e6f56c,60e56392ceb7aeb9d000fd93,2021-07-07_10h20.48.086,Simcolourproject_2stim_asymm_v5,2020.2.10,Win32,60,60e52e7cfedb1dae636df45f,,,,,,,,,1071,112,44.5,1,0,0,response1disk,,6,0,3.5,1,0,0,rectangle,0,3.5,1,0,0,,,,,,,0,3.5,1,0,0,,0,114,114,78,1,
,,,,,,,,,,,,,FF,,,,,,,,1.6332,,,,,,,,,,,,,,,,,,,,,,5da3501124681c0015e6f56c,60e56392ceb7aeb9d000fd93,2021-07-07_10h20.48.086,Simcolourproject_2stim_asymm_v5,2020.2.10,Win32,60,60e52e7cfedb1dae636df45f,,,,,,,,,378,-58,-115.5,1,0,0,response5disk,,3,4,9.5,1,0,0,rectangle,4,9.5,1,0,0,,,,,,,4,9.5,1,0,0,,0,115,115,38,1,
,,,,,,,,,,,,,FF,,,,,,,,0.9334,,,,,,,,,,,,,,,,,,,,,,5da3501124681c0015e6f56c,60e56392ceb7aeb9d000fd93,2021-07-07_10h20.48.086,Simcolourproject_2stim_asymm_v5,2020.2.10,Win32,60,60e52e7cfedb1dae636df45f,,,,,,,,,1017,98,-38.5,1,0,0,response3disk,,5,10,6.5,1,0,0,rectangle,10,6.5,1,0,0,,,,,,,10,6.5,1,0,0,,0,116,116,133,1,
,,,,,,,,,,,,,FF,,,,,,,,0.9332,,,,,,,,,,,,,,,,,,,,,,5da3501124681c0015e6f56c,60e56392ceb7aeb9d000fd93,2021-07-07_10h20.48.086,Simcolourproject_2stim_asymm_v5,2020.2.10,Win32,60,60e52e7cfedb1dae636df45f,,,,,,,,,1162,110,-57.5,1,0,0,response3disk,,5,5,4.5,1,0,0,rectangle,5,4.5,1,0,0,,,,,,,5,4.5,1,0,0,,0,117,117,114,1,
,,,,,,,,,,,,,FF,,,,,,,,2.8696,,,,,,,,,,,,,,,,,,,,,,5da3501124681c0015e6f56c,60e56392ceb7aeb9d000fd93,2021-07-07_10h20.48.086,Simcolourproject_2stim_asymm_v5,2020.2.10,Win32,60,60e52e7cfedb1dae636df45f,,,,,,,,,3347,136,74.5,1,0,0,response1disk,,6,7,-4.5,1,0,0,rectangle,7,-4.5,1,0,0,,,,,,,7,-4.5,1,0,0,,0,118,118,90,1,
,,,,,,,,,,,,,FF,,,,,,,,1.3494,,,,,,,,,,,,,,,,,,,,,,5da3501124681c0015e6f56c,60e56392ceb7aeb9d000fd93,2021-07-07_10h20.48.086,Simcolourproject_2stim_asymm_v5,2020.2.10,Win32,60,60e52e7cfedb1dae636df45f,,,,,,,,,3240,-70,-119.5,1,0,0,response5disk,,3,5,4.5,1,0,0,rectangle,5,4.5,1,0,0,,,,,,,5,4.5,1,0,0,,0,119,119,37,1,
,,,,,,,,,,,,,FF,,,,,,,,0.8997,,,,,,,,,,,,,,,,,,,,,,5da3501124681c0015e6f56c,60e56392ceb7aeb9d000fd93,2021-07-07_10h20.48.086,Simcolourproject_2stim_asymm_v5,2020.2.10,Win32,60,60e52e7cfedb1dae636df45f,,,,,,,,,311,127,54.5,1,0,0,response1disk,,6,5,4.5,1,0,0,rectangle,5,4.5,1,0,0,,,,,,,5,4.5,1,0,0,,0,120,120,47,1,
,,,,,,,,,,,,,FF,,,,,,,,1.5167,,,,,,,,,,,,,,,,,,,,,,5da3501124681c0015e6f56c,60e56392ceb7aeb9d000fd93,2021-07-07_10h20.48.086,Simcolourproject_2stim_asymm_v5,2020.2.10,Win32,60,60e52e7cfedb1dae636df45f,,,,,,,,,459,-57,-127.5,1,0,0,response5disk,,3,-11,2.5,1,0,0,rectangle,-11,2.5,1,0,0,,,,,,,-11,2.5,1,0,0,,0,121,121,115,1,
,,,,,,,,,,,,,FF,,,,,,,,0.5831,,,,,,,,,,,,,,,,,,,,,,5da3501124681c0015e6f56c,60e56392ceb7aeb9d000fd93,2021-07-07_10h20.48.086,Simcolourproject_2stim_asymm_v5,2020.2.10,Win32,60,60e52e7cfedb1dae636df45f,,,,,,,,,4343,-84,148.5,1,0,0,response7disk,,0,1,6.5,1,0,0,rectangle,1,6.5,1,0,0,,,,,,,1,6.5,1,0,0,,0,122,122,2,1,
,,,,,,,,,,,,,FF,,,,,,,,1.2321,,,,,,,,,,,,,,,,,,,,,,5da3501124681c0015e6f56c,60e56392ceb7aeb9d000fd93,2021-07-07_10h20.48.086,Simcolourproject_2stim_asymm_v5,2020.2.10,Win32,60,60e52e7cfedb1dae636df45f,,,,,,,,,1280,127,-43.5,1,0,0,response3disk,,5,1,-2.5,1,0,0,rectangle,1,-2.5,1,0,0,,,,,,,1,-2.5,1,0,0,,0,123,123,77,1,
,,,,,,,,,,,,,FF,,,,,,,,0.9333,,,,,,,,,,,,,,,,,,,,,,5da3501124681c0015e6f56c,60e56392ceb7aeb9d000fd93,2021-07-07_10h20.48.086,Simcolourproject_2stim_asymm_v5,2020.2.10,Win32,60,60e52e7cfedb1dae636df45f,,,,,,,,,1109,63,138.5,1,0,0,response1disk,,7,14,8.5,1,0,0,rectangle,14,8.5,1,0,0,,,,,,,14,8.5,1,0,0,,0,124,124,141,1,
,,,,,,,,,,,,,FF,,,,,,,,1.5498,,,,,,,,,,,,,,,,,,,,,,5da3501124681c0015e6f56c,60e56392ceb7aeb9d000fd93,2021-07-07_10h20.48.086,Simcolourproject_2stim_asymm_v5,2020.2.10,Win32,60,60e52e7cfedb1dae636df45f,,,,,,,,,1587,-62,-107.5,1,0,0,response5disk,,3,-7,-0.5,1,0,0,rectangle,-7,-0.5,1,0,0,,,,,,,-7,-0.5,1,0,0,,0,125,125,23,1,
,,,,,,,,,,,,,FF,,,,,,,,1.3362,,,,,,,,,,,,,,,,,,,,,,5da3501124681c0015e6f56c,60e56392ceb7aeb9d000fd93,2021-07-07_10h20.48.086,Simcolourproject_2stim_asymm_v5,2020.2.10,Win32,60,60e52e7cfedb1dae636df45f,,,,,,,,,867,53,-104.5,1,0,0,response3disk,,4,-2,-9.5,1,0,0,rectangle,-61,-144.5,1,0,0,response5disk_3,TRUE,3,3,"[282,127,39,1,187,181,207,296,241,306,52,277,226,279,263,52,33,206,144,266]",2.4318,9,-5.5,1,0,0,rectangle,0,126,126,10,1,
,,,,,,,,,,,,,FF,,,,,,,,1.5998,,,,,,,,,,,,,,,,,,,,,,5da3501124681c0015e6f56c,60e56392ceb7aeb9d000fd93,2021-07-07_10h20.48.086,Simcolourproject_2stim_asymm_v5,2020.2.10,Win32,60,60e52e7cfedb1dae636df45f,,,,,,,,,1047,115,-52.5,1,0,0,response3disk,,5,-3,14.5,1,0,0,rectangle,-3,14.5,1,0,0,,,,,,,-3,14.5,1,0,0,,0,127,127,5,1,
,,,,,,,,,,,,,FF,,,,,,,,0.9331,,,,,,,,,,,,,,,,,,,,,,5da3501124681c0015e6f56c,60e56392ceb7aeb9d000fd93,2021-07-07_10h20.48.086,Simcolourproject_2stim_asymm_v5,2020.2.10,Win32,60,60e52e7cfedb1dae636df45f,,,,,,,,,2465,88,-65.5,1,0,0,response3disk,,5,-26,2.5,1,0,0,rectangle,-26,2.5,1,0,0,,,,,,,-26,2.5,1,0,0,,0,128,128,125,1,
,,,,,,,,,,,,,FF,,,,,,,,0.6167,,,,,,,,,,,,,,,,,,,,,,5da3501124681c0015e6f56c,60e56392ceb7aeb9d000fd93,2021-07-07_10h20.48.086,Simcolourproject_2stim_asymm_v5,2020.2.10,Win32,60,60e52e7cfedb1dae636df45f,,,,,,,,,2203,93,63.5,1,0,0,response1disk,,6,12,11.5,1,0,0,rectangle,12,11.5,1,0,0,,,,,,,12,11.5,1,0,0,,0,129,129,95,1,
,,,,,,,,,,,,,FF,,,,,,,,1.3332,,,,,,,,,,,,,,,,,,,,,,5da3501124681c0015e6f56c,60e56392ceb7aeb9d000fd93,2021-07-07_10h20.48.086,Simcolourproject_2stim_asymm_v5,2020.2.10,Win32,60,60e52e7cfedb1dae636df45f,,,,,,,,,2122,116,40.5,1,0,0,response1disk,,6,-4,-6.5,1,0,0,rectangle,-4,-6.5,1,0,0,,,,,,,-4,-6.5,1,0,0,,0,130,130,71,1,
,,,,,,,,,,,,,FF,,,,,,,,1.3333,,,,,,,,,,,,,,,,,,,,,,5da3501124681c0015e6f56c,60e56392ceb7aeb9d000fd93,2021-07-07_10h20.48.086,Simcolourproject_2stim_asymm_v5,2020.2.10,Win32,60,60e52e7cfedb1dae636df45f,,,,,,,,,644,-70,-100.5,1,0,0,response5disk,,3,0,8.5,1,0,0,rectangle,0,8.5,1,0,0,,,,,,,0,8.5,1,0,0,,0,131,131,101,1,
,,,,,,,,,,,,,FF,,,,,,,,1.8998,,,,,,,,,,,,,,,,,,,,,,5da3501124681c0015e6f56c,60e56392ceb7aeb9d000fd93,2021-07-07_10h20.48.086,Simcolourproject_2stim_asymm_v5,2020.2.10,Win32,60,60e52e7cfedb1dae636df45f,,,,,,,,,4043,130,60.5,1,0,0,response1disk,,6,2,-7.5,1,0,0,rectangle,2,-7.5,1,0,0,,,,,,,2,-7.5,1,0,0,,0,132,132,6,1,
,,,,,,,,,,,,,FF,,,,,,,,1.3337,,,,,,,,,,,,,,,,,,,,,,5da3501124681c0015e6f56c,60e56392ceb7aeb9d000fd93,2021-07-07_10h20.48.086,Simcolourproject_2stim_asymm_v5,2020.2.10,Win32,60,60e52e7cfedb1dae636df45f,,,,,,,,,549,-110,-48.5,1,0,0,response5disk,,2,-4,17.5,1,0,0,rectangle,-4,17.5,1,0,0,,,,,,,-4,17.5,1,0,0,,0,133,133,88,1,
,,,,,,,,,,,,,FF,,,,,,,,0.517,,,,,,,,,,,,,,,,,,,,,,5da3501124681c0015e6f56c,60e56392ceb7aeb9d000fd93,2021-07-07_10h20.48.086,Simcolourproject_2stim_asymm_v5,2020.2.10,Win32,60,60e52e7cfedb1dae636df45f,,,,,,,,,3705,-55,110.5,1,0,0,response7disk,,0,-9,2.5,1,0,0,rectangle,-9,2.5,1,0,0,,,,,,,-9,2.5,1,0,0,,0,134,134,158,1,
,,,,,,,,,,,,,FF,,,,,,,,1.0992,,,,,,,,,,,,,,,,,,,,,,5da3501124681c0015e6f56c,60e56392ceb7aeb9d000fd93,2021-07-07_10h20.48.086,Simcolourproject_2stim_asymm_v5,2020.2.10,Win32,60,60e52e7cfedb1dae636df45f,,,,,,,,,1194,-115,51.5,1,0,0,response7disk,,1,-8,12.5,1,0,0,rectangle,-8,12.5,1,0,0,,,,,,,-8,12.5,1,0,0,,0,135,135,89,1,
,,,,,,,,,,,,,FF,,,,,,,,0.5855,,,,,,,,,,,,,,,,,,,,,,5da3501124681c0015e6f56c,60e56392ceb7aeb9d000fd93,2021-07-07_10h20.48.086,Simcolourproject_2stim_asymm_v5,2020.2.10,Win32,60,60e52e7cfedb1dae636df45f,,,,,,,,,463,-98,67.5,1,0,0,response7disk,,1,-4,10.5,1,0,0,rectangle,-4,10.5,1,0,0,,,,,,,-4,10.5,1,0,0,,0,136,136,70,1,
,,,,,,,,,,,,,FF,,,,,,,,0.5835,,,,,,,,,,,,,,,,,,,,,,5da3501124681c0015e6f56c,60e56392ceb7aeb9d000fd93,2021-07-07_10h20.48.086,Simcolourproject_2stim_asymm_v5,2020.2.10,Win32,60,60e52e7cfedb1dae636df45f,,,,,,,,,989,-111,52.5,1,0,0,response7disk,,1,-1,14.5,1,0,0,rectangle,-1,14.5,1,0,0,,,,,,,-1,14.5,1,0,0,,0,137,137,52,1,
,,,,,,,,,,,,,FF,,,,,,,,1.1501,,,,,,,,,,,,,,,,,,,,,,5da3501124681c0015e6f56c,60e56392ceb7aeb9d000fd93,2021-07-07_10h20.48.086,Simcolourproject_2stim_asymm_v5,2020.2.10,Win32,60,60e52e7cfedb1dae636df45f,,,,,,,,,342,67,-121.5,1,0,0,response3disk,,4,-16,-13.5,1,0,0,rectangle,-16,-13.5,1,0,0,,,,,,,-16,-13.5,1,0,0,,0,138,138,39,1,
,,,,,,,,,,,,,FF,,,,,,,,1.0664,,,,,,,,,,,,,,,,,,,,,,5da3501124681c0015e6f56c,60e56392ceb7aeb9d000fd93,2021-07-07_10h20.48.086,Simcolourproject_2stim_asymm_v5,2020.2.10,Win32,60,60e52e7cfedb1dae636df45f,,,,,,,,,2961,-70,129.5,1,0,0,response7disk,,0,12,-1.5,1,0,0,rectangle,12,-1.5,1,0,0,,,,,,,12,-1.5,1,0,0,,0,139,139,1,1,
,,,,,,,,,,,,,FF,,,,,,,,1.8334,,,,,,,,,,,,,,,,,,,,,,5da3501124681c0015e6f56c,60e56392ceb7aeb9d000fd93,2021-07-07_10h20.48.086,Simcolourproject_2stim_asymm_v5,2020.2.10,Win32,60,60e52e7cfedb1dae636df45f,,,,,,,,,4311,66,157.5,1,0,0,response1disk,,7,-1,0.5,1,0,0,rectangle,-1,0.5,1,0,0,,,,,,,-1,0.5,1,0,0,,0,140,140,127,1,
,,,,,,,,,,,,,FF,,,,,,,,1.4333,,,,,,,,,,,,,,,,,,,,,,5da3501124681c0015e6f56c,60e56392ceb7aeb9d000fd93,2021-07-07_10h20.48.086,Simcolourproject_2stim_asymm_v5,2020.2.10,Win32,60,60e52e7cfedb1dae636df45f,,,,,,,,,4060,-25,-108.5,1,0,0,response5disk,,3,9,1.5,1,0,0,rectangle,9,1.5,1,0,0,,,,,,,9,1.5,1,0,0,,0,141,141,54,1,
,,,,,,,,,,,,,FF,,,,,,,,0.9504,,,,,,,,,,,,,,,,,,,,,,5da3501124681c0015e6f56c,60e56392ceb7aeb9d000fd93,2021-07-07_10h20.48.086,Simcolourproject_2stim_asymm_v5,2020.2.10,Win32,60,60e52e7cfedb1dae636df45f,,,,,,,,,2233,-139,67.5,1,0,0,response7disk,,1,4,6.5,1,0,0,rectangle,4,6.5,1,0,0,,,,,,,4,6.5,1,0,0,,0,142,142,109,1,
,,,,,,,,,,,,,FF,,,,,,,,0.9494,,,,,,,,,,,,,,,,,,,,,,5da3501124681c0015e6f56c,60e56392ceb7aeb9d000fd93,2021-07-07_10h20.48.086,Simcolourproject_2stim_asymm_v5,2020.2.10,Win32,60,60e52e7cfedb1dae636df45f,,,,,,,,,28,103,-59.5,1,0,0,response3disk,,5,10,-2.5,1,0,0,rectangle,46,171.5,1,0,0,response1disk_3,TRUE,7,7,"[282,127,39,1,187,181,207,296,241,306,52,277,226,279,263,52,33,206,144,266]",1.7491,8,0.5,1,0,0,rectangle,0,143,143,36,1,
,,,,,,,,,,,,,FF,,,,,,,,2.0001,,,,,,,,,,,,,,,,,,,,,,5da3501124681c0015e6f56c,60e56392ceb7aeb9d000fd93,2021-07-07_10h20.48.086,Simcolourproject_2stim_asymm_v5,2020.2.10,Win32,60,60e52e7cfedb1dae636df45f,,,,,,,,,78,-105,38.5,1,0,0,response7disk,,1,-13,3.5,1,0,0,rectangle,-13,3.5,1,0,0,,,,,,,-13,3.5,1,0,0,,0,144,144,121,1,
,,,,,,,,,,,,,FF,,,,,,,,1.6193,,,,,,,,,,,,,,,,,,,,,,5da3501124681c0015e6f56c,60e56392ceb7aeb9d000fd93,2021-07-07_10h20.48.086,Simcolourproject_2stim_asymm_v5,2020.2.10,Win32,60,60e52e7cfedb1dae636df45f,,,,,,,,,1814,103,-71.5,1,0,0,response3disk,,5,8,-5.5,1,0,0,rectangle,8,-5.5,1,0,0,,,,,,,8,-5.5,1,0,0,,0,145,145,105,1,
,,,,,,,,,,,,,FF,,,,,,,,1.3663,,,,,,,,,,,,,,,,,,,,,,5da3501124681c0015e6f56c,60e56392ceb7aeb9d000fd93,2021-07-07_10h20.48.086,Simcolourproject_2stim_asymm_v5,2020.2.10,Win32,60,60e52e7cfedb1dae636df45f,,,,,,,,,1413,68,-53.5,1,0,0,response3disk,,5,-19,8.5,1,0,0,rectangle,-19,8.5,1,0,0,,,,,,,-19,8.5,1,0,0,,0,146,146,104,1,
,,,,,,,,,,,,,FF,,,,,,,,0.901,,,,,,,,,,,,,,,,,,,,,,5da3501124681c0015e6f56c,60e56392ceb7aeb9d000fd93,2021-07-07_10h20.48.086,Simcolourproject_2stim_asymm_v5,2020.2.10,Win32,60,60e52e7cfedb1dae636df45f,,,,,,,,,1235,51,-100.5,1,0,0,response3disk,,4,4,-2.5,1,0,0,rectangle,4,-2.5,1,0,0,,,,,,,4,-2.5,1,0,0,,0,147,147,42,1,
,,,,,,,,,,,,,FF,,,,,,,,1.9503,,,,,,,,,,,,,,,,,,,,,,5da3501124681c0015e6f56c,60e56392ceb7aeb9d000fd93,2021-07-07_10h20.48.086,Simcolourproject_2stim_asymm_v5,2020.2.10,Win32,60,60e52e7cfedb1dae636df45f,,,,,,,,,3737,-66,-111.5,1,0,0,response5disk,,3,-1,4.5,1,0,0,rectangle,-1,4.5,1,0,0,,,,,,,-1,4.5,1,0,0,,0,148,148,33,1,
,,,,,,,,,,,,,FF,,,,,,,,2.0168,,,,,,,,,,,,,,,,,,,,,,5da3501124681c0015e6f56c,60e56392ceb7aeb9d000fd93,2021-07-07_10h20.48.086,Simcolourproject_2stim_asymm_v5,2020.2.10,Win32,60,60e52e7cfedb1dae636df45f,,,,,,,,,1066,-30,-73.5,1,0,0,response5disk,,3,-3,-0.5,1,0,0,rectangle,-3,-0.5,1,0,0,,,,,,,-3,-0.5,1,0,0,,0,149,149,63,1,
,,,,,,,,,,,,,FF,,,,,,,,1.0998,,,,,,,,,,,,,,,,,,,,,,5da3501124681c0015e6f56c,60e56392ceb7aeb9d000fd93,2021-07-07_10h20.48.086,Simcolourproject_2stim_asymm_v5,2020.2.10,Win32,60,60e52e7cfedb1dae636df45f,,,,,,,,,1985,123,47.5,1,0,0,response1disk,,6,-1,-3.5,1,0,0,rectangle,-1,-3.5,1,0,0,,,,,,,-1,-3.5,1,0,0,,0,150,150,93,1,
,,,,,,,,,,,,,FF,,,,,,,,0.7335,,,,,,,,,,,,,,,,,,,,,,5da3501124681c0015e6f56c,60e56392ceb7aeb9d000fd93,2021-07-07_10h20.48.086,Simcolourproject_2stim_asymm_v5,2020.2.10,Win32,60,60e52e7cfedb1dae636df45f,,,,,,,,,3000,-57,116.5,1,0,0,response7disk,,0,5,5.5,1,0,0,rectangle,5,5.5,1,0,0,,,,,,,5,5.5,1,0,0,,0,151,151,79,1,
,,,,,,,,,,,,,FF,,,,,,,,2.9662,,,,,,,,,,,,,,,,,,,,,,5da3501124681c0015e6f56c,60e56392ceb7aeb9d000fd93,2021-07-07_10h20.48.086,Simcolourproject_2stim_asymm_v5,2020.2.10,Win32,60,60e52e7cfedb1dae636df45f,,,,,,,,,3340,41,-119.5,1,0,0,response3disk,,4,-9,3.5,1,0,0,rectangle,-9,3.5,1,0,0,,,,,,,-9,3.5,1,0,0,,0,152,152,32,1,
,,,,,,,,,,,,,FF,,,,,,,,143.416,,,,,,,,,,,,,,,,,,,,,,5da3501124681c0015e6f56c,60e56392ceb7aeb9d000fd93,2021-07-07_10h20.48.086,Simcolourproject_2stim_asymm_v5,2020.2.10,Win32,60,60e52e7cfedb1dae636df45f,,,,,,,,,875,91,-47.5,1,0,0,response3disk,,5,23,0.5,1,0,0,rectangle,23,0.5,1,0,0,,,,,,,23,0.5,1,0,0,,0,153,153,120,1,
,,,,,,,,,,,,,FF,,,,,,,,1.6343,,,,,,,,,,,,,,,,,,,,,,5da3501124681c0015e6f56c,60e56392ceb7aeb9d000fd93,2021-07-07_10h20.48.086,Simcolourproject_2stim_asymm_v5,2020.2.10,Win32,60,60e52e7cfedb1dae636df45f,,,,,,,,,3770,50,-131.5,1,0,0,response3disk,,4,-15,-10.5,1,0,0,rectangle,-15,-10.5,1,0,0,,,,,,,-15,-10.5,1,0,0,,0,154,154,147,1,
,,,,,,,,,,,,,FF,,,,,,,,1.366,,,,,,,,,,,,,,,,,,,,,,5da3501124681c0015e6f56c,60e56392ceb7aeb9d000fd93,2021-07-07_10h20.48.086,Simcolourproject_2stim_asymm_v5,2020.2.10,Win32,60,60e52e7cfedb1dae636df45f,,,,,,,,,1655,85,-51.5,1,0,0,response3disk,,5,0,-5.5,1,0,0,rectangle,0,-5.5,1,0,0,,,,,,,0,-5.5,1,0,0,,0,155,155,11,1,
,,,,,,,,,,,,,FF,,,,,,,,1.1166,,,,,,,,,,,,,,,,,,,,,,5da3501124681c0015e6f56c,60e56392ceb7aeb9d000fd93,2021-07-07_10h20.48.086,Simcolourproject_2stim_asymm_v5,2020.2.10,Win32,60,60e52e7cfedb1dae636df45f,,,,,,,,,172,-93,-72.5,1,0,0,response5disk,,2,-14,-5.5,1,0,0,rectangle,-14,-5.5,1,0,0,,,,,,,-14,-5.5,1,0,0,,0,156,156,84,1,
,,,,,,,,,,,,,FF,,,,,,,,0.8166,,,,,,,,,,,,,,,,,,,,,,5da3501124681c0015e6f56c,60e56392ceb7aeb9d000fd93,2021-07-07_10h20.48.086,Simcolourproject_2stim_asymm_v5,2020.2.10,Win32,60,60e52e7cfedb1dae636df45f,,,,,,,,,2925,-141,-67.5,1,0,0,response5disk,,2,-16,-5.5,1,0,0,rectangle,-16,-5.5,1,0,0,,,,,,,-16,-5.5,1,0,0,,0,157,157,73,1,
,,,,,,,,,,,,,FF,,,,,,,,0.8832,,,,,,,,,,,,,,,,,,,,,,5da3501124681c0015e6f56c,60e56392ceb7aeb9d000fd93,2021-07-07_10h20.48.086,Simcolourproject_2stim_asymm_v5,2020.2.10,Win32,60,60e52e7cfedb1dae636df45f,,,,,,,,,744,111,-61.5,1,0,0,response3disk,,5,21,-11.5,1,0,0,rectangle,21,-11.5,1,0,0,,,,,,,21,-11.5,1,0,0,,0,158,158,119,1,
,,,,,,,,,,,,,FF,,,,,,,,0.9166,,,,,,,,,,,,,,,,,,,,,,5da3501124681c0015e6f56c,60e56392ceb7aeb9d000fd93,2021-07-07_10h20.48.086,Simcolourproject_2stim_asymm_v5,2020.2.10,Win32,60,60e52e7cfedb1dae636df45f,,,,,,,,,4153,83,101.5,1,0,0,response1disk,,7,6,6.5,1,0,0,rectangle,6,6.5,1,0,0,,,,,,,6,6.5,1,0,0,,0,159,159,122,1,
,,,,,,,,,,,,,FF,,,,,,,,1.0832,,,,,,,,,,,,,,,,,,,,,,5da3501124681c0015e6f56c,60e56392ceb7aeb9d000fd93,2021-07-07_10h20.48.086,Simcolourproject_2stim_asymm_v5,2020.2.10,Win32,60,60e52e7cfedb1dae636df45f,,,,,,,,,4231,-44,-108.5,1,0,0,response5disk,,3,-4,-6.5,1,0,0,rectangle,-4,-6.5,1,0,0,,,,,,,-4,-6.5,1,0,0,,1,0,160,10,1,
,,,,,,,,,,,,,FF,,,,,,,,1.7833,,,,,,,,,,,,,,,,,,,,,,5da3501124681c0015e6f56c,60e56392ceb7aeb9d000fd93,2021-07-07_10h20.48.086,Simcolourproject_2stim_asymm_v5,2020.2.10,Win32,60,60e52e7cfedb1dae636df45f,,,,,,,,,3944,-96,-44.5,1,0,0,response5disk,,2,12,3.5,1,0,0,rectangle,12,3.5,1,0,0,,,,,,,12,3.5,1,0,0,,1,1,161,20,1,
,,,,,,,,,,,,,FF,,,,,,,,2.3166,,,,,,,,,,,,,,,,,,,,,,5da3501124681c0015e6f56c,60e56392ceb7aeb9d000fd93,2021-07-07_10h20.48.086,Simcolourproject_2stim_asymm_v5,2020.2.10,Win32,60,60e52e7cfedb1dae636df45f,,,,,,,,,2891,-92,60.5,1,0,0,response7disk,,1,1,9.5,1,0,0,rectangle,1,9.5,1,0,0,,,,,,,1,9.5,1,0,0,,1,2,162,31,1,
,,,,,,,,,,,,,FF,,,,,,,,1.1164,,,,,,,,,,,,,,,,,,,,,,5da3501124681c0015e6f56c,60e56392ceb7aeb9d000fd93,2021-07-07_10h20.48.086,Simcolourproject_2stim_asymm_v5,2020.2.10,Win32,60,60e52e7cfedb1dae636df45f,,,,,,,,,3249,-118,-50.5,1,0,0,response5disk,,2,-9,0.5,1,0,0,rectangle,-9,0.5,1,0,0,,,,,,,-9,0.5,1,0,0,,1,3,163,159,1,
,,,,,,,,,,,,,FF,,,,,,,,1.2833,,,,,,,,,,,,,,,,,,,,,,5da3501124681c0015e6f56c,60e56392ceb7aeb9d000fd93,2021-07-07_10h20.48.086,Simcolourproject_2stim_asymm_v5,2020.2.10,Win32,60,60e52e7cfedb1dae636df45f,,,,,,,,,3790,53,-83.5,1,0,0,response3disk,,4,7,8.5,1,0,0,rectangle,7,8.5,1,0,0,,,,,,,7,8.5,1,0,0,,1,4,164,75,1,
,,,,,,,,,,,,,FF,,,,,,,,0.8834,,,,,,,,,,,,,,,,,,,,,,5da3501124681c0015e6f56c,60e56392ceb7aeb9d000fd93,2021-07-07_10h20.48.086,Simcolourproject_2stim_asymm_v5,2020.2.10,Win32,60,60e52e7cfedb1dae636df45f,,,,,,,,,275,-99,-55.5,1,0,0,response5disk,,2,-6,1.5,1,0,0,rectangle,-6,1.5,1,0,0,,,,,,,-6,1.5,1,0,0,,1,5,165,36,1,
,,,,,,,,,,,,,FF,,,,,,,,1.0001,,,,,,,,,,,,,,,,,,,,,,5da3501124681c0015e6f56c,60e56392ceb7aeb9d000fd93,2021-07-07_10h20.48.086,Simcolourproject_2stim_asymm_v5,2020.2.10,Win32,60,60e52e7cfedb1dae636df45f,,,,,,,,,145,83,50.5,1,0,0,response1disk,,6,6,7.5,1,0,0,rectangle,6,7.5,1,0,0,,,,,,,6,7.5,1,0,0,,1,6,166,105,1,
,,,,,,,,,,,,,FF,,,,,,,,1.0834,,,,,,,,,,,,,,,,,,,,,,5da3501124681c0015e6f56c,60e56392ceb7aeb9d000fd93,2021-07-07_10h20.48.086,Simcolourproject_2stim_asymm_v5,2020.2.10,Win32,60,60e52e7cfedb1dae636df45f,,,,,,,,,2152,-109,54.5,1,0,0,response7disk,,1,16,-4.5,1,0,0,rectangle,16,-4.5,1,0,0,,,,,,,16,-4.5,1,0,0,,1,7,167,67,1,
,,,,,,,,,,,,,FF,,,,,,,,1.0835,,,,,,,,,,,,,,,,,,,,,,5da3501124681c0015e6f56c,60e56392ceb7aeb9d000fd93,2021-07-07_10h20.48.086,Simcolourproject_2stim_asymm_v5,2020.2.10,Win32,60,60e52e7cfedb1dae636df45f,,,,,,,,,1455,-71,112.5,1,0,0,response7disk,,0,-3,3.5,1,0,0,rectangle,-3,3.5,1,0,0,,,,,,,-3,3.5,1,0,0,,1,8,168,17,1,
,,,,,,,,,,,,,FF,,,,,,,,0.6833,,,,,,,,,,,,,,,,,,,,,,5da3501124681c0015e6f56c,60e56392ceb7aeb9d000fd93,2021-07-07_10h20.48.086,Simcolourproject_2stim_asymm_v5,2020.2.10,Win32,60,60e52e7cfedb1dae636df45f,,,,,,,,,2165,-94,44.5,1,0,0,response7disk,,1,0,-10.5,1,0,0,rectangle,0,-10.5,1,0,0,,,,,,,0,-10.5,1,0,0,,1,9,169,53,1,
,,,,,,,,,,,,,FF,,,,,,,,0.7833,,,,,,,,,,,,,,,,,,,,,,5da3501124681c0015e6f56c,60e56392ceb7aeb9d000fd93,2021-07-07_10h20.48.086,Simcolourproject_2stim_asymm_v5,2020.2.10,Win32,60,60e52e7cfedb1dae636df45f,,,,,,,,,3260,116,45.5,1,0,0,response1disk,,6,-13,-3.5,1,0,0,rectangle,-13,-3.5,1,0,0,,,,,,,-13,-3.5,1,0,0,,1,10,170,14,1,
,,,,,,,,,,,,,FF,,,,,,,,0.5998,,,,,,,,,,,,,,,,,,,,,,5da3501124681c0015e6f56c,60e56392ceb7aeb9d000fd93,2021-07-07_10h20.48.086,Simcolourproject_2stim_asymm_v5,2020.2.10,Win32,60,60e52e7cfedb1dae636df45f,,,,,,,,,2906,48,113.5,1,0,0,response1disk,,7,2,3.5,1,0,0,rectangle,2,3.5,1,0,0,,,,,,,2,3.5,1,0,0,,1,11,171,107,1,
,,,,,,,,,,,,,FF,,,,,,,,1.2002,,,,,,,,,,,,,,,,,,,,,,5da3501124681c0015e6f56c,60e56392ceb7aeb9d000fd93,2021-07-07_10h20.48.086,Simcolourproject_2stim_asymm_v5,2020.2.10,Win32,60,60e52e7cfedb1dae636df45f,,,,,,,,,2908,62,-114.5,1,0,0,response3disk,,4,1,-1.5,1,0,0,rectangle,1,-1.5,1,0,0,,,,,,,1,-1.5,1,0,0,,1,12,172,39,1,
,,,,,,,,,,,,,FF,,,,,,,,0.9833,,,,,,,,,,,,,,,,,,,,,,5da3501124681c0015e6f56c,60e56392ceb7aeb9d000fd93,2021-07-07_10h20.48.086,Simcolourproject_2stim_asymm_v5,2020.2.10,Win32,60,60e52e7cfedb1dae636df45f,,,,,,,,,2307,-56,-103.5,1,0,0,response5disk,,3,-7,0.5,1,0,0,rectangle,-7,0.5,1,0,0,,,,,,,-7,0.5,1,0,0,,1,13,173,97,1,
,,,,,,,,,,,,,FF,,,,,,,,1.9349,,,,,,,,,,,,,,,,,,,,,,5da3501124681c0015e6f56c,60e56392ceb7aeb9d000fd93,2021-07-07_10h20.48.086,Simcolourproject_2stim_asymm_v5,2020.2.10,Win32,60,60e52e7cfedb1dae636df45f,,,,,,,,,3110,127,-43.5,1,0,0,response3disk,,5,10,3.5,1,0,0,rectangle,10,3.5,1,0,0,,,,,,,10,3.5,1,0,0,,1,14,174,128,1,
,,,,,,,,,,,,,FF,,,,,,,,1.2164,,,,,,,,,,,,,,,,,,,,,,5da3501124681c0015e6f56c,60e56392ceb7aeb9d000fd93,2021-07-07_10h20.48.086,Simcolourproject_2stim_asymm_v5,2020.2.10,Win32,60,60e52e7cfedb1dae636df45f,,,,,,,,,2829,-116,41.5,1,0,0,response7disk,,1,-2,8.5,1,0,0,rectangle,-2,8.5,1,0,0,,,,,,,-2,8.5,1,0,0,,1,15,175,48,1,
,,,,,,,,,,,,,FF,,,,,,,,1.2167,,,,,,,,,,,,,,,,,,,,,,5da3501124681c0015e6f56c,60e56392ceb7aeb9d000fd93,2021-07-07_10h20.48.086,Simcolourproject_2stim_asymm_v5,2020.2.10,Win32,60,60e52e7cfedb1dae636df45f,,,,,,,,,3117,90,-52.5,1,0,0,response3disk,,5,2,10.5,1,0,0,rectangle,2,10.5,1,0,0,,,,,,,2,10.5,1,0,0,,1,16,176,79,1,
,,,,,,,,,,,,,FF,,,,,,,,2.7997,,,,,,,,,,,,,,,,,,,,,,5da3501124681c0015e6f56c,60e56392ceb7aeb9d000fd93,2021-07-07_10h20.48.086,Simcolourproject_2stim_asymm_v5,2020.2.10,Win32,60,60e52e7cfedb1dae636df45f,,,,,,,,,4299,111,44.5,1,0,0,response1disk,,6,7,-10.5,1,0,0,rectangle,7,-10.5,1,0,0,,,,,,,7,-10.5,1,0,0,,1,17,177,150,1,
,,,,,,,,,,,,,FF,,,,,,,,2.1335,,,,,,,,,,,,,,,,,,,,,,5da3501124681c0015e6f56c,60e56392ceb7aeb9d000fd93,2021-07-07_10h20.48.086,Simcolourproject_2stim_asymm_v5,2020.2.10,Win32,60,60e52e7cfedb1dae636df45f,,,,,,,,,2456,110,39.5,1,0,0,response1disk,,6,-1,-0.5,1,0,0,rectangle,-1,-0.5,1,0,0,,,,,,,-1,-0.5,1,0,0,,1,18,178,82,1,
,,,,,,,,,,,,,FF,,,,,,,,1.6999,,,,,,,,,,,,,,,,,,,,,,5da3501124681c0015e6f56c,60e56392ceb7aeb9d000fd93,2021-07-07_10h20.48.086,Simcolourproject_2stim_asymm_v5,2020.2.10,Win32,60,60e52e7cfedb1dae636df45f,,,,,,,,,2170,69,-128.5,1,0,0,response3disk,,4,-3,-8.5,1,0,0,rectangle,-3,-8.5,1,0,0,,,,,,,-3,-8.5,1,0,0,,1,19,179,68,1,
,,,,,,,,,,,,,FF,,,,,,,,1.7167,,,,,,,,,,,,,,,,,,,,,,5da3501124681c0015e6f56c,60e56392ceb7aeb9d000fd93,2021-07-07_10h20.48.086,Simcolourproject_2stim_asymm_v5,2020.2.10,Win32,60,60e52e7cfedb1dae636df45f,,,,,,,,,1086,65,-130.5,1,0,0,response3disk,,4,0,-0.5,1,0,0,rectangle,-62,-131.5,1,0,0,response5disk_3,TRUE,3,3,"[282,127,39,1,187,181,207,296,241,306,52,277,226,279,263,52,33,206,144,266]",1.5496,-8,2.5,1,0,0,rectangle,1,20,180,6,1,
,,,,,,,,,,,,,FF,,,,,,,,1.3164,,,,,,,,,,,,,,,,,,,,,,5da3501124681c0015e6f56c,60e56392ceb7aeb9d000fd93,2021-07-07_10h20.48.086,Simcolourproject_2stim_asymm_v5,2020.2.10,Win32,60,60e52e7cfedb1dae636df45f,,,,,,,,,2510,115,32.5,1,0,0,response1disk,,6,-10,1.5,1,0,0,rectangle,-10,1.5,1,0,0,,,,,,,-10,1.5,1,0,0,,1,21,181,125,1,
,,,,,,,,,,,,,FF,,,,,,,,1.0667,,,,,,,,,,,,,,,,,,,,,,5da3501124681c0015e6f56c,60e56392ceb7aeb9d000fd93,2021-07-07_10h20.48.086,Simcolourproject_2stim_asymm_v5,2020.2.10,Win32,60,60e52e7cfedb1dae636df45f,,,,,,,,,2790,-61,-105.5,1,0,0,response5disk,,3,2,1.5,1,0,0,rectangle,2,1.5,1,0,0,,,,,,,2,1.5,1,0,0,,1,22,182,29,1,
,,,,,,,,,,,,,FF,,,,,,,,1.0667,,,,,,,,,,,,,,,,,,,,,,5da3501124681c0015e6f56c,60e56392ceb7aeb9d000fd93,2021-07-07_10h20.48.086,Simcolourproject_2stim_asymm_v5,2020.2.10,Win32,60,60e52e7cfedb1dae636df45f,,,,,,,,,3236,-41,-108.5,1,0,0,response5disk,,3,0,0.5,1,0,0,rectangle,0,0.5,1,0,0,,,,,,,0,0.5,1,0,0,,1,23,183,113,1,
,,,,,,,,,,,,,FF,,,,,,,,0.8334,,,,,,,,,,,,,,,,,,,,,,5da3501124681c0015e6f56c,60e56392ceb7aeb9d000fd93,2021-07-07_10h20.48.086,Simcolourproject_2stim_asymm_v5,2020.2.10,Win32,60,60e52e7cfedb1dae636df45f,,,,,,,,,1283,47,-134.5,1,0,0,response3disk,,4,-7,15.5,1,0,0,rectangle,-7,15.5,1,0,0,,,,,,,-7,15.5,1,0,0,,1,24,184,69,1,
,,,,,,,,,,,,,FF,,,,,,,,0.6334,,,,,,,,,,,,,,,,,,,,,,5da3501124681c0015e6f56c,60e56392ceb7aeb9d000fd93,2021-07-07_10h20.48.086,Simcolourproject_2stim_asymm_v5,2020.2.10,Win32,60,60e52e7cfedb1dae636df45f,,,,,,,,,1808,66,-106.5,1,0,0,response3disk,,4,-8,1.5,1,0,0,rectangle,-8,1.5,1,0,0,,,,,,,-8,1.5,1,0,0,,1,25,185,57,1,
,,,,,,,,,,,,,FF,,,,,,,,1.4333,,,,,,,,,,,,,,,,,,,,,,5da3501124681c0015e6f56c,60e56392ceb7aeb9d000fd93,2021-07-07_10h20.48.086,Simcolourproject_2stim_asymm_v5,2020.2.10,Win32,60,60e52e7cfedb1dae636df45f,,,,,,,,,941,124,-51.5,1,0,0,response3disk,,5,4,2.5,1,0,0,rectangle,140,59.5,1,0,0,response1disk_3,TRUE,6,6,"[282,127,39,1,187,181,207,296,241,306,52,277,226,279,263,52,33,206,144,266]",1.7995,-3,-13.5,1,0,0,rectangle,1,26,186,151,1,
,,,,,,,,,,,,,FF,,,,,,,,1.1001,,,,,,,,,,,,,,,,,,,,,,5da3501124681c0015e6f56c,60e56392ceb7aeb9d000fd93,2021-07-07_10h20.48.086,Simcolourproject_2stim_asymm_v5,2020.2.10,Win32,60,60e52e7cfedb1dae636df45f,,,,,,,,,4096,-127,37.5,1,0,0,response7disk,,1,-16,12.5,1,0,0,rectangle,-16,12.5,1,0,0,,,,,,,-16,12.5,1,0,0,,1,27,187,109,1,
,,,,,,,,,,,,,FF,,,,,,,,0.8332,,,,,,,,,,,,,,,,,,,,,,5da3501124681c0015e6f56c,60e56392ceb7aeb9d000fd93,2021-07-07_10h20.48.086,Simcolourproject_2stim_asymm_v5,2020.2.10,Win32,60,60e52e7cfedb1dae636df45f,,,,,,,,,3053,-152,58.5,1,0,0,response7disk,,1,-6,17.5,1,0,0,rectangle,-6,17.5,1,0,0,,,,,,,-6,17.5,1,0,0,,1,28,188,156,1,
,,,,,,,,,,,,,FF,,,,,,,,0.8666,,,,,,,,,,,,,,,,,,,,,,5da3501124681c0015e6f56c,60e56392ceb7aeb9d000fd93,2021-07-07_10h20.48.086,Simcolourproject_2stim_asymm_v5,2020.2.10,Win32,60,60e52e7cfedb1dae636df45f,,,,,,,,,4337,-87,-48.5,1,0,0,response5disk,,2,-9,5.5,1,0,0,rectangle,-9,5.5,1,0,0,,,,,,,-9,5.5,1,0,0,,1,29,189,25,1,
,,,,,,,,,,,,,FF,,,,,,,,0.9332,,,,,,,,,,,,,,,,,,,,,,5da3501124681c0015e6f56c,60e56392ceb7aeb9d000fd93,2021-07-07_10h20.48.086,Simcolourproject_2stim_asymm_v5,2020.2.10,Win32,60,60e52e7cfedb1dae636df45f,,,,,,,,,121,-70,104.5,1,0,0,response7disk,,0,-5,-12.5,1,0,0,rectangle,-5,-12.5,1,0,0,,,,,,,-5,-12.5,1,0,0,,1,30,190,83,1,
,,,,,,,,,,,,,FF,,,,,,,,0.8002,,,,,,,,,,,,,,,,,,,,,,5da3501124681c0015e6f56c,60e56392ceb7aeb9d000fd93,2021-07-07_10h20.48.086,Simcolourproject_2stim_asymm_v5,2020.2.10,Win32,60,60e52e7cfedb1dae636df45f,,,,,,,,,1150,-38,123.5,1,0,0,response7disk,,0,-18,5.5,1,0,0,rectangle,-18,5.5,1,0,0,,,,,,,-18,5.5,1,0,0,,1,31,191,135,1,
,,,,,,,,,,,,,FF,,,,,,,,3.1334,,,,,,,,,,,,,,,,,,,,,,5da3501124681c0015e6f56c,60e56392ceb7aeb9d000fd93,2021-07-07_10h20.48.086,Simcolourproject_2stim_asymm_v5,2020.2.10,Win32,60,60e52e7cfedb1dae636df45f,,,,,,,,,1685,-77,-78.5,1,0,0,response5disk,,3,-22,11.5,1,0,0,rectangle,-22,11.5,1,0,0,,,,,,,-22,11.5,1,0,0,,1,32,192,42,1,
,,,,,,,,,,,,,FF,,,,,,,,1.0833,,,,,,,,,,,,,,,,,,,,,,5da3501124681c0015e6f56c,60e56392ceb7aeb9d000fd93,2021-07-07_10h20.48.086,Simcolourproject_2stim_asymm_v5,2020.2.10,Win32,60,60e52e7cfedb1dae636df45f,,,,,,,,,1851,131,60.5,1,0,0,response1disk,,6,9,-9.5,1,0,0,rectangle,9,-9.5,1,0,0,,,,,,,9,-9.5,1,0,0,,1,33,193,85,1,
,,,,,,,,,,,,,FF,,,,,,,,0.9334,,,,,,,,,,,,,,,,,,,,,,5da3501124681c0015e6f56c,60e56392ceb7aeb9d000fd93,2021-07-07_10h20.48.086,Simcolourproject_2stim_asymm_v5,2020.2.10,Win32,60,60e52e7cfedb1dae636df45f,,,,,,,,,2988,-110,-44.5,1,0,0,response5disk,,2,-6,-6.5,1,0,0,rectangle,-6,-6.5,1,0,0,,,,,,,-6,-6.5,1,0,0,,1,34,194,118,1,
,,,,,,,,,,,,,FF,,,,,,,,1.2167,,,,,,,,,,,,,,,,,,,,,,5da3501124681c0015e6f56c,60e56392ceb7aeb9d000fd93,2021-07-07_10h20.48.086,Simcolourproject_2stim_asymm_v5,2020.2.10,Win32,60,60e52e7cfedb1dae636df45f,,,,,,,,,2337,47,114.5,1,0,0,response1disk,,7,-1,16.5,1,0,0,rectangle,-1,16.5,1,0,0,,,,,,,-1,16.5,1,0,0,,1,35,195,66,1,
,,,,,,,,,,,,,FF,,,,,,,,1.3832,,,,,,,,,,,,,,,,,,,,,,5da3501124681c0015e6f56c,60e56392ceb7aeb9d000fd93,2021-07-07_10h20.48.086,Simcolourproject_2stim_asymm_v5,2020.2.10,Win32,60,60e52e7cfedb1dae636df45f,,,,,,,,,3627,-125,-49.5,1,0,0,response5disk,,2,-2,-4.5,1,0,0,rectangle,-2,-4.5,1,0,0,,,,,,,-2,-4.5,1,0,0,,1,36,196,143,1,
,,,,,,,,,,,,,FF,,,,,,,,1.1331,,,,,,,,,,,,,,,,,,,,,,5da3501124681c0015e6f56c,60e56392ceb7aeb9d000fd93,2021-07-07_10h20.48.086,Simcolourproject_2stim_asymm_v5,2020.2.10,Win32,60,60e52e7cfedb1dae636df45f,,,,,,,,,2281,83,77.5,1,0,0,response1disk,,6,0,12.5,1,0,0,rectangle,0,12.5,1,0,0,,,,,,,0,12.5,1,0,0,,1,37,197,122,1,
,,,,,,,,,,,,,FF,,,,,,,,0.7,,,,,,,,,,,,,,,,,,,,,,5da3501124681c0015e6f56c,60e56392ceb7aeb9d000fd93,2021-07-07_10h20.48.086,Simcolourproject_2stim_asymm_v5,2020.2.10,Win32,60,60e52e7cfedb1dae636df45f,,,,,,,,,1075,99,75.5,1,0,0,response1disk,,6,20,12.5,1,0,0,rectangle,20,12.5,1,0,0,,,,,,,20,12.5,1,0,0,,1,38,198,78,1,
,,,,,,,,,,,,,FF,,,,,,,,0.5668,,,,,,,,,,,,,,,,,,,,,,5da3501124681c0015e6f56c,60e56392ceb7aeb9d000fd93,2021-07-07_10h20.48.086,Simcolourproject_2stim_asymm_v5,2020.2.10,Win32,60,60e52e7cfedb1dae636df45f,,,,,,,,,920,48,102.5,1,0,0,response1disk,,7,4,-3.5,1,0,0,rectangle,4,-3.5,1,0,0,,,,,,,4,-3.5,1,0,0,,1,39,199,46,1,
,,,,,,,,,,,,,FF,,,,,,,,1.3999,,,,,,,,,,,,,,,,,,,,,,5da3501124681c0015e6f56c,60e56392ceb7aeb9d000fd93,2021-07-07_10h20.48.086,Simcolourproject_2stim_asymm_v5,2020.2.10,Win32,60,60e52e7cfedb1dae636df45f,,,,,,,,,1385,-121,-39.5,1,0,0,response5disk,,2,8,12.5,1,0,0,rectangle,8,12.5,1,0,0,,,,,,,8,12.5,1,0,0,,1,40,200,2,1,
,,,,,,,,,,,,,FF,,,,,,,,1.3333,,,,,,,,,,,,,,,,,,,,,,5da3501124681c0015e6f56c,60e56392ceb7aeb9d000fd93,2021-07-07_10h20.48.086,Simcolourproject_2stim_asymm_v5,2020.2.10,Win32,60,60e52e7cfedb1dae636df45f,,,,,,,,,694,112,56.5,1,0,0,response1disk,,6,10,1.5,1,0,0,rectangle,10,1.5,1,0,0,,,,,,,10,1.5,1,0,0,,1,41,201,11,1,
,,,,,,,,,,,,,FF,,,,,,,,0.5999,,,,,,,,,,,,,,,,,,,,,,5da3501124681c0015e6f56c,60e56392ceb7aeb9d000fd93,2021-07-07_10h20.48.086,Simcolourproject_2stim_asymm_v5,2020.2.10,Win32,60,60e52e7cfedb1dae636df45f,,,,,,,,,916,46,115.5,1,0,0,response1disk,,7,-4,-3.5,1,0,0,rectangle,-4,-3.5,1,0,0,,,,,,,-4,-3.5,1,0,0,,1,42,202,51,1,
,,,,,,,,,,,,,FF,,,,,,,,2.5502,,,,,,,,,,,,,,,,,,,,,,5da3501124681c0015e6f56c,60e56392ceb7aeb9d000fd93,2021-07-07_10h20.48.086,Simcolourproject_2stim_asymm_v5,2020.2.10,Win32,60,60e52e7cfedb1dae636df45f,,,,,,,,,2049,96,53.5,1,0,0,response1disk,,6,5,0.5,1,0,0,rectangle,5,0.5,1,0,0,,,,,,,5,0.5,1,0,0,,1,43,203,91,1,
,,,,,,,,,,,,,FF,,,,,,,,2.7334,,,,,,,,,,,,,,,,,,,,,,5da3501124681c0015e6f56c,60e56392ceb7aeb9d000fd93,2021-07-07_10h20.48.086,Simcolourproject_2stim_asymm_v5,2020.2.10,Win32,60,60e52e7cfedb1dae636df45f,,,,,,,,,1695,70,41.5,1,0,0,response1disk,,6,2,0.5,1,0,0,rectangle,2,0.5,1,0,0,,,,,,,2,0.5,1,0,0,,1,44,204,58,1,
,,,,,,,,,,,,,FF,,,,,,,,0.8,,,,,,,,,,,,,,,,,,,,,,5da3501124681c0015e6f56c,60e56392ceb7aeb9d000fd93,2021-07-07_10h20.48.086,Simcolourproject_2stim_asymm_v5,2020.2.10,Win32,60,60e52e7cfedb1dae636df45f,,,,,,,,,1125,108,55.5,1,0,0,response1disk,,6,-6,-0.5,1,0,0,rectangle,-93,45.5,1,0,0,response7disk_3,TRUE,1,1,"[282,127,39,1,187,181,207,296,241,306,52,277,226,279,263,52,33,206,144,266]",1.4,14,1.5,1,0,0,rectangle,1,45,205,148,1,
,,,,,,,,,,,,,FF,,,,,,,,0.8333,,,,,,,,,,,,,,,,,,,,,,5da3501124681c0015e6f56c,60e56392ceb7aeb9d000fd93,2021-07-07_10h20.48.086,Simcolourproject_2stim_asymm_v5,2020.2.10,Win32,60,60e52e7cfedb1dae636df45f,,,,,,,,,263,-110,59.5,1,0,0,response7disk,,1,10,-15.5,1,0,0,rectangle,114,48.5,1,0,0,response1disk_3,TRUE,6,6,"[282,127,39,1,187,181,207,296,241,306,52,277,226,279,263,52,33,206,144,266]",1.3497,-4,5.5,1,0,0,rectangle,1,46,206,140,1,
,,,,,,,,,,,,,FF,,,,,,,,0.8501,,,,,,,,,,,,,,,,,,,,,,5da3501124681c0015e6f56c,60e56392ceb7aeb9d000fd93,2021-07-07_10h20.48.086,Simcolourproject_2stim_asymm_v5,2020.2.10,Win32,60,60e52e7cfedb1dae636df45f,,,,,,,,,3,-112,46.5,1,0,0,response7disk,,1,10,1.5,1,0,0,rectangle,10,1.5,1,0,0,,,,,,,10,1.5,1,0,0,,1,47,207,119,1,
,,,,,,,,,,,,,FF,,,,,,,,1.7834,,,,,,,,,,,,,,,,,,,,,,5da3501124681c0015e6f56c,60e56392ceb7aeb9d000fd93,2021-07-07_10h20.48.086,Simcolourproject_2stim_asymm_v5,2020.2.10,Win32,60,60e52e7cfedb1dae636df45f,,,,,,,,,682,106,-56.5,1,0,0,response3disk,,5,15,7.5,1,0,0,rectangle,15,7.5,1,0,0,,,,,,,15,7.5,1,0,0,,1,48,208,41,1,
,,,,,,,,,,,,,FF,,,,,,,,1,,,,,,,,,,,,,,,,,,,,,,5da3501124681c0015e6f56c,60e56392ceb7aeb9d000fd93,2021-07-07_10h20.48.086,Simcolourproject_2stim_asymm_v5,2020.2.10,Win32,60,60e52e7cfedb1dae636df45f,,,,,,,,,1892,-63,123.5,1,0,0,response7disk,,0,-12,-3.5,1,0,0,rectangle,-12,-3.5,1,0,0,,,,,,,-12,-3.5,1,0,0,,1,49,209,77,1,
,,,,,,,,,,,,,FF,,,,,,,,0.9832,,,,,,,,,,,,,,,,,,,,,,5da3501124681c0015e6f56c,60e56392ceb7aeb9d000fd93,2021-07-07_10h20.48.086,Simcolourproject_2stim_asymm_v5,2020.2.10,Win32,60,60e52e7cfedb1dae636df45f,,,,,,,,,2222,-102,-60.5,1,0,0,response5disk,,2,-8,8.5,1,0,0,rectangle,-8,8.5,1,0,0,,,,,,,-8,8.5,1,0,0,,1,50,210,4,1,
,,,,,,,,,,,,,FF,,,,,,,,1.9999,,,,,,,,,,,,,,,,,,,,,,5da3501124681c0015e6f56c,60e56392ceb7aeb9d000fd93,2021-07-07_10h20.48.086,Simcolourproject_2stim_asymm_v5,2020.2.10,Win32,60,60e52e7cfedb1dae636df45f,,,,,,,,,689,118,-39.5,1,0,0,response3disk,,5,12,4.5,1,0,0,rectangle,12,4.5,1,0,0,,,,,,,12,4.5,1,0,0,,1,51,211,102,1,
,,,,,,,,,,,,,FF,,,,,,,,0.8667,,,,,,,,,,,,,,,,,,,,,,5da3501124681c0015e6f56c,60e56392ceb7aeb9d000fd93,2021-07-07_10h20.48.086,Simcolourproject_2stim_asymm_v5,2020.2.10,Win32,60,60e52e7cfedb1dae636df45f,,,,,,,,,1705,108,-43.5,1,0,0,response3disk,,5,1,10.5,1,0,0,rectangle,1,10.5,1,0,0,,,,,,,1,10.5,1,0,0,,1,52,212,33,1,
,,,,,,,,,,,,,FF,,,,,,,,1.2166,,,,,,,,,,,,,,,,,,,,,,5da3501124681c0015e6f56c,60e56392ceb7aeb9d000fd93,2021-07-07_10h20.48.086,Simcolourproject_2stim_asymm_v5,2020.2.10,Win32,60,60e52e7cfedb1dae636df45f,,,,,,,,,3761,79,41.5,1,0,0,response1disk,,6,7,5.5,1,0,0,rectangle,7,5.5,1,0,0,,,,,,,7,5.5,1,0,0,,1,53,213,126,1,
,,,,,,,,,,,,,FF,,,,,,,,0.8666,,,,,,,,,,,,,,,,,,,,,,5da3501124681c0015e6f56c,60e56392ceb7aeb9d000fd93,2021-07-07_10h20.48.086,Simcolourproject_2stim_asymm_v5,2020.2.10,Win32,60,60e52e7cfedb1dae636df45f,,,,,,,,,1068,107,-27.5,1,0,0,response3disk,,5,4,6.5,1,0,0,rectangle,4,6.5,1,0,0,,,,,,,4,6.5,1,0,0,,1,54,214,18,1,
,,,,,,,,,,,,,FF,,,,,,,,1.3665,,,,,,,,,,,,,,,,,,,,,,5da3501124681c0015e6f56c,60e56392ceb7aeb9d000fd93,2021-07-07_10h20.48.086,Simcolourproject_2stim_asymm_v5,2020.2.10,Win32,60,60e52e7cfedb1dae636df45f,,,,,,,,,1600,-124,-58.5,1,0,0,response5disk,,2,-2,-2.5,1,0,0,rectangle,-2,-2.5,1,0,0,,,,,,,-2,-2.5,1,0,0,,1,55,215,137,1,
,,,,,,,,,,,,,FF,,,,,,,,0.9333,,,,,,,,,,,,,,,,,,,,,,5da3501124681c0015e6f56c,60e56392ceb7aeb9d000fd93,2021-07-07_10h20.48.086,Simcolourproject_2stim_asymm_v5,2020.2.10,Win32,60,60e52e7cfedb1dae636df45f,,,,,,,,,2616,120,-49.5,1,0,0,response3disk,,5,13,-10.5,1,0,0,rectangle,13,-10.5,1,0,0,,,,,,,13,-10.5,1,0,0,,1,56,216,98,1,
,,,,,,,,,,,,,FF,,,,,,,,1.4332,,,,,,,,,,,,,,,,,,,,,,5da3501124681c0015e6f56c,60e56392ceb7aeb9d000fd93,2021-07-07_10h20.48.086,Simcolourproject_2stim_asymm_v5,2020.2.10,Win32,60,60e52e7cfedb1dae636df45f,,,,,,,,,293,80,-93.5,1,0,0,response3disk,,4,10,8.5,1,0,0,rectangle,10,8.5,1,0,0,,,,,,,10,8.5,1,0,0,,1,57,217,5,1,
,,,,,,,,,,,,,FF,,,,,,,,0.6333,,,,,,,,,,,,,,,,,,,,,,5da3501124681c0015e6f56c,60e56392ceb7aeb9d000fd93,2021-07-07_10h20.48.086,Simcolourproject_2stim_asymm_v5,2020.2.10,Win32,60,60e52e7cfedb1dae636df45f,,,,,,,,,4161,-73,131.5,1,0,0,response7disk,,0,-2,-9.5,1,0,0,rectangle,-2,-9.5,1,0,0,,,,,,,-2,-9.5,1,0,0,,1,58,218,22,1,
,,,,,,,,,,,,,FF,,,,,,,,3.7835,,,,,,,,,,,,,,,,,,,,,,5da3501124681c0015e6f56c,60e56392ceb7aeb9d000fd93,2021-07-07_10h20.48.086,Simcolourproject_2stim_asymm_v5,2020.2.10,Win32,60,60e52e7cfedb1dae636df45f,,,,,,,,,2734,101,-66.5,1,0,0,response3disk,,5,7,4.5,1,0,0,rectangle,7,4.5,1,0,0,,,,,,,7,4.5,1,0,0,,1,59,219,138,1,
,,,,,,,,,,,,,FF,,,,,,,,0.9997,,,,,,,,,,,,,,,,,,,,,,5da3501124681c0015e6f56c,60e56392ceb7aeb9d000fd93,2021-07-07_10h20.48.086,Simcolourproject_2stim_asymm_v5,2020.2.10,Win32,60,60e52e7cfedb1dae636df45f,,,,,,,,,1291,-95,47.5,1,0,0,response7disk,,1,-5,12.5,1,0,0,rectangle,-5,12.5,1,0,0,,,,,,,-5,12.5,1,0,0,,1,60,220,60,1,
,,,,,,,,,,,,,FF,,,,,,,,1.1999,,,,,,,,,,,,,,,,,,,,,,5da3501124681c0015e6f56c,60e56392ceb7aeb9d000fd93,2021-07-07_10h20.48.086,Simcolourproject_2stim_asymm_v5,2020.2.10,Win32,60,60e52e7cfedb1dae636df45f,,,,,,,,,1373,-108,-26.5,1,0,0,response5disk,,2,1,15.5,1,0,0,rectangle,1,15.5,1,0,0,,,,,,,1,15.5,1,0,0,,1,61,221,59,1,
,,,,,,,,,,,,,FF,,,,,,,,3.0334,,,,,,,,,,,,,,,,,,,,,,5da3501124681c0015e6f56c,60e56392ceb7aeb9d000fd93,2021-07-07_10h20.48.086,Simcolourproject_2stim_asymm_v5,2020.2.10,Win32,60,60e52e7cfedb1dae636df45f,,,,,,,,,596,103,-48.5,1,0,0,response3disk,,5,2,12.5,1,0,0,rectangle,2,12.5,1,0,0,,,,,,,2,12.5,1,0,0,,1,62,222,23,1,
,,,,,,,,,,,,,FF,,,,,,,,0.6664,,,,,,,,,,,,,,,,,,,,,,5da3501124681c0015e6f56c,60e56392ceb7aeb9d000fd93,2021-07-07_10h20.48.086,Simcolourproject_2stim_asymm_v5,2020.2.10,Win32,60,60e52e7cfedb1dae636df45f,,,,,,,,,1506,101,-55.5,1,0,0,response3disk,,5,17,-3.5,1,0,0,rectangle,17,-3.5,1,0,0,,,,,,,17,-3.5,1,0,0,,1,63,223,1,1,
,,,,,,,,,,,,,FF,,,,,,,,0.7334,,,,,,,,,,,,,,,,,,,,,,5da3501124681c0015e6f56c,60e56392ceb7aeb9d000fd93,2021-07-07_10h20.48.086,Simcolourproject_2stim_asymm_v5,2020.2.10,Win32,60,60e52e7cfedb1dae636df45f,,,,,,,,,1307,-86,36.5,1,0,0,response7disk,,1,-10,6.5,1,0,0,rectangle,-10,6.5,1,0,0,,,,,,,-10,6.5,1,0,0,,1,64,224,43,1,
,,,,,,,,,,,,,FF,,,,,,,,1.7,,,,,,,,,,,,,,,,,,,,,,5da3501124681c0015e6f56c,60e56392ceb7aeb9d000fd93,2021-07-07_10h20.48.086,Simcolourproject_2stim_asymm_v5,2020.2.10,Win32,60,60e52e7cfedb1dae636df45f,,,,,,,,,3460,103,-53.5,1,0,0,response3disk,,5,-10,6.5,1,0,0,rectangle,72,136.5,1,0,0,response1disk_3,TRUE,7,7,"[282,127,39,1,187,181,207,296,241,306,52,277,226,279,263,52,33,206,144,266]",1.5661,-11,6.5,1,0,0,rectangle,1,65,225,130,1,
,,,,,,,,,,,,,FF,,,,,,,,1.2666,,,,,,,,,,,,,,,,,,,,,,5da3501124681c0015e6f56c,60e56392ceb7aeb9d000fd93,2021-07-07_10h20.48.086,Simcolourproject_2stim_asymm_v5,2020.2.10,Win32,60,60e52e7cfedb1dae636df45f,,,,,,,,,913,103,-57.5,1,0,0,response3disk,,5,2,5.5,1,0,0,rectangle,2,5.5,1,0,0,,,,,,,2,5.5,1,0,0,,1,66,226,94,1,
,,,,,,,,,,,,,FF,,,,,,,,45.9665,,,,,,,,,,,,,,,,,,,,,,5da3501124681c0015e6f56c,60e56392ceb7aeb9d000fd93,2021-07-07_10h20.48.086,Simcolourproject_2stim_asymm_v5,2020.2.10,Win32,60,60e52e7cfedb1dae636df45f,,,,,,,,,2128,113,42.5,1,0,0,response1disk,,6,10,3.5,1,0,0,rectangle,10,3.5,1,0,0,,,,,,,10,3.5,1,0,0,,1,67,227,145,1,
,,,,,,,,,,,,,FF,,,,,,,,1.8328,,,,,,,,,,,,,,,,,,,,,,5da3501124681c0015e6f56c,60e56392ceb7aeb9d000fd93,2021-07-07_10h20.48.086,Simcolourproject_2stim_asymm_v5,2020.2.10,Win32,60,60e52e7cfedb1dae636df45f,,,,,,,,,245,115,48.5,1,0,0,response1disk,,6,14,-3.5,1,0,0,rectangle,14,-3.5,1,0,0,,,,,,,14,-3.5,1,0,0,,1,68,228,95,1,
,,,,,,,,,,,,,FF,,,,,,,,1.3329,,,,,,,,,,,,,,,,,,,,,,5da3501124681c0015e6f56c,60e56392ceb7aeb9d000fd93,2021-07-07_10h20.48.086,Simcolourproject_2stim_asymm_v5,2020.2.10,Win32,60,60e52e7cfedb1dae636df45f,,,,,,,,,2953,-96,-51.5,1,0,0,response5disk,,2,-4,1.5,1,0,0,rectangle,-4,1.5,1,0,0,,,,,,,-4,1.5,1,0,0,,1,69,229,38,1,
,,,,,,,,,,,,,FF,,,,,,,,0.6337,,,,,,,,,,,,,,,,,,,,,,5da3501124681c0015e6f56c,60e56392ceb7aeb9d000fd93,2021-07-07_10h20.48.086,Simcolourproject_2stim_asymm_v5,2020.2.10,Win32,60,60e52e7cfedb1dae636df45f,,,,,,,,,3810,-68,107.5,1,0,0,response7disk,,0,-17,-5.5,1,0,0,rectangle,-17,-5.5,1,0,0,,,,,,,-17,-5.5,1,0,0,,1,70,230,121,1,
,,,,,,,,,,,,,FF,,,,,,,,0.9502,,,,,,,,,,,,,,,,,,,,,,5da3501124681c0015e6f56c,60e56392ceb7aeb9d000fd93,2021-07-07_10h20.48.086,Simcolourproject_2stim_asymm_v5,2020.2.10,Win32,60,60e52e7cfedb1dae636df45f,,,,,,,,,3760,-49,-105.5,1,0,0,response5disk,,3,-6,-2.5,1,0,0,rectangle,-6,-2.5,1,0,0,,,,,,,-6,-2.5,1,0,0,,1,71,231,90,1,
,,,,,,,,,,,,,FF,,,,,,,,0.8503,,,,,,,,,,,,,,,,,,,,,,5da3501124681c0015e6f56c,60e56392ceb7aeb9d000fd93,2021-07-07_10h20.48.086,Simcolourproject_2stim_asymm_v5,2020.2.10,Win32,60,60e52e7cfedb1dae636df45f,,,,,,,,,2224,49,-103.5,1,0,0,response3disk,,4,-18,-5.5,1,0,0,rectangle,-18,-5.5,1,0,0,,,,,,,-18,-5.5,1,0,0,,1,72,232,73,1,
,,,,,,,,,,,,,FF,,,,,,,,1.8827,,,,,,,,,,,,,,,,,,,,,,5da3501124681c0015e6f56c,60e56392ceb7aeb9d000fd93,2021-07-07_10h20.48.086,Simcolourproject_2stim_asymm_v5,2020.2.10,Win32,60,60e52e7cfedb1dae636df45f,,,,,,,,,1534,-108,-71.5,1,0,0,response5disk,,2,0,-3.5,1,0,0,rectangle,0,-3.5,1,0,0,,,,,,,0,-3.5,1,0,0,,1,73,233,147,1,
,,,,,,,,,,,,,FF,,,,,,,,0.8996,,,,,,,,,,,,,,,,,,,,,,5da3501124681c0015e6f56c,60e56392ceb7aeb9d000fd93,2021-07-07_10h20.48.086,Simcolourproject_2stim_asymm_v5,2020.2.10,Win32,60,60e52e7cfedb1dae636df45f,,,,,,,,,666,43,-93.5,1,0,0,response3disk,,4,2,1.5,1,0,0,rectangle,2,1.5,1,0,0,,,,,,,2,1.5,1,0,0,,1,74,234,129,1,
,,,,,,,,,,,,,FF,,,,,,,,2.5663,,,,,,,,,,,,,,,,,,,,,,5da3501124681c0015e6f56c,60e56392ceb7aeb9d000fd93,2021-07-07_10h20.48.086,Simcolourproject_2stim_asymm_v5,2020.2.10,Win32,60,60e52e7cfedb1dae636df45f,,,,,,,,,3168,103,57.5,1,0,0,response1disk,,6,-11,-10.5,1,0,0,rectangle,-11,-10.5,1,0,0,,,,,,,-11,-10.5,1,0,0,,1,75,235,35,1,
,,,,,,,,,,,,,FF,,,,,,,,0.833,,,,,,,,,,,,,,,,,,,,,,5da3501124681c0015e6f56c,60e56392ceb7aeb9d000fd93,2021-07-07_10h20.48.086,Simcolourproject_2stim_asymm_v5,2020.2.10,Win32,60,60e52e7cfedb1dae636df45f,,,,,,,,,1304,-111,56.5,1,0,0,response7disk,,1,22,-5.5,1,0,0,rectangle,22,-5.5,1,0,0,,,,,,,22,-5.5,1,0,0,,1,76,236,154,1,
,,,,,,,,,,,,,FF,,,,,,,,0.6661,,,,,,,,,,,,,,,,,,,,,,5da3501124681c0015e6f56c,60e56392ceb7aeb9d000fd93,2021-07-07_10h20.48.086,Simcolourproject_2stim_asymm_v5,2020.2.10,Win32,60,60e52e7cfedb1dae636df45f,,,,,,,,,264,-110,54.5,1,0,0,response7disk,,1,0,5.5,1,0,0,rectangle,0,5.5,1,0,0,,,,,,,0,5.5,1,0,0,,1,77,237,64,1,
,,,,,,,,,,,,,FF,,,,,,,,1.3834,,,,,,,,,,,,,,,,,,,,,,5da3501124681c0015e6f56c,60e56392ceb7aeb9d000fd93,2021-07-07_10h20.48.086,Simcolourproject_2stim_asymm_v5,2020.2.10,Win32,60,60e52e7cfedb1dae636df45f,,,,,,,,,3757,114,36.5,1,0,0,response1disk,,6,-12,11.5,1,0,0,rectangle,-12,11.5,1,0,0,,,,,,,-12,11.5,1,0,0,,1,78,238,152,1,
,,,,,,,,,,,,,FF,,,,,,,,0.9332,,,,,,,,,,,,,,,,,,,,,,5da3501124681c0015e6f56c,60e56392ceb7aeb9d000fd93,2021-07-07_10h20.48.086,Simcolourproject_2stim_asymm_v5,2020.2.10,Win32,60,60e52e7cfedb1dae636df45f,,,,,,,,,97,-92,41.5,1,0,0,response7disk,,1,6,12.5,1,0,0,rectangle,6,12.5,1,0,0,,,,,,,6,12.5,1,0,0,,1,79,239,0,1,
,,,,,,,,,,,,,FF,,,,,,,,0.8673,,,,,,,,,,,,,,,,,,,,,,5da3501124681c0015e6f56c,60e56392ceb7aeb9d000fd93,2021-07-07_10h20.48.086,Simcolourproject_2stim_asymm_v5,2020.2.10,Win32,60,60e52e7cfedb1dae636df45f,,,,,,,,,1388,107,43.5,1,0,0,response1disk,,6,7,5.5,1,0,0,rectangle,-94,38.5,1,0,0,response7disk_3,TRUE,1,1,"[282,127,39,1,187,181,207,296,241,306,52,277,226,279,263,52,33,206,144,266]",1.5324,-6,-5.5,1,0,0,rectangle,1,80,240,139,1,
,,,,,,,,,,,,,FF,,,,,,,,1.1333,,,,,,,,,,,,,,,,,,,,,,5da3501124681c0015e6f56c,60e56392ceb7aeb9d000fd93,2021-07-07_10h20.48.086,Simcolourproject_2stim_asymm_v5,2020.2.10,Win32,60,60e52e7cfedb1dae636df45f,,,,,,,,,3152,-100,60.5,1,0,0,response7disk,,1,-12,-5.5,1,0,0,rectangle,-12,-5.5,1,0,0,,,,,,,-12,-5.5,1,0,0,,1,81,241,155,1,
,,,,,,,,,,,,,FF,,,,,,,,0.7999,,,,,,,,,,,,,,,,,,,,,,5da3501124681c0015e6f56c,60e56392ceb7aeb9d000fd93,2021-07-07_10h20.48.086,Simcolourproject_2stim_asymm_v5,2020.2.10,Win32,60,60e52e7cfedb1dae636df45f,,,,,,,,,3626,-93,48.5,1,0,0,response7disk,,1,-2,5.5,1,0,0,rectangle,-2,5.5,1,0,0,,,,,,,-2,5.5,1,0,0,,1,82,242,37,1,
,,,,,,,,,,,,,FF,,,,,,,,0.7337,,,,,,,,,,,,,,,,,,,,,,5da3501124681c0015e6f56c,60e56392ceb7aeb9d000fd93,2021-07-07_10h20.48.086,Simcolourproject_2stim_asymm_v5,2020.2.10,Win32,60,60e52e7cfedb1dae636df45f,,,,,,,,,2618,-39,-108.5,1,0,0,response5disk,,3,5,-0.5,1,0,0,rectangle,5,-0.5,1,0,0,,,,,,,5,-0.5,1,0,0,,1,83,243,3,1,
,,,,,,,,,,,,,FF,,,,,,,,0.883,,,,,,,,,,,,,,,,,,,,,,5da3501124681c0015e6f56c,60e56392ceb7aeb9d000fd93,2021-07-07_10h20.48.086,Simcolourproject_2stim_asymm_v5,2020.2.10,Win32,60,60e52e7cfedb1dae636df45f,,,,,,,,,2087,-51,-93.5,1,0,0,response5disk,,3,-11,-10.5,1,0,0,rectangle,-11,-10.5,1,0,0,,,,,,,-11,-10.5,1,0,0,,1,84,244,101,1,
,,,,,,,,,,,,,FF,,,,,,,,1.4831,,,,,,,,,,,,,,,,,,,,,,5da3501124681c0015e6f56c,60e56392ceb7aeb9d000fd93,2021-07-07_10h20.48.086,Simcolourproject_2stim_asymm_v5,2020.2.10,Win32,60,60e52e7cfedb1dae636df45f,,,,,,,,,4323,112,47.5,1,0,0,response1disk,,6,-4,-7.5,1,0,0,rectangle,-4,-7.5,1,0,0,,,,,,,-4,-7.5,1,0,0,,1,85,245,34,1,
,,,,,,,,,,,,,FF,,,,,,,,0.6828,,,,,,,,,,,,,,,,,,,,,,5da3501124681c0015e6f56c,60e56392ceb7aeb9d000fd93,2021-07-07_10h20.48.086,Simcolourproject_2stim_asymm_v5,2020.2.10,Win32,60,60e52e7cfedb1dae636df45f,,,,,,,,,3894,136,42.5,1,0,0,response1disk,,6,2,2.5,1,0,0,rectangle,2,2.5,1,0,0,,,,,,,2,2.5,1,0,0,,1,86,246,112,1,
,,,,,,,,,,,,,FF,,,,,,,,1.336,,,,,,,,,,,,,,,,,,,,,,5da3501124681c0015e6f56c,60e56392ceb7aeb9d000fd93,2021-07-07_10h20.48.086,Simcolourproject_2stim_asymm_v5,2020.2.10,Win32,60,60e52e7cfedb1dae636df45f,,,,,,,,,2537,86,39.5,1,0,0,response1disk,,6,-19,-6.5,1,0,0,rectangle,-19,-6.5,1,0,0,,,,,,,-19,-6.5,1,0,0,,1,87,247,49,1,
,,,,,,,,,,,,,FF,,,,,,,,0.6167,,,,,,,,,,,,,,,,,,,,,,5da3501124681c0015e6f56c,60e56392ceb7aeb9d000fd93,2021-07-07_10h20.48.086,Simcolourproject_2stim_asymm_v5,2020.2.10,Win32,60,60e52e7cfedb1dae636df45f,,,,,,,,,0,-59,124.5,1,0,0,response7disk,,0,3,-6.5,1,0,0,rectangle,3,-6.5,1,0,0,,,,,,,3,-6.5,1,0,0,,1,88,248,127,1,
,,,,,,,,,,,,,FF,,,,,,,,0.8997,,,,,,,,,,,,,,,,,,,,,,5da3501124681c0015e6f56c,60e56392ceb7aeb9d000fd93,2021-07-07_10h20.48.086,Simcolourproject_2stim_asymm_v5,2020.2.10,Win32,60,60e52e7cfedb1dae636df45f,,,,,,,,,2045,88,-53.5,1,0,0,response3disk,,5,-10,7.5,1,0,0,rectangle,-10,7.5,1,0,0,,,,,,,-10,7.5,1,0,0,,1,89,249,32,1,
,,,,,,,,,,,,,FF,,,,,,,,2.85,,,,,,,,,,,,,,,,,,,,,,5da3501124681c0015e6f56c,60e56392ceb7aeb9d000fd93,2021-07-07_10h20.48.086,Simcolourproject_2stim_asymm_v5,2020.2.10,Win32,60,60e52e7cfedb1dae636df45f,,,,,,,,,3569,111,59.5,1,0,0,response1disk,,6,2,-4.5,1,0,0,rectangle,2,-4.5,1,0,0,,,,,,,2,-4.5,1,0,0,,1,90,250,158,1,
,,,,,,,,,,,,,FF,,,,,,,,0.9831,,,,,,,,,,,,,,,,,,,,,,5da3501124681c0015e6f56c,60e56392ceb7aeb9d000fd93,2021-07-07_10h20.48.086,Simcolourproject_2stim_asymm_v5,2020.2.10,Win32,60,60e52e7cfedb1dae636df45f,,,,,,,,,8,-112,-55.5,1,0,0,response5disk,,2,0,-4.5,1,0,0,rectangle,0,-4.5,1,0,0,,,,,,,0,-4.5,1,0,0,,1,91,251,134,1,
,,,,,,,,,,,,,FF,,,,,,,,1.0333,,,,,,,,,,,,,,,,,,,,,,5da3501124681c0015e6f56c,60e56392ceb7aeb9d000fd93,2021-07-07_10h20.48.086,Simcolourproject_2stim_asymm_v5,2020.2.10,Win32,60,60e52e7cfedb1dae636df45f,,,,,,,,,2493,72,91.5,1,0,0,response1disk,,7,-16,-8.5,1,0,0,rectangle,-16,-8.5,1,0,0,,,,,,,-16,-8.5,1,0,0,,1,92,252,44,1,
,,,,,,,,,,,,,FF,,,,,,,,0.7499,,,,,,,,,,,,,,,,,,,,,,5da3501124681c0015e6f56c,60e56392ceb7aeb9d000fd93,2021-07-07_10h20.48.086,Simcolourproject_2stim_asymm_v5,2020.2.10,Win32,60,60e52e7cfedb1dae636df45f,,,,,,,,,2345,56,86.5,1,0,0,response1disk,,7,-12,1.5,1,0,0,rectangle,-12,1.5,1,0,0,,,,,,,-12,1.5,1,0,0,,1,93,253,96,1,
,,,,,,,,,,,,,FF,,,,,,,,1.2333,,,,,,,,,,,,,,,,,,,,,,5da3501124681c0015e6f56c,60e56392ceb7aeb9d000fd93,2021-07-07_10h20.48.086,Simcolourproject_2stim_asymm_v5,2020.2.10,Win32,60,60e52e7cfedb1dae636df45f,,,,,,,,,3890,107,-54.5,1,0,0,response3disk,,5,-20,0.5,1,0,0,rectangle,-20,0.5,1,0,0,,,,,,,-20,0.5,1,0,0,,1,94,254,115,1,
,,,,,,,,,,,,,FF,,,,,,,,1.0164,,,,,,,,,,,,,,,,,,,,,,5da3501124681c0015e6f56c,60e56392ceb7aeb9d000fd93,2021-07-07_10h20.48.086,Simcolourproject_2stim_asymm_v5,2020.2.10,Win32,60,60e52e7cfedb1dae636df45f,,,,,,,,,2594,116,-63.5,1,0,0,response3disk,,5,-11,-6.5,1,0,0,rectangle,-11,-6.5,1,0,0,,,,,,,-11,-6.5,1,0,0,,1,95,255,26,1,
,,,,,,,,,,,,,FF,,,,,,,,0.9995,,,,,,,,,,,,,,,,,,,,,,5da3501124681c0015e6f56c,60e56392ceb7aeb9d000fd93,2021-07-07_10h20.48.086,Simcolourproject_2stim_asymm_v5,2020.2.10,Win32,60,60e52e7cfedb1dae636df45f,,,,,,,,,2654,104,-46.5,1,0,0,response3disk,,5,2,-9.5,1,0,0,rectangle,2,-9.5,1,0,0,,,,,,,2,-9.5,1,0,0,,1,96,256,136,1,
,,,,,,,,,,,,,FF,,,,,,,,1.317,,,,,,,,,,,,,,,,,,,,,,5da3501124681c0015e6f56c,60e56392ceb7aeb9d000fd93,2021-07-07_10h20.48.086,Simcolourproject_2stim_asymm_v5,2020.2.10,Win32,60,60e52e7cfedb1dae636df45f,,,,,,,,,2888,-118,-44.5,1,0,0,response5disk,,2,2,-0.5,1,0,0,rectangle,2,-0.5,1,0,0,,,,,,,2,-0.5,1,0,0,,1,97,257,111,1,
,,,,,,,,,,,,,FF,,,,,,,,0.7502,,,,,,,,,,,,,,,,,,,,,,5da3501124681c0015e6f56c,60e56392ceb7aeb9d000fd93,2021-07-07_10h20.48.086,Simcolourproject_2stim_asymm_v5,2020.2.10,Win32,60,60e52e7cfedb1dae636df45f,,,,,,,,,1062,74,-85.5,1,0,0,response3disk,,4,18,1.5,1,0,0,rectangle,18,1.5,1,0,0,,,,,,,18,1.5,1,0,0,,1,98,258,50,1,
,,,,,,,,,,,,,FF,,,,,,,,0.7169,,,,,,,,,,,,,,,,,,,,,,5da3501124681c0015e6f56c,60e56392ceb7aeb9d000fd93,2021-07-07_10h20.48.086,Simcolourproject_2stim_asymm_v5,2020.2.10,Win32,60,60e52e7cfedb1dae636df45f,,,,,,,,,2174,63,-84.5,1,0,0,response3disk,,4,1,4.5,1,0,0,rectangle,1,4.5,1,0,0,,,,,,,1,4.5,1,0,0,,1,99,259,110,1,
,,,,,,,,,,,,,FF,,,,,,,,1.3022,,,,,,,,,,,,,,,,,,,,,,5da3501124681c0015e6f56c,60e56392ceb7aeb9d000fd93,2021-07-07_10h20.48.086,Simcolourproject_2stim_asymm_v5,2020.2.10,Win32,60,60e52e7cfedb1dae636df45f,,,,,,,,,3561,97,59.5,1,0,0,response1disk,,6,8,9.5,1,0,0,rectangle,8,9.5,1,0,0,,,,,,,8,9.5,1,0,0,,1,100,260,146,1,
,,,,,,,,,,,,,FF,,,,,,,,0.9165,,,,,,,,,,,,,,,,,,,,,,5da3501124681c0015e6f56c,60e56392ceb7aeb9d000fd93,2021-07-07_10h20.48.086,Simcolourproject_2stim_asymm_v5,2020.2.10,Win32,60,60e52e7cfedb1dae636df45f,,,,,,,,,2784,-112,-36.5,1,0,0,response5disk,,2,18,8.5,1,0,0,rectangle,18,8.5,1,0,0,,,,,,,18,8.5,1,0,0,,1,101,261,99,1,
,,,,,,,,,,,,,FF,,,,,,,,0.9993,,,,,,,,,,,,,,,,,,,,,,5da3501124681c0015e6f56c,60e56392ceb7aeb9d000fd93,2021-07-07_10h20.48.086,Simcolourproject_2stim_asymm_v5,2020.2.10,Win32,60,60e52e7cfedb1dae636df45f,,,,,,,,,3202,-34,-108.5,1,0,0,response5disk,,3,2,14.5,1,0,0,rectangle,-143,56.5,1,0,0,response7disk_3,TRUE,1,1,"[282,127,39,1,187,181,207,296,241,306,52,277,226,279,263,52,33,206,144,266]",1.2487,-4,-7.5,1,0,0,rectangle,1,102,262,7,1,
,,,,,,,,,,,,,FF,,,,,,,,1.7164,,,,,,,,,,,,,,,,,,,,,,5da3501124681c0015e6f56c,60e56392ceb7aeb9d000fd93,2021-07-07_10h20.48.086,Simcolourproject_2stim_asymm_v5,2020.2.10,Win32,60,60e52e7cfedb1dae636df45f,,,,,,,,,3063,61,-94.5,1,0,0,response3disk,,4,-5,-9.5,1,0,0,rectangle,-5,-9.5,1,0,0,,,,,,,-5,-9.5,1,0,0,,1,103,263,108,1,
,,,,,,,,,,,,,FF,,,,,,,,0.6485,,,,,,,,,,,,,,,,,,,,,,5da3501124681c0015e6f56c,60e56392ceb7aeb9d000fd93,2021-07-07_10h20.48.086,Simcolourproject_2stim_asymm_v5,2020.2.10,Win32,60,60e52e7cfedb1dae636df45f,,,,,,,,,4140,-80,153.5,1,0,0,response7disk,,0,-11,15.5,1,0,0,rectangle,-11,15.5,1,0,0,,,,,,,-11,15.5,1,0,0,,1,104,264,93,1,
,,,,,,,,,,,,,FF,,,,,,,,1.2668,,,,,,,,,,,,,,,,,,,,,,5da3501124681c0015e6f56c,60e56392ceb7aeb9d000fd93,2021-07-07_10h20.48.086,Simcolourproject_2stim_asymm_v5,2020.2.10,Win32,60,60e52e7cfedb1dae636df45f,,,,,,,,,417,46,-105.5,1,0,0,response3disk,,4,-3,3.5,1,0,0,rectangle,-87,-34.5,1,0,0,response5disk_3,TRUE,2,2,"[282,127,39,1,187,181,207,296,241,306,52,277,226,279,263,52,33,206,144,266]",1.732,-5,0.5,1,0,0,rectangle,1,105,265,12,1,
,,,,,,,,,,,,,FF,,,,,,,,0.8498,,,,,,,,,,,,,,,,,,,,,,5da3501124681c0015e6f56c,60e56392ceb7aeb9d000fd93,2021-07-07_10h20.48.086,Simcolourproject_2stim_asymm_v5,2020.2.10,Win32,60,60e52e7cfedb1dae636df45f,,,,,,,,,769,112,-37.5,1,0,0,response3disk,,5,9,0.5,1,0,0,rectangle,9,0.5,1,0,0,,,,,,,9,0.5,1,0,0,,1,106,266,9,1,
,,,,,,,,,,,,,FF,,,,,,,,1.3334,,,,,,,,,,,,,,,,,,,,,,5da3501124681c0015e6f56c,60e56392ceb7aeb9d000fd93,2021-07-07_10h20.48.086,Simcolourproject_2stim_asymm_v5,2020.2.10,Win32,60,60e52e7cfedb1dae636df45f,,,,,,,,,1123,108,53.5,1,0,0,response1disk,,6,3,0.5,1,0,0,rectangle,3,0.5,1,0,0,,,,,,,3,0.5,1,0,0,,1,107,267,132,1,
,,,,,,,,,,,,,FF,,,,,,,,0.8999,,,,,,,,,,,,,,,,,,,,,,5da3501124681c0015e6f56c,60e56392ceb7aeb9d000fd93,2021-07-07_10h20.48.086,Simcolourproject_2stim_asymm_v5,2020.2.10,Win32,60,60e52e7cfedb1dae636df45f,,,,,,,,,3819,61,-108.5,1,0,0,response3disk,,4,6,-4.5,1,0,0,rectangle,6,-4.5,1,0,0,,,,,,,6,-4.5,1,0,0,,1,108,268,63,1,
,,,,,,,,,,,,,FF,,,,,,,,1.1333,,,,,,,,,,,,,,,,,,,,,,5da3501124681c0015e6f56c,60e56392ceb7aeb9d000fd93,2021-07-07_10h20.48.086,Simcolourproject_2stim_asymm_v5,2020.2.10,Win32,60,60e52e7cfedb1dae636df45f,,,,,,,,,2426,-38,-81.5,1,0,0,response5disk,,3,-8,-11.5,1,0,0,rectangle,-8,-11.5,1,0,0,,,,,,,-8,-11.5,1,0,0,,1,109,269,65,1,
,,,,,,,,,,,,,FF,,,,,,,,1.4999,,,,,,,,,,,,,,,,,,,,,,5da3501124681c0015e6f56c,60e56392ceb7aeb9d000fd93,2021-07-07_10h20.48.086,Simcolourproject_2stim_asymm_v5,2020.2.10,Win32,60,60e52e7cfedb1dae636df45f,,,,,,,,,1987,108,-62.5,1,0,0,response3disk,,5,6,7.5,1,0,0,rectangle,6,7.5,1,0,0,,,,,,,6,7.5,1,0,0,,1,110,270,114,1,
,,,,,,,,,,,,,FF,,,,,,,,1.1166,,,,,,,,,,,,,,,,,,,,,,5da3501124681c0015e6f56c,60e56392ceb7aeb9d000fd93,2021-07-07_10h20.48.086,Simcolourproject_2stim_asymm_v5,2020.2.10,Win32,60,60e52e7cfedb1dae636df45f,,,,,,,,,3796,102,69.5,1,0,0,response1disk,,6,-12,-10.5,1,0,0,rectangle,-12,-10.5,1,0,0,,,,,,,-12,-10.5,1,0,0,,1,111,271,28,1,
,,,,,,,,,,,,,FF,,,,,,,,0.7504,,,,,,,,,,,,,,,,,,,,,,5da3501124681c0015e6f56c,60e56392ceb7aeb9d000fd93,2021-07-07_10h20.48.086,Simcolourproject_2stim_asymm_v5,2020.2.10,Win32,60,60e52e7cfedb1dae636df45f,,,,,,,,,968,-34,106.5,1,0,0,response7disk,,0,10,0.5,1,0,0,rectangle,10,0.5,1,0,0,,,,,,,10,0.5,1,0,0,,1,112,272,70,1,
,,,,,,,,,,,,,FF,,,,,,,,1.4326,,,,,,,,,,,,,,,,,,,,,,5da3501124681c0015e6f56c,60e56392ceb7aeb9d000fd93,2021-07-07_10h20.48.086,Simcolourproject_2stim_asymm_v5,2020.2.10,Win32,60,60e52e7cfedb1dae636df45f,,,,,,,,,1404,105,72.5,1,0,0,response1disk,,6,4,-5.5,1,0,0,rectangle,4,-5.5,1,0,0,,,,,,,4,-5.5,1,0,0,,1,113,273,30,1,
,,,,,,,,,,,,,FF,,,,,,,,0.8334,,,,,,,,,,,,,,,,,,,,,,5da3501124681c0015e6f56c,60e56392ceb7aeb9d000fd93,2021-07-07_10h20.48.086,Simcolourproject_2stim_asymm_v5,2020.2.10,Win32,60,60e52e7cfedb1dae636df45f,,,,,,,,,1071,101,-78.5,1,0,0,response3disk,,5,1,2.5,1,0,0,rectangle,1,2.5,1,0,0,,,,,,,1,2.5,1,0,0,,1,114,274,133,1,
,,,,,,,,,,,,,FF,,,,,,,,1.0501,,,,,,,,,,,,,,,,,,,,,,5da3501124681c0015e6f56c,60e56392ceb7aeb9d000fd93,2021-07-07_10h20.48.086,Simcolourproject_2stim_asymm_v5,2020.2.10,Win32,60,60e52e7cfedb1dae636df45f,,,,,,,,,378,64,-119.5,1,0,0,response3disk,,4,2,0.5,1,0,0,rectangle,2,0.5,1,0,0,,,,,,,2,0.5,1,0,0,,1,115,275,16,1,
,,,,,,,,,,,,,FF,,,,,,,,1.033,,,,,,,,,,,,,,,,,,,,,,5da3501124681c0015e6f56c,60e56392ceb7aeb9d000fd93,2021-07-07_10h20.48.086,Simcolourproject_2stim_asymm_v5,2020.2.10,Win32,60,60e52e7cfedb1dae636df45f,,,,,,,,,1017,132,-31.5,1,0,0,response3disk,,5,-4,-3.5,1,0,0,rectangle,-102,-51.5,1,0,0,response5disk_3,TRUE,2,2,"[282,127,39,1,187,181,207,296,241,306,52,277,226,279,263,52,33,206,144,266]",1.9824,-14,0.5,1,0,0,rectangle,1,116,276,153,1,
,,,,,,,,,,,,,FF,,,,,,,,51.1997,,,,,,,,,,,,,,,,,,,,,,5da3501124681c0015e6f56c,60e56392ceb7aeb9d000fd93,2021-07-07_10h20.48.086,Simcolourproject_2stim_asymm_v5,2020.2.10,Win32,60,60e52e7cfedb1dae636df45f,,,,,,,,,1162,72,-48.5,1,0,0,response3disk,,5,-13,-8.5,1,0,0,rectangle,-13,-8.5,1,0,0,,,,,,,-13,-8.5,1,0,0,,1,117,277,88,1,
,,,,,,,,,,,,,FF,,,,,,,,1.05,,,,,,,,,,,,,,,,,,,,,,5da3501124681c0015e6f56c,60e56392ceb7aeb9d000fd93,2021-07-07_10h20.48.086,Simcolourproject_2stim_asymm_v5,2020.2.10,Win32,60,60e52e7cfedb1dae636df45f,,,,,,,,,3347,105,-57.5,1,0,0,response3disk,,5,22,-3.5,1,0,0,rectangle,36,-127.5,1,0,0,response3disk_3,TRUE,4,4,"[282,127,39,1,187,181,207,296,241,306,52,277,226,279,263,52,33,206,144,266]",1.9665,-18,5.5,1,0,0,rectangle,1,118,278,104,1,
,,,,,,,,,,,,,FF,,,,,,,,1.3165,,,,,,,,,,,,,,,,,,,,,,5da3501124681c0015e6f56c,60e56392ceb7aeb9d000fd93,2021-07-07_10h20.48.086,Simcolourproject_2stim_asymm_v5,2020.2.10,Win32,60,60e52e7cfedb1dae636df45f,,,,,,,,,3240,-93,-59.5,1,0,0,response5disk,,2,-11,13.5,1,0,0,rectangle,-11,13.5,1,0,0,,,,,,,-11,13.5,1,0,0,,1,119,279,52,1,
,,,,,,,,,,,,,FF,,,,,,,,0.9833,,,,,,,,,,,,,,,,,,,,,,5da3501124681c0015e6f56c,60e56392ceb7aeb9d000fd93,2021-07-07_10h20.48.086,Simcolourproject_2stim_asymm_v5,2020.2.10,Win32,60,60e52e7cfedb1dae636df45f,,,,,,,,,311,76,-41.5,1,0,0,response3disk,,5,9,9.5,1,0,0,rectangle,9,9.5,1,0,0,,,,,,,9,9.5,1,0,0,,1,120,280,76,1,
,,,,,,,,,,,,,FF,,,,,,,,0.9666,,,,,,,,,,,,,,,,,,,,,,5da3501124681c0015e6f56c,60e56392ceb7aeb9d000fd93,2021-07-07_10h20.48.086,Simcolourproject_2stim_asymm_v5,2020.2.10,Win32,60,60e52e7cfedb1dae636df45f,,,,,,,,,459,-47,-119.5,1,0,0,response5disk,,3,2,-3.5,1,0,0,rectangle,-77,-53.5,1,0,0,response5disk_3,TRUE,2,2,"[282,127,39,1,187,181,207,296,241,306,52,277,226,279,263,52,33,206,144,266]",1.4667,-12,-2.5,1,0,0,rectangle,1,121,281,100,1,
,,,,,,,,,,,,,FF,,,,,,,,0.7333,,,,,,,,,,,,,,,,,,,,,,5da3501124681c0015e6f56c,60e56392ceb7aeb9d000fd93,2021-07-07_10h20.48.086,Simcolourproject_2stim_asymm_v5,2020.2.10,Win32,60,60e52e7cfedb1dae636df45f,,,,,,,,,4343,-65,114.5,1,0,0,response7disk,,0,-25,-4.5,1,0,0,rectangle,-25,-4.5,1,0,0,,,,,,,-25,-4.5,1,0,0,,1,122,282,89,1,
,,,,,,,,,,,,,FF,,,,,,,,1.55,,,,,,,,,,,,,,,,,,,,,,5da3501124681c0015e6f56c,60e56392ceb7aeb9d000fd93,2021-07-07_10h20.48.086,Simcolourproject_2stim_asymm_v5,2020.2.10,Win32,60,60e52e7cfedb1dae636df45f,,,,,,,,,1280,131,-45.5,1,0,0,response3disk,,5,12,5.5,1,0,0,rectangle,12,5.5,1,0,0,,,,,,,12,5.5,1,0,0,,1,123,283,74,1,
,,,,,,,,,,,,,FF,,,,,,,,1.0001,,,,,,,,,,,,,,,,,,,,,,5da3501124681c0015e6f56c,60e56392ceb7aeb9d000fd93,2021-07-07_10h20.48.086,Simcolourproject_2stim_asymm_v5,2020.2.10,Win32,60,60e52e7cfedb1dae636df45f,,,,,,,,,1109,99,-70.5,1,0,0,response3disk,,5,-21,-12.5,1,0,0,rectangle,-21,-12.5,1,0,0,,,,,,,-21,-12.5,1,0,0,,1,124,284,27,1,
,,,,,,,,,,,,,FF,,,,,,,,1.4168,,,,,,,,,,,,,,,,,,,,,,5da3501124681c0015e6f56c,60e56392ceb7aeb9d000fd93,2021-07-07_10h20.48.086,Simcolourproject_2stim_asymm_v5,2020.2.10,Win32,60,60e52e7cfedb1dae636df45f,,,,,,,,,1587,-44,-116.5,1,0,0,response5disk,,3,-7,-1.5,1,0,0,rectangle,-7,-1.5,1,0,0,,,,,,,-7,-1.5,1,0,0,,1,125,285,87,1,
,,,,,,,,,,,,,FF,,,,,,,,1.55,,,,,,,,,,,,,,,,,,,,,,5da3501124681c0015e6f56c,60e56392ceb7aeb9d000fd93,2021-07-07_10h20.48.086,Simcolourproject_2stim_asymm_v5,2020.2.10,Win32,60,60e52e7cfedb1dae636df45f,,,,,,,,,867,-101,29.5,1,0,0,response7disk,,1,-7,6.5,1,0,0,rectangle,-7,6.5,1,0,0,,,,,,,-7,6.5,1,0,0,,1,126,286,141,1,
,,,,,,,,,,,,,FF,,,,,,,,0.8334,,,,,,,,,,,,,,,,,,,,,,5da3501124681c0015e6f56c,60e56392ceb7aeb9d000fd93,2021-07-07_10h20.48.086,Simcolourproject_2stim_asymm_v5,2020.2.10,Win32,60,60e52e7cfedb1dae636df45f,,,,,,,,,1047,-100,-55.5,1,0,0,response5disk,,2,1,-6.5,1,0,0,rectangle,1,-6.5,1,0,0,,,,,,,1,-6.5,1,0,0,,1,127,287,103,1,
,,,,,,,,,,,,,FF,,,,,,,,1.25,,,,,,,,,,,,,,,,,,,,,,5da3501124681c0015e6f56c,60e56392ceb7aeb9d000fd93,2021-07-07_10h20.48.086,Simcolourproject_2stim_asymm_v5,2020.2.10,Win32,60,60e52e7cfedb1dae636df45f,,,,,,,,,2465,131,47.5,1,0,0,response1disk,,6,4,-5.5,1,0,0,rectangle,4,-5.5,1,0,0,,,,,,,4,-5.5,1,0,0,,1,128,288,8,1,
,,,,,,,,,,,,,FF,,,,,,,,1.2,,,,,,,,,,,,,,,,,,,,,,5da3501124681c0015e6f56c,60e56392ceb7aeb9d000fd93,2021-07-07_10h20.48.086,Simcolourproject_2stim_asymm_v5,2020.2.10,Win32,60,60e52e7cfedb1dae636df45f,,,,,,,,,2203,56,-105.5,1,0,0,response3disk,,4,-12,-1.5,1,0,0,rectangle,-12,-1.5,1,0,0,,,,,,,-12,-1.5,1,0,0,,1,129,289,149,1,
,,,,,,,,,,,,,FF,,,,,,,,1.2499,,,,,,,,,,,,,,,,,,,,,,5da3501124681c0015e6f56c,60e56392ceb7aeb9d000fd93,2021-07-07_10h20.48.086,Simcolourproject_2stim_asymm_v5,2020.2.10,Win32,60,60e52e7cfedb1dae636df45f,,,,,,,,,2122,107,57.5,1,0,0,response1disk,,6,2,17.5,1,0,0,rectangle,2,17.5,1,0,0,,,,,,,2,17.5,1,0,0,,1,130,290,72,1,
,,,,,,,,,,,,,FF,,,,,,,,3.3334,,,,,,,,,,,,,,,,,,,,,,5da3501124681c0015e6f56c,60e56392ceb7aeb9d000fd93,2021-07-07_10h20.48.086,Simcolourproject_2stim_asymm_v5,2020.2.10,Win32,60,60e52e7cfedb1dae636df45f,,,,,,,,,644,-108,50.5,1,0,0,response7disk,,1,-32,-8.5,1,0,0,rectangle,-32,-8.5,1,0,0,,,,,,,-32,-8.5,1,0,0,,1,131,291,131,1,
,,,,,,,,,,,,,FF,,,,,,,,1.0167,,,,,,,,,,,,,,,,,,,,,,5da3501124681c0015e6f56c,60e56392ceb7aeb9d000fd93,2021-07-07_10h20.48.086,Simcolourproject_2stim_asymm_v5,2020.2.10,Win32,60,60e52e7cfedb1dae636df45f,,,,,,,,,4043,-81,-42.5,1,0,0,response5disk,,2,-7,-4.5,1,0,0,rectangle,-7,-4.5,1,0,0,,,,,,,-7,-4.5,1,0,0,,1,132,292,40,1,
,,,,,,,,,,,,,FF,,,,,,,,1.0167,,,,,,,,,,,,,,,,,,,,,,5da3501124681c0015e6f56c,60e56392ceb7aeb9d000fd93,2021-07-07_10h20.48.086,Simcolourproject_2stim_asymm_v5,2020.2.10,Win32,60,60e52e7cfedb1dae636df45f,,,,,,,,,549,-92,46.5,1,0,0,response7disk,,1,-19,12.5,1,0,0,rectangle,-19,12.5,1,0,0,,,,,,,-19,12.5,1,0,0,,1,133,293,62,1,
,,,,,,,,,,,,,FF,,,,,,,,0.5666,,,,,,,,,,,,,,,,,,,,,,5da3501124681c0015e6f56c,60e56392ceb7aeb9d000fd93,2021-07-07_10h20.48.086,Simcolourproject_2stim_asymm_v5,2020.2.10,Win32,60,60e52e7cfedb1dae636df45f,,,,,,,,,3705,-86,135.5,1,0,0,response7disk,,0,-25,7.5,1,0,0,rectangle,-25,7.5,1,0,0,,,,,,,-25,7.5,1,0,0,,1,134,294,81,1,
,,,,,,,,,,,,,FF,,,,,,,,0.8001,,,,,,,,,,,,,,,,,,,,,,5da3501124681c0015e6f56c,60e56392ceb7aeb9d000fd93,2021-07-07_10h20.48.086,Simcolourproject_2stim_asymm_v5,2020.2.10,Win32,60,60e52e7cfedb1dae636df45f,,,,,,,,,1194,-48,-91.5,1,0,0,response5disk,,3,3,7.5,1,0,0,rectangle,-49,140.5,1,0,0,response7disk_3,TRUE,0,0,"[282,127,39,1,187,181,207,296,241,306,52,277,226,279,263,52,33,206,144,266]",1.4664,-12,-1.5,1,0,0,rectangle,1,135,295,142,1,
,,,,,,,,,,,,,FF,,,,,,,,1.4337,,,,,,,,,,,,,,,,,,,,,,5da3501124681c0015e6f56c,60e56392ceb7aeb9d000fd93,2021-07-07_10h20.48.086,Simcolourproject_2stim_asymm_v5,2020.2.10,Win32,60,60e52e7cfedb1dae636df45f,,,,,,,,,463,-80,-51.5,1,0,0,response5disk,,2,-5,7.5,1,0,0,rectangle,-5,7.5,1,0,0,,,,,,,-5,7.5,1,0,0,,1,136,296,117,1,
