key_resp.keys,key_resp.rt,key_resp_14.keys,key_resp_14.rt,key_resp_15.keys,key_resp_15.rt,key_resp_17.keys,key_resp_17.rt,key_resp_9.keys,key_resp_9.rt,key_resp_10.keys,key_resp_10.rt,practice_comparison,Ecc,mouse_5.x,mouse_5.y,mouse_5.leftButton,mouse_5.midButton,mouse_5.rightButton,mouse_5.clicked_name,pracsimilarity,response_time,mouse_10.x,mouse_10.y,mouse_10.leftButton,mouse_10.midButton,mouse_10.rightButton,mouse_10.clicked_name,mouse_7.x,mouse_7.y,mouse_7.leftButton,mouse_7.midButton,mouse_7.rightButton,mouse_6.x,mouse_6.y,mouse_6.leftButton,mouse_6.midButton,mouse_6.rightButton,duringprac.thisRepN,duringprac.thisTrialN,duringprac.thisN,duringprac.thisIndex,duringprac.ran,participant,session,date,expName,psychopyVersion,OS,frameRate,study_id,mouse_7.clicked_name,catchpracsimilarity,catch_response_time,catchnumberprac,catchtrialorderprac,mouse_6.clicked_name,key_resp_22.keys,key_resp_22.rt,realcomparison,mouse.x,mouse.y,mouse.leftButton,mouse.midButton,mouse.rightButton,mouse.clicked_name,Colour2,similarity,mouse_2.x,mouse_2.y,mouse_2.leftButton,mouse_2.midButton,mouse_2.rightButton,mouse_2.clicked_name,mouse_3.x,mouse_3.y,mouse_3.leftButton,mouse_3.midButton,mouse_3.rightButton,mouse_11.x,mouse_11.y,mouse_11.leftButton,mouse_11.midButton,mouse_11.rightButton,trials_2.thisRepN,trials_2.thisTrialN,trials_2.thisN,trials_2.thisIndex,trials_2.ran,Colour1,mouse_3.clicked_name,catchornah,catchsimilarity,catchnumber,catchtrialorder,catchRT,mouse_11.clicked_name
space,1.938,space,4.001,space,25.364,space,6.757,space,1.027,space,2.944,119,FF,36,41,1,0,0,response1disk_5,7,15.672,6,-5,1,0,0,rectangle_8,6,-5,1,0,0,6,-5,1,0,0,0,0,0,3,1,5e8dd289f526a801dc3ce16d,60e56a32e776b6ca1e030277,2021-07-07_10h50.50.654,Simcolourproject_2stim_asymm_v5,2020.2.10,Win32,60,60e52e7cfedb1dae636df45f,,,,,,,,,,,,,,,,,,,,,,,,,,,,,,,,,,,,,,,,,,,,,,
,,,,,,,,,,,,105,PF,23,-39,1,0,0,response3disk_5,4,6.815,1,-4,1,0,0,rectangle_8,39,92,1,0,0,11,-3,1,0,0,0,1,1,4,1,5e8dd289f526a801dc3ce16d,60e56a32e776b6ca1e030277,2021-07-07_10h50.50.654,Simcolourproject_2stim_asymm_v5,2020.2.10,Win32,60,60e52e7cfedb1dae636df45f,response1disk_7,7,3.184,7,"[2,5]",rectangle_4,,,,,,,,,,,,,,,,,,,,,,,,,,,,,,,,,,,,,,,,
,,,,,,,,,,,,116,PF,41,-77,1,0,0,response3disk_5,4,6.816,5,-10,1,0,0,rectangle_8,5,-10,1,0,0,5,-10,1,0,0,0,2,2,2,1,5e8dd289f526a801dc3ce16d,60e56a32e776b6ca1e030277,2021-07-07_10h50.50.654,Simcolourproject_2stim_asymm_v5,2020.2.10,Win32,60,60e52e7cfedb1dae636df45f,,,,,,,,,,,,,,,,,,,,,,,,,,,,,,,,,,,,,,,,,,,,,,
,,,,,,,,,,,,151,PF,86,-34,1,0,0,response3disk_5,5,2.409,18,-11,1,0,0,rectangle_8,18,-11,1,0,0,18,-11,1,0,0,0,3,3,1,1,5e8dd289f526a801dc3ce16d,60e56a32e776b6ca1e030277,2021-07-07_10h50.50.654,Simcolourproject_2stim_asymm_v5,2020.2.10,Win32,60,60e52e7cfedb1dae636df45f,,,,,,,,,,,,,,,,,,,,,,,,,,,,,,,,,,,,,,,,,,,,,,
,,,,,,,,,,,,102,FF,-30,-67,1,0,0,response5disk_5,3,1.347,11,-2,1,0,0,rectangle_8,38,88,1,0,0,-4,-3,1,0,0,0,4,4,5,1,5e8dd289f526a801dc3ce16d,60e56a32e776b6ca1e030277,2021-07-07_10h50.50.654,Simcolourproject_2stim_asymm_v5,2020.2.10,Win32,60,60e52e7cfedb1dae636df45f,response1disk_7,7,1.721,7,"[2,5]",rectangle_4,,,,,,,,,,,,,,,,,,,,,,,,,,,,,,,,,,,,,,,,
,,,,,,,,,,,,56,FF,-60,34,1,0,0,response7disk_5,1,2.524,21,2,1,0,0,rectangle_8,21,2,1,0,0,21,2,1,0,0,0,5,5,0,1,5e8dd289f526a801dc3ce16d,60e56a32e776b6ca1e030277,2021-07-07_10h50.50.654,Simcolourproject_2stim_asymm_v5,2020.2.10,Win32,60,60e52e7cfedb1dae636df45f,,,,,,,,,,,,,,,,,,,,,,,,,,,,,,,,,,,,,,,,,,,,,,
,,,,,,,,,,,,34,PF,35,-63,1,0,0,response3disk_5,4,3.307,0,-5,1,0,0,rectangle_8,0,-5,1,0,0,0,-5,1,0,0,0,6,6,6,1,5e8dd289f526a801dc3ce16d,60e56a32e776b6ca1e030277,2021-07-07_10h50.50.654,Simcolourproject_2stim_asymm_v5,2020.2.10,Win32,60,60e52e7cfedb1dae636df45f,,,,,,,,,,,,,,,,,,,,,,,,,,,,,,,,,,,,,,,,,,,,,,
,,,,,,,,,,,,,FF,,,,,,,,3.478,,,,,,,,,,,,,,,,,,,,,,5e8dd289f526a801dc3ce16d,60e56a32e776b6ca1e030277,2021-07-07_10h50.50.654,Simcolourproject_2stim_asymm_v5,2020.2.10,Win32,60,60e52e7cfedb1dae636df45f,,,,,,,space,2.097,155,26,-72,1,0,0,response3disk,,4,5,-4,1,0,0,rectangle,5,-4,1,0,0,5,-4,1,0,0,0,0,0,112,1,,,,,,,,
,,,,,,,,,,,,,FF,,,,,,,,2.652,,,,,,,,,,,,,,,,,,,,,,5e8dd289f526a801dc3ce16d,60e56a32e776b6ca1e030277,2021-07-07_10h50.50.654,Simcolourproject_2stim_asymm_v5,2020.2.10,Win32,60,60e52e7cfedb1dae636df45f,,,,,,,,,3028,60,72,1,0,0,response1disk,,7,6,-5,1,0,0,rectangle,6,-5,1,0,0,6,-5,1,0,0,0,1,1,28,1,,,,,,,,
,,,,,,,,,,,,,FF,,,,,,,,1.978,,,,,,,,,,,,,,,,,,,,,,5e8dd289f526a801dc3ce16d,60e56a32e776b6ca1e030277,2021-07-07_10h50.50.654,Simcolourproject_2stim_asymm_v5,2020.2.10,Win32,60,60e52e7cfedb1dae636df45f,,,,,,,,,1679,-19,-60,1,0,0,response5disk,,3,7,-2,1,0,0,rectangle,7,-2,1,0,0,7,-2,1,0,0,0,2,2,4,1,,,,,,,,
,,,,,,,,,,,,,FF,,,,,,,,1.681,,,,,,,,,,,,,,,,,,,,,,5e8dd289f526a801dc3ce16d,60e56a32e776b6ca1e030277,2021-07-07_10h50.50.654,Simcolourproject_2stim_asymm_v5,2020.2.10,Win32,60,60e52e7cfedb1dae636df45f,,,,,,,,,3793,28,-56,1,0,0,response3disk,,4,5,8,1,0,0,rectangle,5,8,1,0,0,5,8,1,0,0,0,3,3,46,1,,,,,,,,
,,,,,,,,,,,,,FF,,,,,,,,3.027,,,,,,,,,,,,,,,,,,,,,,5e8dd289f526a801dc3ce16d,60e56a32e776b6ca1e030277,2021-07-07_10h50.50.654,Simcolourproject_2stim_asymm_v5,2020.2.10,Win32,60,60e52e7cfedb1dae636df45f,,,,,,,,,2729,71,-43,1,0,0,response3disk,,5,22,-6,1,0,0,rectangle,-60,88,1,0,0,6,6,1,0,0,0,4,4,48,1,,response7disk_3,TRUE,0,0,"[266,267,217,131,154,5,123,93,103,134,70,107,287,258,166,207,86,297,212,61]",1.832,rectangle
,,,,,,,,,,,,,FF,,,,,,,,2.55,,,,,,,,,,,,,,,,,,,,,,5e8dd289f526a801dc3ce16d,60e56a32e776b6ca1e030277,2021-07-07_10h50.50.654,Simcolourproject_2stim_asymm_v5,2020.2.10,Win32,60,60e52e7cfedb1dae636df45f,,,,,,,,,3551,-39,88,1,0,0,response7disk,,0,8,4,1,0,0,rectangle,8,4,1,0,0,8,4,1,0,0,0,5,5,139,1,,,,,,,,
,,,,,,,,,,,,,FF,,,,,,,,1.615,,,,,,,,,,,,,,,,,,,,,,5e8dd289f526a801dc3ce16d,60e56a32e776b6ca1e030277,2021-07-07_10h50.50.654,Simcolourproject_2stim_asymm_v5,2020.2.10,Win32,60,60e52e7cfedb1dae636df45f,,,,,,,,,1471,66,62,1,0,0,response1disk,,6,11,4,1,0,0,rectangle,11,4,1,0,0,11,4,1,0,0,0,6,6,64,1,,,,,,,,
,,,,,,,,,,,,,FF,,,,,,,,1.44,,,,,,,,,,,,,,,,,,,,,,5e8dd289f526a801dc3ce16d,60e56a32e776b6ca1e030277,2021-07-07_10h50.50.654,Simcolourproject_2stim_asymm_v5,2020.2.10,Win32,60,60e52e7cfedb1dae636df45f,,,,,,,,,2077,51,-31,1,0,0,response3disk,,5,12,-6,1,0,0,rectangle,12,-6,1,0,0,12,-6,1,0,0,0,7,7,129,1,,,,,,,,
,,,,,,,,,,,,,FF,,,,,,,,1.296,,,,,,,,,,,,,,,,,,,,,,5e8dd289f526a801dc3ce16d,60e56a32e776b6ca1e030277,2021-07-07_10h50.50.654,Simcolourproject_2stim_asymm_v5,2020.2.10,Win32,60,60e52e7cfedb1dae636df45f,,,,,,,,,4114,58,-37,1,0,0,response3disk,,5,21,-8,1,0,0,rectangle,21,-8,1,0,0,21,-8,1,0,0,0,8,8,84,1,,,,,,,,
,,,,,,,,,,,,,FF,,,,,,,,1.52,,,,,,,,,,,,,,,,,,,,,,5e8dd289f526a801dc3ce16d,60e56a32e776b6ca1e030277,2021-07-07_10h50.50.654,Simcolourproject_2stim_asymm_v5,2020.2.10,Win32,60,60e52e7cfedb1dae636df45f,,,,,,,,,4201,-16,-78,1,0,0,response5disk,,3,-13,-5,1,0,0,rectangle,-13,-5,1,0,0,-13,-5,1,0,0,0,9,9,125,1,,,,,,,,
,,,,,,,,,,,,,FF,,,,,,,,1.265,,,,,,,,,,,,,,,,,,,,,,5e8dd289f526a801dc3ce16d,60e56a32e776b6ca1e030277,2021-07-07_10h50.50.654,Simcolourproject_2stim_asymm_v5,2020.2.10,Win32,60,60e52e7cfedb1dae636df45f,,,,,,,,,617,31,-76,1,0,0,response3disk,,4,2,0,1,0,0,rectangle,2,0,1,0,0,2,0,1,0,0,0,10,10,6,1,,,,,,,,
,,,,,,,,,,,,,FF,,,,,,,,1.881,,,,,,,,,,,,,,,,,,,,,,5e8dd289f526a801dc3ce16d,60e56a32e776b6ca1e030277,2021-07-07_10h50.50.654,Simcolourproject_2stim_asymm_v5,2020.2.10,Win32,60,60e52e7cfedb1dae636df45f,,,,,,,,,2621,44,67,1,0,0,response1disk,,7,1,-5,1,0,0,rectangle,1,-5,1,0,0,1,-5,1,0,0,0,11,11,124,1,,,,,,,,
,,,,,,,,,,,,,FF,,,,,,,,2.972,,,,,,,,,,,,,,,,,,,,,,5e8dd289f526a801dc3ce16d,60e56a32e776b6ca1e030277,2021-07-07_10h50.50.654,Simcolourproject_2stim_asymm_v5,2020.2.10,Win32,60,60e52e7cfedb1dae636df45f,,,,,,,,,3113,58,-58,1,0,0,response3disk,,5,16,-4,1,0,0,rectangle,16,-4,1,0,0,16,-4,1,0,0,0,12,12,96,1,,,,,,,,
,,,,,,,,,,,,,FF,,,,,,,,1.385,,,,,,,,,,,,,,,,,,,,,,5e8dd289f526a801dc3ce16d,60e56a32e776b6ca1e030277,2021-07-07_10h50.50.654,Simcolourproject_2stim_asymm_v5,2020.2.10,Win32,60,60e52e7cfedb1dae636df45f,,,,,,,,,3309,82,21,1,0,0,response1disk,,6,12,3,1,0,0,rectangle,12,3,1,0,0,12,3,1,0,0,0,13,13,136,1,,,,,,,,
,,,,,,,,,,,,,FF,,,,,,,,1.231,,,,,,,,,,,,,,,,,,,,,,5e8dd289f526a801dc3ce16d,60e56a32e776b6ca1e030277,2021-07-07_10h50.50.654,Simcolourproject_2stim_asymm_v5,2020.2.10,Win32,60,60e52e7cfedb1dae636df45f,,,,,,,,,4168,-23,-70,1,0,0,response5disk,,3,8,-1,1,0,0,rectangle,8,-1,1,0,0,8,-1,1,0,0,0,14,14,8,1,,,,,,,,
,,,,,,,,,,,,,FF,,,,,,,,1.197,,,,,,,,,,,,,,,,,,,,,,5e8dd289f526a801dc3ce16d,60e56a32e776b6ca1e030277,2021-07-07_10h50.50.654,Simcolourproject_2stim_asymm_v5,2020.2.10,Win32,60,60e52e7cfedb1dae636df45f,,,,,,,,,408,72,-46,1,0,0,response3disk,,5,17,-8,1,0,0,rectangle,17,-8,1,0,0,17,-8,1,0,0,0,15,15,121,1,,,,,,,,
,,,,,,,,,,,,,FF,,,,,,,,1.166,,,,,,,,,,,,,,,,,,,,,,5e8dd289f526a801dc3ce16d,60e56a32e776b6ca1e030277,2021-07-07_10h50.50.654,Simcolourproject_2stim_asymm_v5,2020.2.10,Win32,60,60e52e7cfedb1dae636df45f,,,,,,,,,4041,26,-55,1,0,0,response3disk,,4,12,-7,1,0,0,rectangle,12,-7,1,0,0,12,-7,1,0,0,0,16,16,40,1,,,,,,,,
,,,,,,,,,,,,,FF,,,,,,,,0.849,,,,,,,,,,,,,,,,,,,,,,5e8dd289f526a801dc3ce16d,60e56a32e776b6ca1e030277,2021-07-07_10h50.50.654,Simcolourproject_2stim_asymm_v5,2020.2.10,Win32,60,60e52e7cfedb1dae636df45f,,,,,,,,,3819,73,-42,1,0,0,response3disk,,5,23,-1,1,0,0,rectangle,23,-1,1,0,0,23,-1,1,0,0,0,17,17,1,1,,,,,,,,
,,,,,,,,,,,,,FF,,,,,,,,1.197,,,,,,,,,,,,,,,,,,,,,,5e8dd289f526a801dc3ce16d,60e56a32e776b6ca1e030277,2021-07-07_10h50.50.654,Simcolourproject_2stim_asymm_v5,2020.2.10,Win32,60,60e52e7cfedb1dae636df45f,,,,,,,,,1537,76,22,1,0,0,response1disk,,6,23,-7,1,0,0,rectangle,23,-7,1,0,0,23,-7,1,0,0,0,18,18,137,1,,,,,,,,
,,,,,,,,,,,,,FF,,,,,,,,3.402,,,,,,,,,,,,,,,,,,,,,,5e8dd289f526a801dc3ce16d,60e56a32e776b6ca1e030277,2021-07-07_10h50.50.654,Simcolourproject_2stim_asymm_v5,2020.2.10,Win32,60,60e52e7cfedb1dae636df45f,,,,,,,,,1055,32,48,1,0,0,response1disk,,7,1,4,1,0,0,rectangle,1,4,1,0,0,1,4,1,0,0,0,19,19,2,1,,,,,,,,
,,,,,,,,,,,,,FF,,,,,,,,1.068,,,,,,,,,,,,,,,,,,,,,,5e8dd289f526a801dc3ce16d,60e56a32e776b6ca1e030277,2021-07-07_10h50.50.654,Simcolourproject_2stim_asymm_v5,2020.2.10,Win32,60,60e52e7cfedb1dae636df45f,,,,,,,,,1735,82,32,1,0,0,response1disk,,6,15,-5,1,0,0,rectangle,15,-5,1,0,0,15,-5,1,0,0,0,20,20,102,1,,,,,,,,
,,,,,,,,,,,,,FF,,,,,,,,1.421,,,,,,,,,,,,,,,,,,,,,,5e8dd289f526a801dc3ce16d,60e56a32e776b6ca1e030277,2021-07-07_10h50.50.654,Simcolourproject_2stim_asymm_v5,2020.2.10,Win32,60,60e52e7cfedb1dae636df45f,,,,,,,,,1368,-35,55,1,0,0,response7disk,,0,17,-4,1,0,0,rectangle,17,-4,1,0,0,17,-4,1,0,0,0,21,21,108,1,,,,,,,,
,,,,,,,,,,,,,FF,,,,,,,,1.618,,,,,,,,,,,,,,,,,,,,,,5e8dd289f526a801dc3ce16d,60e56a32e776b6ca1e030277,2021-07-07_10h50.50.654,Simcolourproject_2stim_asymm_v5,2020.2.10,Win32,60,60e52e7cfedb1dae636df45f,,,,,,,,,1232,-29,-52,1,0,0,response5disk,,3,13,-1,1,0,0,rectangle,13,-1,1,0,0,13,-1,1,0,0,0,22,22,101,1,,,,,,,,
,,,,,,,,,,,,,FF,,,,,,,,1.115,,,,,,,,,,,,,,,,,,,,,,5e8dd289f526a801dc3ce16d,60e56a32e776b6ca1e030277,2021-07-07_10h50.50.654,Simcolourproject_2stim_asymm_v5,2020.2.10,Win32,60,60e52e7cfedb1dae636df45f,,,,,,,,,1013,78,-35,1,0,0,response3disk,,5,8,-1,1,0,0,rectangle,8,-1,1,0,0,8,-1,1,0,0,0,23,23,71,1,,,,,,,,
,,,,,,,,,,,,,FF,,,,,,,,1.324,,,,,,,,,,,,,,,,,,,,,,5e8dd289f526a801dc3ce16d,60e56a32e776b6ca1e030277,2021-07-07_10h50.50.654,Simcolourproject_2stim_asymm_v5,2020.2.10,Win32,60,60e52e7cfedb1dae636df45f,,,,,,,,,3963,49,24,1,0,0,response1disk,,6,2,-11,1,0,0,rectangle,2,-11,1,0,0,2,-11,1,0,0,0,24,24,25,1,,,,,,,,
,,,,,,,,,,,,,FF,,,,,,,,1.047,,,,,,,,,,,,,,,,,,,,,,5e8dd289f526a801dc3ce16d,60e56a32e776b6ca1e030277,2021-07-07_10h50.50.654,Simcolourproject_2stim_asymm_v5,2020.2.10,Win32,60,60e52e7cfedb1dae636df45f,,,,,,,,,4314,36,73,1,0,0,response1disk,,7,0,-7,1,0,0,rectangle,0,-7,1,0,0,0,-7,1,0,0,0,25,25,47,1,,,,,,,,
,,,,,,,,,,,,,FF,,,,,,,,1.015,,,,,,,,,,,,,,,,,,,,,,5e8dd289f526a801dc3ce16d,60e56a32e776b6ca1e030277,2021-07-07_10h50.50.654,Simcolourproject_2stim_asymm_v5,2020.2.10,Win32,60,60e52e7cfedb1dae636df45f,,,,,,,,,4246,60,29,1,0,0,response1disk,,6,17,3,1,0,0,rectangle,17,3,1,0,0,17,3,1,0,0,0,26,26,11,1,,,,,,,,
,,,,,,,,,,,,,FF,,,,,,,,1.261,,,,,,,,,,,,,,,,,,,,,,5e8dd289f526a801dc3ce16d,60e56a32e776b6ca1e030277,2021-07-07_10h50.50.654,Simcolourproject_2stim_asymm_v5,2020.2.10,Win32,60,60e52e7cfedb1dae636df45f,,,,,,,,,2563,82,21,1,0,0,response1disk,,6,12,-9,1,0,0,rectangle,12,-9,1,0,0,12,-9,1,0,0,0,27,27,66,1,,,,,,,,
,,,,,,,,,,,,,FF,,,,,,,,0.996,,,,,,,,,,,,,,,,,,,,,,5e8dd289f526a801dc3ce16d,60e56a32e776b6ca1e030277,2021-07-07_10h50.50.654,Simcolourproject_2stim_asymm_v5,2020.2.10,Win32,60,60e52e7cfedb1dae636df45f,,,,,,,,,1431,55,-37,1,0,0,response3disk,,5,8,-7,1,0,0,rectangle,8,-7,1,0,0,8,-7,1,0,0,0,28,28,152,1,,,,,,,,
,,,,,,,,,,,,,FF,,,,,,,,0.914,,,,,,,,,,,,,,,,,,,,,,5e8dd289f526a801dc3ce16d,60e56a32e776b6ca1e030277,2021-07-07_10h50.50.654,Simcolourproject_2stim_asymm_v5,2020.2.10,Win32,60,60e52e7cfedb1dae636df45f,,,,,,,,,978,32,-63,1,0,0,response3disk,,4,-2,-12,1,0,0,rectangle,-2,-12,1,0,0,-2,-12,1,0,0,0,29,29,150,1,,,,,,,,
,,,,,,,,,,,,,FF,,,,,,,,1.275,,,,,,,,,,,,,,,,,,,,,,5e8dd289f526a801dc3ce16d,60e56a32e776b6ca1e030277,2021-07-07_10h50.50.654,Simcolourproject_2stim_asymm_v5,2020.2.10,Win32,60,60e52e7cfedb1dae636df45f,,,,,,,,,2947,-28,-58,1,0,0,response5disk,,3,-2,5,1,0,0,rectangle,-2,5,1,0,0,-2,5,1,0,0,0,30,30,134,1,,,,,,,,
,,,,,,,,,,,,,FF,,,,,,,,0.891,,,,,,,,,,,,,,,,,,,,,,5e8dd289f526a801dc3ce16d,60e56a32e776b6ca1e030277,2021-07-07_10h50.50.654,Simcolourproject_2stim_asymm_v5,2020.2.10,Win32,60,60e52e7cfedb1dae636df45f,,,,,,,,,1128,49,75,1,0,0,response1disk,,7,15,9,1,0,0,rectangle,15,9,1,0,0,15,9,1,0,0,0,31,31,60,1,,,,,,,,
,,,,,,,,,,,,,FF,,,,,,,,0.88,,,,,,,,,,,,,,,,,,,,,,5e8dd289f526a801dc3ce16d,60e56a32e776b6ca1e030277,2021-07-07_10h50.50.654,Simcolourproject_2stim_asymm_v5,2020.2.10,Win32,60,60e52e7cfedb1dae636df45f,,,,,,,,,472,43,63,1,0,0,response1disk,,7,20,11,1,0,0,rectangle,20,11,1,0,0,20,11,1,0,0,0,32,32,50,1,,,,,,,,
,,,,,,,,,,,,,FF,,,,,,,,1.146,,,,,,,,,,,,,,,,,,,,,,5e8dd289f526a801dc3ce16d,60e56a32e776b6ca1e030277,2021-07-07_10h50.50.654,Simcolourproject_2stim_asymm_v5,2020.2.10,Win32,60,60e52e7cfedb1dae636df45f,,,,,,,,,1453,-26,-63,1,0,0,response5disk,,3,1,-5,1,0,0,rectangle,1,-5,1,0,0,1,-5,1,0,0,0,33,33,68,1,,,,,,,,
,,,,,,,,,,,,,FF,,,,,,,,1.117,,,,,,,,,,,,,,,,,,,,,,5e8dd289f526a801dc3ce16d,60e56a32e776b6ca1e030277,2021-07-07_10h50.50.654,Simcolourproject_2stim_asymm_v5,2020.2.10,Win32,60,60e52e7cfedb1dae636df45f,,,,,,,,,2102,63,-36,1,0,0,response3disk,,5,6,-7,1,0,0,rectangle,6,-7,1,0,0,6,-7,1,0,0,0,34,34,86,1,,,,,,,,
,,,,,,,,,,,,,FF,,,,,,,,0.813,,,,,,,,,,,,,,,,,,,,,,5e8dd289f526a801dc3ce16d,60e56a32e776b6ca1e030277,2021-07-07_10h50.50.654,Simcolourproject_2stim_asymm_v5,2020.2.10,Win32,60,60e52e7cfedb1dae636df45f,,,,,,,,,2139,30,51,1,0,0,response1disk,,7,5,3,1,0,0,rectangle,5,3,1,0,0,5,3,1,0,0,0,35,35,39,1,,,,,,,,
,,,,,,,,,,,,,FF,,,,,,,,0.887,,,,,,,,,,,,,,,,,,,,,,5e8dd289f526a801dc3ce16d,60e56a32e776b6ca1e030277,2021-07-07_10h50.50.654,Simcolourproject_2stim_asymm_v5,2020.2.10,Win32,60,60e52e7cfedb1dae636df45f,,,,,,,,,32,54,84,1,0,0,response1disk,,7,6,6,1,0,0,rectangle,6,6,1,0,0,6,6,1,0,0,0,36,36,75,1,,,,,,,,
,,,,,,,,,,,,,FF,,,,,,,,0.912,,,,,,,,,,,,,,,,,,,,,,5e8dd289f526a801dc3ce16d,60e56a32e776b6ca1e030277,2021-07-07_10h50.50.654,Simcolourproject_2stim_asymm_v5,2020.2.10,Win32,60,60e52e7cfedb1dae636df45f,,,,,,,,,1190,74,42,1,0,0,response1disk,,6,18,12,1,0,0,rectangle,18,12,1,0,0,18,12,1,0,0,0,37,37,61,1,,,,,,,,
,,,,,,,,,,,,,FF,,,,,,,,0.732,,,,,,,,,,,,,,,,,,,,,,5e8dd289f526a801dc3ce16d,60e56a32e776b6ca1e030277,2021-07-07_10h50.50.654,Simcolourproject_2stim_asymm_v5,2020.2.10,Win32,60,60e52e7cfedb1dae636df45f,,,,,,,,,536,25,60,1,0,0,response1disk,,7,5,5,1,0,0,rectangle,5,5,1,0,0,5,5,1,0,0,0,38,38,23,1,,,,,,,,
,,,,,,,,,,,,,FF,,,,,,,,1.084,,,,,,,,,,,,,,,,,,,,,,5e8dd289f526a801dc3ce16d,60e56a32e776b6ca1e030277,2021-07-07_10h50.50.654,Simcolourproject_2stim_asymm_v5,2020.2.10,Win32,60,60e52e7cfedb1dae636df45f,,,,,,,,,124,33,61,1,0,0,response1disk,,7,0,4,1,0,0,rectangle,0,4,1,0,0,0,4,1,0,0,0,39,39,92,1,,,,,,,,
,,,,,,,,,,,,,FF,,,,,,,,0.993,,,,,,,,,,,,,,,,,,,,,,5e8dd289f526a801dc3ce16d,60e56a32e776b6ca1e030277,2021-07-07_10h50.50.654,Simcolourproject_2stim_asymm_v5,2020.2.10,Win32,60,60e52e7cfedb1dae636df45f,,,,,,,,,3856,32,-45,1,0,0,response3disk,,4,-10,0,1,0,0,rectangle,-10,0,1,0,0,-10,0,1,0,0,0,40,40,30,1,,,,,,,,
,,,,,,,,,,,,,FF,,,,,,,,0.816,,,,,,,,,,,,,,,,,,,,,,5e8dd289f526a801dc3ce16d,60e56a32e776b6ca1e030277,2021-07-07_10h50.50.654,Simcolourproject_2stim_asymm_v5,2020.2.10,Win32,60,60e52e7cfedb1dae636df45f,,,,,,,,,3771,34,-60,1,0,0,response3disk,,4,-4,10,1,0,0,rectangle,-4,10,1,0,0,-4,10,1,0,0,0,41,41,18,1,,,,,,,,
,,,,,,,,,,,,,FF,,,,,,,,0.852,,,,,,,,,,,,,,,,,,,,,,5e8dd289f526a801dc3ce16d,60e56a32e776b6ca1e030277,2021-07-07_10h50.50.654,Simcolourproject_2stim_asymm_v5,2020.2.10,Win32,60,60e52e7cfedb1dae636df45f,,,,,,,,,3064,67,-34,1,0,0,response3disk,,5,21,7,1,0,0,rectangle,21,7,1,0,0,21,7,1,0,0,0,42,42,15,1,,,,,,,,
,,,,,,,,,,,,,FF,,,,,,,,0.871,,,,,,,,,,,,,,,,,,,,,,5e8dd289f526a801dc3ce16d,60e56a32e776b6ca1e030277,2021-07-07_10h50.50.654,Simcolourproject_2stim_asymm_v5,2020.2.10,Win32,60,60e52e7cfedb1dae636df45f,,,,,,,,,693,24,-53,1,0,0,response3disk,,4,-1,1,1,0,0,rectangle,-1,1,1,0,0,-1,1,1,0,0,0,43,43,56,1,,,,,,,,
,,,,,,,,,,,,,FF,,,,,,,,1.415,,,,,,,,,,,,,,,,,,,,,,5e8dd289f526a801dc3ce16d,60e56a32e776b6ca1e030277,2021-07-07_10h50.50.654,Simcolourproject_2stim_asymm_v5,2020.2.10,Win32,60,60e52e7cfedb1dae636df45f,,,,,,,,,3475,-49,-40,1,0,0,response5disk,,2,10,6,1,0,0,rectangle,10,6,1,0,0,10,6,1,0,0,0,44,44,138,1,,,,,,,,
,,,,,,,,,,,,,FF,,,,,,,,0.757,,,,,,,,,,,,,,,,,,,,,,5e8dd289f526a801dc3ce16d,60e56a32e776b6ca1e030277,2021-07-07_10h50.50.654,Simcolourproject_2stim_asymm_v5,2020.2.10,Win32,60,60e52e7cfedb1dae636df45f,,,,,,,,,4315,49,78,1,0,0,response1disk,,7,14,11,1,0,0,rectangle,14,11,1,0,0,14,11,1,0,0,0,45,45,41,1,,,,,,,,
,,,,,,,,,,,,,FF,,,,,,,,0.909,,,,,,,,,,,,,,,,,,,,,,5e8dd289f526a801dc3ce16d,60e56a32e776b6ca1e030277,2021-07-07_10h50.50.654,Simcolourproject_2stim_asymm_v5,2020.2.10,Win32,60,60e52e7cfedb1dae636df45f,,,,,,,,,1181,36,64,1,0,0,response1disk,,7,19,0,1,0,0,rectangle,19,0,1,0,0,19,0,1,0,0,0,46,46,29,1,,,,,,,,
,,,,,,,,,,,,,FF,,,,,,,,0.732,,,,,,,,,,,,,,,,,,,,,,5e8dd289f526a801dc3ce16d,60e56a32e776b6ca1e030277,2021-07-07_10h50.50.654,Simcolourproject_2stim_asymm_v5,2020.2.10,Win32,60,60e52e7cfedb1dae636df45f,,,,,,,,,1410,28,62,1,0,0,response1disk,,7,14,-4,1,0,0,rectangle,14,-4,1,0,0,14,-4,1,0,0,0,47,47,74,1,,,,,,,,
,,,,,,,,,,,,,FF,,,,,,,,0.76,,,,,,,,,,,,,,,,,,,,,,5e8dd289f526a801dc3ce16d,60e56a32e776b6ca1e030277,2021-07-07_10h50.50.654,Simcolourproject_2stim_asymm_v5,2020.2.10,Win32,60,60e52e7cfedb1dae636df45f,,,,,,,,,2540,33,73,1,0,0,response1disk,,7,16,3,1,0,0,rectangle,16,3,1,0,0,16,3,1,0,0,0,48,48,49,1,,,,,,,,
,,,,,,,,,,,,,FF,,,,,,,,0.765,,,,,,,,,,,,,,,,,,,,,,5e8dd289f526a801dc3ce16d,60e56a32e776b6ca1e030277,2021-07-07_10h50.50.654,Simcolourproject_2stim_asymm_v5,2020.2.10,Win32,60,60e52e7cfedb1dae636df45f,,,,,,,,,222,65,38,1,0,0,response1disk,,6,26,5,1,0,0,rectangle,26,5,1,0,0,26,5,1,0,0,0,49,49,89,1,,,,,,,,
,,,,,,,,,,,,,FF,,,,,,,,1,,,,,,,,,,,,,,,,,,,,,,5e8dd289f526a801dc3ce16d,60e56a32e776b6ca1e030277,2021-07-07_10h50.50.654,Simcolourproject_2stim_asymm_v5,2020.2.10,Win32,60,60e52e7cfedb1dae636df45f,,,,,,,,,1447,-55,-36,1,0,0,response5disk,,2,12,12,1,0,0,rectangle,12,12,1,0,0,12,12,1,0,0,0,50,50,117,1,,,,,,,,
,,,,,,,,,,,,,FF,,,,,,,,0.76,,,,,,,,,,,,,,,,,,,,,,5e8dd289f526a801dc3ce16d,60e56a32e776b6ca1e030277,2021-07-07_10h50.50.654,Simcolourproject_2stim_asymm_v5,2020.2.10,Win32,60,60e52e7cfedb1dae636df45f,,,,,,,,,3029,43,69,1,0,0,response1disk,,7,12,-4,1,0,0,rectangle,12,-4,1,0,0,12,-4,1,0,0,0,51,51,111,1,,,,,,,,
,,,,,,,,,,,,,FF,,,,,,,,0.914,,,,,,,,,,,,,,,,,,,,,,5e8dd289f526a801dc3ce16d,60e56a32e776b6ca1e030277,2021-07-07_10h50.50.654,Simcolourproject_2stim_asymm_v5,2020.2.10,Win32,60,60e52e7cfedb1dae636df45f,,,,,,,,,1439,-18,-54,1,0,0,response5disk,,3,2,-11,1,0,0,rectangle,2,-11,1,0,0,2,-11,1,0,0,0,52,52,67,1,,,,,,,,
,,,,,,,,,,,,,FF,,,,,,,,1.545,,,,,,,,,,,,,,,,,,,,,,5e8dd289f526a801dc3ce16d,60e56a32e776b6ca1e030277,2021-07-07_10h50.50.654,Simcolourproject_2stim_asymm_v5,2020.2.10,Win32,60,60e52e7cfedb1dae636df45f,,,,,,,,,37,20,-50,1,0,0,response3disk,,4,1,14,1,0,0,rectangle,1,14,1,0,0,1,14,1,0,0,0,53,53,69,1,,,,,,,,
,,,,,,,,,,,,,FF,,,,,,,,1.071,,,,,,,,,,,,,,,,,,,,,,5e8dd289f526a801dc3ce16d,60e56a32e776b6ca1e030277,2021-07-07_10h50.50.654,Simcolourproject_2stim_asymm_v5,2020.2.10,Win32,60,60e52e7cfedb1dae636df45f,,,,,,,,,1171,-26,-55,1,0,0,response5disk,,3,13,-4,1,0,0,rectangle,13,-4,1,0,0,13,-4,1,0,0,0,54,54,44,1,,,,,,,,
,,,,,,,,,,,,,FF,,,,,,,,0.685,,,,,,,,,,,,,,,,,,,,,,5e8dd289f526a801dc3ce16d,60e56a32e776b6ca1e030277,2021-07-07_10h50.50.654,Simcolourproject_2stim_asymm_v5,2020.2.10,Win32,60,60e52e7cfedb1dae636df45f,,,,,,,,,597,27,56,1,0,0,response1disk,,7,5,-7,1,0,0,rectangle,5,-7,1,0,0,5,-7,1,0,0,0,55,55,26,1,,,,,,,,
,,,,,,,,,,,,,FF,,,,,,,,0.777,,,,,,,,,,,,,,,,,,,,,,5e8dd289f526a801dc3ce16d,60e56a32e776b6ca1e030277,2021-07-07_10h50.50.654,Simcolourproject_2stim_asymm_v5,2020.2.10,Win32,60,60e52e7cfedb1dae636df45f,,,,,,,,,3279,29,55,1,0,0,response1disk,,7,14,2,1,0,0,rectangle,14,2,1,0,0,14,2,1,0,0,0,56,56,90,1,,,,,,,,
,,,,,,,,,,,,,FF,,,,,,,,1.388,,,,,,,,,,,,,,,,,,,,,,5e8dd289f526a801dc3ce16d,60e56a32e776b6ca1e030277,2021-07-07_10h50.50.654,Simcolourproject_2stim_asymm_v5,2020.2.10,Win32,60,60e52e7cfedb1dae636df45f,,,,,,,,,813,46,24,1,0,0,response1disk,,6,4,-2,1,0,0,rectangle,4,-2,1,0,0,4,-2,1,0,0,0,57,57,119,1,,,,,,,,
,,,,,,,,,,,,,FF,,,,,,,,0.866,,,,,,,,,,,,,,,,,,,,,,5e8dd289f526a801dc3ce16d,60e56a32e776b6ca1e030277,2021-07-07_10h50.50.654,Simcolourproject_2stim_asymm_v5,2020.2.10,Win32,60,60e52e7cfedb1dae636df45f,,,,,,,,,934,44,61,1,0,0,response1disk,,7,15,-5,1,0,0,rectangle,15,-5,1,0,0,15,-5,1,0,0,0,58,58,155,1,,,,,,,,
,,,,,,,,,,,,,FF,,,,,,,,0.636,,,,,,,,,,,,,,,,,,,,,,5e8dd289f526a801dc3ce16d,60e56a32e776b6ca1e030277,2021-07-07_10h50.50.654,Simcolourproject_2stim_asymm_v5,2020.2.10,Win32,60,60e52e7cfedb1dae636df45f,,,,,,,,,1540,31,65,1,0,0,response1disk,,7,15,4,1,0,0,rectangle,15,4,1,0,0,15,4,1,0,0,0,59,59,105,1,,,,,,,,
,,,,,,,,,,,,,FF,,,,,,,,0.578,,,,,,,,,,,,,,,,,,,,,,5e8dd289f526a801dc3ce16d,60e56a32e776b6ca1e030277,2021-07-07_10h50.50.654,Simcolourproject_2stim_asymm_v5,2020.2.10,Win32,60,60e52e7cfedb1dae636df45f,,,,,,,,,3182,30,67,1,0,0,response1disk,,7,15,6,1,0,0,rectangle,-88,38,1,0,0,11,-10,1,0,0,0,60,60,153,1,,response7disk_3,TRUE,1,7,"[266,267,217,131,154,5,123,93,103,134,70,107,287,258,166,207,86,297,212,61]",2.028,rectangle
,,,,,,,,,,,,,FF,,,,,,,,2.44,,,,,,,,,,,,,,,,,,,,,,5e8dd289f526a801dc3ce16d,60e56a32e776b6ca1e030277,2021-07-07_10h50.50.654,Simcolourproject_2stim_asymm_v5,2020.2.10,Win32,60,60e52e7cfedb1dae636df45f,,,,,,,,,1626,31,55,1,0,0,response1disk,,7,8,7,1,0,0,rectangle,8,7,1,0,0,8,7,1,0,0,0,61,61,32,1,,,,,,,,
,,,,,,,,,,,,,FF,,,,,,,,0.789,,,,,,,,,,,,,,,,,,,,,,5e8dd289f526a801dc3ce16d,60e56a32e776b6ca1e030277,2021-07-07_10h50.50.654,Simcolourproject_2stim_asymm_v5,2020.2.10,Win32,60,60e52e7cfedb1dae636df45f,,,,,,,,,879,25,67,1,0,0,response1disk,,7,12,14,1,0,0,rectangle,12,14,1,0,0,12,14,1,0,0,0,62,62,94,1,,,,,,,,
,,,,,,,,,,,,,FF,,,,,,,,0.839,,,,,,,,,,,,,,,,,,,,,,5e8dd289f526a801dc3ce16d,60e56a32e776b6ca1e030277,2021-07-07_10h50.50.654,Simcolourproject_2stim_asymm_v5,2020.2.10,Win32,60,60e52e7cfedb1dae636df45f,,,,,,,,,4033,37,82,1,0,0,response1disk,,7,14,3,1,0,0,rectangle,14,3,1,0,0,14,3,1,0,0,0,63,63,51,1,,,,,,,,
,,,,,,,,,,,,,FF,,,,,,,,1.347,,,,,,,,,,,,,,,,,,,,,,5e8dd289f526a801dc3ce16d,60e56a32e776b6ca1e030277,2021-07-07_10h50.50.654,Simcolourproject_2stim_asymm_v5,2020.2.10,Win32,60,60e52e7cfedb1dae636df45f,,,,,,,,,3390,-63,36,1,0,0,response7disk,,1,22,8,1,0,0,rectangle,22,8,1,0,0,22,8,1,0,0,0,64,64,115,1,,,,,,,,
,,,,,,,,,,,,,FF,,,,,,,,0.569,,,,,,,,,,,,,,,,,,,,,,5e8dd289f526a801dc3ce16d,60e56a32e776b6ca1e030277,2021-07-07_10h50.50.654,Simcolourproject_2stim_asymm_v5,2020.2.10,Win32,60,60e52e7cfedb1dae636df45f,,,,,,,,,1701,49,85,1,0,0,response1disk,,7,14,11,1,0,0,rectangle,14,11,1,0,0,14,11,1,0,0,0,65,65,123,1,,,,,,,,
,,,,,,,,,,,,,FF,,,,,,,,0.634,,,,,,,,,,,,,,,,,,,,,,5e8dd289f526a801dc3ce16d,60e56a32e776b6ca1e030277,2021-07-07_10h50.50.654,Simcolourproject_2stim_asymm_v5,2020.2.10,Win32,60,60e52e7cfedb1dae636df45f,,,,,,,,,1079,30,65,1,0,0,response1disk,,7,15,6,1,0,0,rectangle,15,6,1,0,0,15,6,1,0,0,0,66,66,104,1,,,,,,,,
,,,,,,,,,,,,,FF,,,,,,,,2.338,,,,,,,,,,,,,,,,,,,,,,5e8dd289f526a801dc3ce16d,60e56a32e776b6ca1e030277,2021-07-07_10h50.50.654,Simcolourproject_2stim_asymm_v5,2020.2.10,Win32,60,60e52e7cfedb1dae636df45f,,,,,,,,,438,41,69,1,0,0,response1disk,,7,18,-3,1,0,0,rectangle,18,-3,1,0,0,18,-3,1,0,0,0,67,67,107,1,,,,,,,,
,,,,,,,,,,,,,FF,,,,,,,,0.866,,,,,,,,,,,,,,,,,,,,,,5e8dd289f526a801dc3ce16d,60e56a32e776b6ca1e030277,2021-07-07_10h50.50.654,Simcolourproject_2stim_asymm_v5,2020.2.10,Win32,60,60e52e7cfedb1dae636df45f,,,,,,,,,431,67,38,1,0,0,response1disk,,6,9,9,1,0,0,rectangle,9,9,1,0,0,9,9,1,0,0,0,68,68,43,1,,,,,,,,
,,,,,,,,,,,,,FF,,,,,,,,0.622,,,,,,,,,,,,,,,,,,,,,,5e8dd289f526a801dc3ce16d,60e56a32e776b6ca1e030277,2021-07-07_10h50.50.654,Simcolourproject_2stim_asymm_v5,2020.2.10,Win32,60,60e52e7cfedb1dae636df45f,,,,,,,,,3127,47,75,1,0,0,response1disk,,7,20,11,1,0,0,rectangle,-62,-37,1,0,0,-24,-3,1,0,0,0,69,69,78,1,,response5disk_3,TRUE,2,2,"[266,267,217,131,154,5,123,93,103,134,70,107,287,258,166,207,86,297,212,61]",1.552,rectangle
,,,,,,,,,,,,,FF,,,,,,,,1.286,,,,,,,,,,,,,,,,,,,,,,5e8dd289f526a801dc3ce16d,60e56a32e776b6ca1e030277,2021-07-07_10h50.50.654,Simcolourproject_2stim_asymm_v5,2020.2.10,Win32,60,60e52e7cfedb1dae636df45f,,,,,,,,,2720,-58,-35,1,0,0,response5disk,,2,-17,3,1,0,0,rectangle,-17,3,1,0,0,-17,3,1,0,0,0,70,70,42,1,,,,,,,,
,,,,,,,,,,,,,FF,,,,,,,,0.798,,,,,,,,,,,,,,,,,,,,,,5e8dd289f526a801dc3ce16d,60e56a32e776b6ca1e030277,2021-07-07_10h50.50.654,Simcolourproject_2stim_asymm_v5,2020.2.10,Win32,60,60e52e7cfedb1dae636df45f,,,,,,,,,1239,-26,-51,1,0,0,response5disk,,3,-3,-4,1,0,0,rectangle,-3,-4,1,0,0,-3,-4,1,0,0,0,71,71,83,1,,,,,,,,
,,,,,,,,,,,,,FF,,,,,,,,0.936,,,,,,,,,,,,,,,,,,,,,,5e8dd289f526a801dc3ce16d,60e56a32e776b6ca1e030277,2021-07-07_10h50.50.654,Simcolourproject_2stim_asymm_v5,2020.2.10,Win32,60,60e52e7cfedb1dae636df45f,,,,,,,,,2292,-70,-32,1,0,0,response5disk,,2,-11,7,1,0,0,rectangle,-11,7,1,0,0,-11,7,1,0,0,0,72,72,9,1,,,,,,,,
,,,,,,,,,,,,,FF,,,,,,,,1.019,,,,,,,,,,,,,,,,,,,,,,5e8dd289f526a801dc3ce16d,60e56a32e776b6ca1e030277,2021-07-07_10h50.50.654,Simcolourproject_2stim_asymm_v5,2020.2.10,Win32,60,60e52e7cfedb1dae636df45f,,,,,,,,,793,39,76,1,0,0,response1disk,,7,2,-1,1,0,0,rectangle,2,-1,1,0,0,2,-1,1,0,0,0,73,73,70,1,,,,,,,,
,,,,,,,,,,,,,FF,,,,,,,,0.767,,,,,,,,,,,,,,,,,,,,,,5e8dd289f526a801dc3ce16d,60e56a32e776b6ca1e030277,2021-07-07_10h50.50.654,Simcolourproject_2stim_asymm_v5,2020.2.10,Win32,60,60e52e7cfedb1dae636df45f,,,,,,,,,1192,39,74,1,0,0,response1disk,,7,12,1,1,0,0,rectangle,12,1,1,0,0,12,1,1,0,0,0,74,74,20,1,,,,,,,,
,,,,,,,,,,,,,FF,,,,,,,,0.743,,,,,,,,,,,,,,,,,,,,,,5e8dd289f526a801dc3ce16d,60e56a32e776b6ca1e030277,2021-07-07_10h50.50.654,Simcolourproject_2stim_asymm_v5,2020.2.10,Win32,60,60e52e7cfedb1dae636df45f,,,,,,,,,1651,42,74,1,0,0,response1disk,,7,15,1,1,0,0,rectangle,15,1,1,0,0,15,1,1,0,0,0,75,75,103,1,,,,,,,,
,,,,,,,,,,,,,FF,,,,,,,,1.14,,,,,,,,,,,,,,,,,,,,,,5e8dd289f526a801dc3ce16d,60e56a32e776b6ca1e030277,2021-07-07_10h50.50.654,Simcolourproject_2stim_asymm_v5,2020.2.10,Win32,60,60e52e7cfedb1dae636df45f,,,,,,,,,3886,67,54,1,0,0,response1disk,,6,9,-2,1,0,0,rectangle,9,-2,1,0,0,9,-2,1,0,0,0,76,76,21,1,,,,,,,,
,,,,,,,,,,,,,FF,,,,,,,,0.826,,,,,,,,,,,,,,,,,,,,,,5e8dd289f526a801dc3ce16d,60e56a32e776b6ca1e030277,2021-07-07_10h50.50.654,Simcolourproject_2stim_asymm_v5,2020.2.10,Win32,60,60e52e7cfedb1dae636df45f,,,,,,,,,3964,42,56,1,0,0,response1disk,,7,22,10,1,0,0,rectangle,22,10,1,0,0,22,10,1,0,0,0,77,77,144,1,,,,,,,,
,,,,,,,,,,,,,FF,,,,,,,,0.819,,,,,,,,,,,,,,,,,,,,,,5e8dd289f526a801dc3ce16d,60e56a32e776b6ca1e030277,2021-07-07_10h50.50.654,Simcolourproject_2stim_asymm_v5,2020.2.10,Win32,60,60e52e7cfedb1dae636df45f,,,,,,,,,3874,42,71,1,0,0,response1disk,,7,15,-3,1,0,0,rectangle,15,-3,1,0,0,15,-3,1,0,0,0,78,78,57,1,,,,,,,,
,,,,,,,,,,,,,FF,,,,,,,,0.606,,,,,,,,,,,,,,,,,,,,,,5e8dd289f526a801dc3ce16d,60e56a32e776b6ca1e030277,2021-07-07_10h50.50.654,Simcolourproject_2stim_asymm_v5,2020.2.10,Win32,60,60e52e7cfedb1dae636df45f,,,,,,,,,254,37,48,1,0,0,response1disk,,7,15,-11,1,0,0,rectangle,15,-11,1,0,0,15,-11,1,0,0,0,79,79,118,1,,,,,,,,
,,,,,,,,,,,,,FF,,,,,,,,0.92,,,,,,,,,,,,,,,,,,,,,,5e8dd289f526a801dc3ce16d,60e56a32e776b6ca1e030277,2021-07-07_10h50.50.654,Simcolourproject_2stim_asymm_v5,2020.2.10,Win32,60,60e52e7cfedb1dae636df45f,,,,,,,,,1564,49,75,1,0,0,response1disk,,7,11,-1,1,0,0,rectangle,11,-1,1,0,0,11,-1,1,0,0,0,80,80,147,1,,,,,,,,
,,,,,,,,,,,,,FF,,,,,,,,1.218,,,,,,,,,,,,,,,,,,,,,,5e8dd289f526a801dc3ce16d,60e56a32e776b6ca1e030277,2021-07-07_10h50.50.654,Simcolourproject_2stim_asymm_v5,2020.2.10,Win32,60,60e52e7cfedb1dae636df45f,,,,,,,,,3282,-36,-61,1,0,0,response5disk,,3,7,-4,1,0,0,rectangle,7,-4,1,0,0,7,-4,1,0,0,0,81,81,100,1,,,,,,,,
,,,,,,,,,,,,,FF,,,,,,,,1.12,,,,,,,,,,,,,,,,,,,,,,5e8dd289f526a801dc3ce16d,60e56a32e776b6ca1e030277,2021-07-07_10h50.50.654,Simcolourproject_2stim_asymm_v5,2020.2.10,Win32,60,60e52e7cfedb1dae636df45f,,,,,,,,,2704,22,-56,1,0,0,response3disk,,4,1,-5,1,0,0,rectangle,1,-5,1,0,0,1,-5,1,0,0,0,82,82,3,1,,,,,,,,
,,,,,,,,,,,,,FF,,,,,,,,2.046,,,,,,,,,,,,,,,,,,,,,,5e8dd289f526a801dc3ce16d,60e56a32e776b6ca1e030277,2021-07-07_10h50.50.654,Simcolourproject_2stim_asymm_v5,2020.2.10,Win32,60,60e52e7cfedb1dae636df45f,,,,,,,,,2899,82,-30,1,0,0,response3disk,,5,33,1,1,0,0,rectangle,33,1,1,0,0,33,1,1,0,0,0,83,83,97,1,,,,,,,,
,,,,,,,,,,,,,FF,,,,,,,,1.021,,,,,,,,,,,,,,,,,,,,,,5e8dd289f526a801dc3ce16d,60e56a32e776b6ca1e030277,2021-07-07_10h50.50.654,Simcolourproject_2stim_asymm_v5,2020.2.10,Win32,60,60e52e7cfedb1dae636df45f,,,,,,,,,1398,29,-69,1,0,0,response3disk,,4,5,-13,1,0,0,rectangle,5,-13,1,0,0,5,-13,1,0,0,0,84,84,54,1,,,,,,,,
,,,,,,,,,,,,,FF,,,,,,,,0.935,,,,,,,,,,,,,,,,,,,,,,5e8dd289f526a801dc3ce16d,60e56a32e776b6ca1e030277,2021-07-07_10h50.50.654,Simcolourproject_2stim_asymm_v5,2020.2.10,Win32,60,60e52e7cfedb1dae636df45f,,,,,,,,,337,37,69,1,0,0,response1disk,,7,8,-6,1,0,0,rectangle,-30,84,1,0,0,-7,4,1,0,0,0,85,85,87,1,,response7disk_3,TRUE,0,0,"[266,267,217,131,154,5,123,93,103,134,70,107,287,258,166,207,86,297,212,61]",1.663,rectangle
,,,,,,,,,,,,,FF,,,,,,,,1.225,,,,,,,,,,,,,,,,,,,,,,5e8dd289f526a801dc3ce16d,60e56a32e776b6ca1e030277,2021-07-07_10h50.50.654,Simcolourproject_2stim_asymm_v5,2020.2.10,Win32,60,60e52e7cfedb1dae636df45f,,,,,,,,,95,-22,-52,1,0,0,response5disk,,3,14,-3,1,0,0,rectangle,14,-3,1,0,0,14,-3,1,0,0,0,86,86,53,1,,,,,,,,
,,,,,,,,,,,,,FF,,,,,,,,1.634,,,,,,,,,,,,,,,,,,,,,,5e8dd289f526a801dc3ce16d,60e56a32e776b6ca1e030277,2021-07-07_10h50.50.654,Simcolourproject_2stim_asymm_v5,2020.2.10,Win32,60,60e52e7cfedb1dae636df45f,,,,,,,,,725,20,-46,1,0,0,response3disk,,4,-1,2,1,0,0,rectangle,-1,2,1,0,0,-1,2,1,0,0,0,87,87,135,1,,,,,,,,
,,,,,,,,,,,,,FF,,,,,,,,1.719,,,,,,,,,,,,,,,,,,,,,,5e8dd289f526a801dc3ce16d,60e56a32e776b6ca1e030277,2021-07-07_10h50.50.654,Simcolourproject_2stim_asymm_v5,2020.2.10,Win32,60,60e52e7cfedb1dae636df45f,,,,,,,,,2423,65,-29,1,0,0,response3disk,,5,6,11,1,0,0,rectangle,6,11,1,0,0,6,11,1,0,0,0,88,88,114,1,,,,,,,,
,,,,,,,,,,,,,FF,,,,,,,,0.886,,,,,,,,,,,,,,,,,,,,,,5e8dd289f526a801dc3ce16d,60e56a32e776b6ca1e030277,2021-07-07_10h50.50.654,Simcolourproject_2stim_asymm_v5,2020.2.10,Win32,60,60e52e7cfedb1dae636df45f,,,,,,,,,3834,28,59,1,0,0,response1disk,,7,7,-10,1,0,0,rectangle,7,-10,1,0,0,7,-10,1,0,0,0,89,89,157,1,,,,,,,,
,,,,,,,,,,,,,FF,,,,,,,,1.098,,,,,,,,,,,,,,,,,,,,,,5e8dd289f526a801dc3ce16d,60e56a32e776b6ca1e030277,2021-07-07_10h50.50.654,Simcolourproject_2stim_asymm_v5,2020.2.10,Win32,60,60e52e7cfedb1dae636df45f,,,,,,,,,2881,59,44,1,0,0,response1disk,,6,6,2,1,0,0,rectangle,6,2,1,0,0,6,2,1,0,0,0,90,90,65,1,,,,,,,,
,,,,,,,,,,,,,FF,,,,,,,,1.231,,,,,,,,,,,,,,,,,,,,,,5e8dd289f526a801dc3ce16d,60e56a32e776b6ca1e030277,2021-07-07_10h50.50.654,Simcolourproject_2stim_asymm_v5,2020.2.10,Win32,60,60e52e7cfedb1dae636df45f,,,,,,,,,413,29,55,1,0,0,response1disk,,7,11,4,1,0,0,rectangle,11,4,1,0,0,11,4,1,0,0,0,91,91,55,1,,,,,,,,
,,,,,,,,,,,,,FF,,,,,,,,0.638,,,,,,,,,,,,,,,,,,,,,,5e8dd289f526a801dc3ce16d,60e56a32e776b6ca1e030277,2021-07-07_10h50.50.654,Simcolourproject_2stim_asymm_v5,2020.2.10,Win32,60,60e52e7cfedb1dae636df45f,,,,,,,,,2705,39,69,1,0,0,response1disk,,7,16,1,1,0,0,rectangle,-32,-71,1,0,0,11,3,1,0,0,0,92,92,34,1,,response5disk_3,TRUE,3,3,"[266,267,217,131,154,5,123,93,103,134,70,107,287,258,166,207,86,297,212,61]",1.661,rectangle
,,,,,,,,,,,,,FF,,,,,,,,0.821,,,,,,,,,,,,,,,,,,,,,,5e8dd289f526a801dc3ce16d,60e56a32e776b6ca1e030277,2021-07-07_10h50.50.654,Simcolourproject_2stim_asymm_v5,2020.2.10,Win32,60,60e52e7cfedb1dae636df45f,,,,,,,,,2441,30,66,1,0,0,response1disk,,7,14,2,1,0,0,rectangle,14,2,1,0,0,14,2,1,0,0,0,93,93,17,1,,,,,,,,
,,,,,,,,,,,,,FF,,,,,,,,2.675,,,,,,,,,,,,,,,,,,,,,,5e8dd289f526a801dc3ce16d,60e56a32e776b6ca1e030277,2021-07-07_10h50.50.654,Simcolourproject_2stim_asymm_v5,2020.2.10,Win32,60,60e52e7cfedb1dae636df45f,,,,,,,,,2945,23,60,1,0,0,response1disk,,7,6,3,1,0,0,rectangle,6,3,1,0,0,6,3,1,0,0,0,94,94,63,1,,,,,,,,
,,,,,,,,,,,,,FF,,,,,,,,0.873,,,,,,,,,,,,,,,,,,,,,,5e8dd289f526a801dc3ce16d,60e56a32e776b6ca1e030277,2021-07-07_10h50.50.654,Simcolourproject_2stim_asymm_v5,2020.2.10,Win32,60,60e52e7cfedb1dae636df45f,,,,,,,,,953,38,82,1,0,0,response1disk,,7,18,10,1,0,0,rectangle,18,10,1,0,0,18,10,1,0,0,0,95,95,127,1,,,,,,,,
,,,,,,,,,,,,,FF,,,,,,,,0.725,,,,,,,,,,,,,,,,,,,,,,5e8dd289f526a801dc3ce16d,60e56a32e776b6ca1e030277,2021-07-07_10h50.50.654,Simcolourproject_2stim_asymm_v5,2020.2.10,Win32,60,60e52e7cfedb1dae636df45f,,,,,,,,,3325,43,65,1,0,0,response1disk,,7,12,-4,1,0,0,rectangle,12,-4,1,0,0,12,-4,1,0,0,0,96,96,145,1,,,,,,,,
,,,,,,,,,,,,,FF,,,,,,,,1.001,,,,,,,,,,,,,,,,,,,,,,5e8dd289f526a801dc3ce16d,60e56a32e776b6ca1e030277,2021-07-07_10h50.50.654,Simcolourproject_2stim_asymm_v5,2020.2.10,Win32,60,60e52e7cfedb1dae636df45f,,,,,,,,,649,77,41,1,0,0,response1disk,,6,21,7,1,0,0,rectangle,21,7,1,0,0,21,7,1,0,0,0,97,97,113,1,,,,,,,,
,,,,,,,,,,,,,FF,,,,,,,,0.895,,,,,,,,,,,,,,,,,,,,,,5e8dd289f526a801dc3ce16d,60e56a32e776b6ca1e030277,2021-07-07_10h50.50.654,Simcolourproject_2stim_asymm_v5,2020.2.10,Win32,60,60e52e7cfedb1dae636df45f,,,,,,,,,2043,90,39,1,0,0,response1disk,,6,18,1,1,0,0,rectangle,18,1,1,0,0,18,1,1,0,0,0,98,98,110,1,,,,,,,,
,,,,,,,,,,,,,FF,,,,,,,,0.729,,,,,,,,,,,,,,,,,,,,,,5e8dd289f526a801dc3ce16d,60e56a32e776b6ca1e030277,2021-07-07_10h50.50.654,Simcolourproject_2stim_asymm_v5,2020.2.10,Win32,60,60e52e7cfedb1dae636df45f,,,,,,,,,3070,98,56,1,0,0,response1disk,,6,21,2,1,0,0,rectangle,21,2,1,0,0,21,2,1,0,0,0,99,99,22,1,,,,,,,,
,,,,,,,,,,,,,FF,,,,,,,,1.116,,,,,,,,,,,,,,,,,,,,,,5e8dd289f526a801dc3ce16d,60e56a32e776b6ca1e030277,2021-07-07_10h50.50.654,Simcolourproject_2stim_asymm_v5,2020.2.10,Win32,60,60e52e7cfedb1dae636df45f,,,,,,,,,4140,-46,84,1,0,0,response7disk,,0,8,-10,1,0,0,rectangle,8,-10,1,0,0,8,-10,1,0,0,0,100,100,37,1,,,,,,,,
,,,,,,,,,,,,,FF,,,,,,,,1.086,,,,,,,,,,,,,,,,,,,,,,5e8dd289f526a801dc3ce16d,60e56a32e776b6ca1e030277,2021-07-07_10h50.50.654,Simcolourproject_2stim_asymm_v5,2020.2.10,Win32,60,60e52e7cfedb1dae636df45f,,,,,,,,,2684,30,72,1,0,0,response1disk,,7,8,2,1,0,0,rectangle,8,2,1,0,0,8,2,1,0,0,0,101,101,91,1,,,,,,,,
,,,,,,,,,,,,,FF,,,,,,,,0.846,,,,,,,,,,,,,,,,,,,,,,5e8dd289f526a801dc3ce16d,60e56a32e776b6ca1e030277,2021-07-07_10h50.50.654,Simcolourproject_2stim_asymm_v5,2020.2.10,Win32,60,60e52e7cfedb1dae636df45f,,,,,,,,,3977,42,93,1,0,0,response1disk,,7,21,4,1,0,0,rectangle,42,93,1,0,0,22,2,1,0,0,0,102,102,128,1,,response1disk_3,TRUE,7,7,"[266,267,217,131,154,5,123,93,103,134,70,107,287,258,166,207,86,297,212,61]",1.355,rectangle
,,,,,,,,,,,,,FF,,,,,,,,1.086,,,,,,,,,,,,,,,,,,,,,,5e8dd289f526a801dc3ce16d,60e56a32e776b6ca1e030277,2021-07-07_10h50.50.654,Simcolourproject_2stim_asymm_v5,2020.2.10,Win32,60,60e52e7cfedb1dae636df45f,,,,,,,,,4184,45,83,1,0,0,response1disk,,7,26,11,1,0,0,rectangle,26,11,1,0,0,26,11,1,0,0,0,103,103,130,1,,,,,,,,
,,,,,,,,,,,,,FF,,,,,,,,0.652,,,,,,,,,,,,,,,,,,,,,,5e8dd289f526a801dc3ce16d,60e56a32e776b6ca1e030277,2021-07-07_10h50.50.654,Simcolourproject_2stim_asymm_v5,2020.2.10,Win32,60,60e52e7cfedb1dae636df45f,,,,,,,,,3697,48,89,1,0,0,response1disk,,7,28,8,1,0,0,rectangle,28,8,1,0,0,28,8,1,0,0,0,104,104,143,1,,,,,,,,
,,,,,,,,,,,,,FF,,,,,,,,0.936,,,,,,,,,,,,,,,,,,,,,,5e8dd289f526a801dc3ce16d,60e56a32e776b6ca1e030277,2021-07-07_10h50.50.654,Simcolourproject_2stim_asymm_v5,2020.2.10,Win32,60,60e52e7cfedb1dae636df45f,,,,,,,,,3080,43,76,1,0,0,response1disk,,7,22,5,1,0,0,rectangle,22,5,1,0,0,22,5,1,0,0,0,105,105,81,1,,,,,,,,
,,,,,,,,,,,,,FF,,,,,,,,1.844,,,,,,,,,,,,,,,,,,,,,,5e8dd289f526a801dc3ce16d,60e56a32e776b6ca1e030277,2021-07-07_10h50.50.654,Simcolourproject_2stim_asymm_v5,2020.2.10,Win32,60,60e52e7cfedb1dae636df45f,,,,,,,,,3553,-50,-81,1,0,0,response5disk,,3,5,-1,1,0,0,rectangle,-79,48,1,0,0,-17,-5,1,0,0,0,106,106,33,1,,response7disk_3,TRUE,1,1,"[266,267,217,131,154,5,123,93,103,134,70,107,287,258,166,207,86,297,212,61]",2.159,rectangle
,,,,,,,,,,,,,FF,,,,,,,,1.234,,,,,,,,,,,,,,,,,,,,,,5e8dd289f526a801dc3ce16d,60e56a32e776b6ca1e030277,2021-07-07_10h50.50.654,Simcolourproject_2stim_asymm_v5,2020.2.10,Win32,60,60e52e7cfedb1dae636df45f,,,,,,,,,3588,-58,-32,1,0,0,response5disk,,2,-4,11,1,0,0,rectangle,-4,11,1,0,0,-4,11,1,0,0,0,107,107,141,1,,,,,,,,
,,,,,,,,,,,,,FF,,,,,,,,0.934,,,,,,,,,,,,,,,,,,,,,,5e8dd289f526a801dc3ce16d,60e56a32e776b6ca1e030277,2021-07-07_10h50.50.654,Simcolourproject_2stim_asymm_v5,2020.2.10,Win32,60,60e52e7cfedb1dae636df45f,,,,,,,,,3374,36,79,1,0,0,response1disk,,7,2,-2,1,0,0,rectangle,2,-2,1,0,0,2,-2,1,0,0,0,108,108,99,1,,,,,,,,
,,,,,,,,,,,,,FF,,,,,,,,1.145,,,,,,,,,,,,,,,,,,,,,,5e8dd289f526a801dc3ce16d,60e56a32e776b6ca1e030277,2021-07-07_10h50.50.654,Simcolourproject_2stim_asymm_v5,2020.2.10,Win32,60,60e52e7cfedb1dae636df45f,,,,,,,,,3583,-30,-71,1,0,0,response5disk,,3,6,1,1,0,0,rectangle,6,1,1,0,0,6,1,1,0,0,0,109,109,45,1,,,,,,,,
,,,,,,,,,,,,,FF,,,,,,,,1.061,,,,,,,,,,,,,,,,,,,,,,5e8dd289f526a801dc3ce16d,60e56a32e776b6ca1e030277,2021-07-07_10h50.50.654,Simcolourproject_2stim_asymm_v5,2020.2.10,Win32,60,60e52e7cfedb1dae636df45f,,,,,,,,,4205,-59,-17,1,0,0,response5disk,,2,-23,9,1,0,0,rectangle,-23,9,1,0,0,-23,9,1,0,0,0,110,110,31,1,,,,,,,,
,,,,,,,,,,,,,FF,,,,,,,,0.866,,,,,,,,,,,,,,,,,,,,,,5e8dd289f526a801dc3ce16d,60e56a32e776b6ca1e030277,2021-07-07_10h50.50.654,Simcolourproject_2stim_asymm_v5,2020.2.10,Win32,60,60e52e7cfedb1dae636df45f,,,,,,,,,3976,-23,-52,1,0,0,response5disk,,3,6,-7,1,0,0,rectangle,6,-7,1,0,0,6,-7,1,0,0,0,111,111,14,1,,,,,,,,
,,,,,,,,,,,,,FF,,,,,,,,1.289,,,,,,,,,,,,,,,,,,,,,,5e8dd289f526a801dc3ce16d,60e56a32e776b6ca1e030277,2021-07-07_10h50.50.654,Simcolourproject_2stim_asymm_v5,2020.2.10,Win32,60,60e52e7cfedb1dae636df45f,,,,,,,,,958,63,48,1,0,0,response1disk,,6,10,6,1,0,0,rectangle,10,6,1,0,0,10,6,1,0,0,0,112,112,156,1,,,,,,,,
,,,,,,,,,,,,,FF,,,,,,,,1.501,,,,,,,,,,,,,,,,,,,,,,5e8dd289f526a801dc3ce16d,60e56a32e776b6ca1e030277,2021-07-07_10h50.50.654,Simcolourproject_2stim_asymm_v5,2020.2.10,Win32,60,60e52e7cfedb1dae636df45f,,,,,,,,,2495,51,115,1,0,0,response1disk,,7,9,3,1,0,0,rectangle,9,3,1,0,0,9,3,1,0,0,0,113,113,76,1,,,,,,,,
,,,,,,,,,,,,,FF,,,,,,,,1.032,,,,,,,,,,,,,,,,,,,,,,5e8dd289f526a801dc3ce16d,60e56a32e776b6ca1e030277,2021-07-07_10h50.50.654,Simcolourproject_2stim_asymm_v5,2020.2.10,Win32,60,60e52e7cfedb1dae636df45f,,,,,,,,,3130,46,82,1,0,0,response1disk,,7,8,-4,1,0,0,rectangle,8,-4,1,0,0,8,-4,1,0,0,0,114,114,10,1,,,,,,,,
,,,,,,,,,,,,,FF,,,,,,,,1.079,,,,,,,,,,,,,,,,,,,,,,5e8dd289f526a801dc3ce16d,60e56a32e776b6ca1e030277,2021-07-07_10h50.50.654,Simcolourproject_2stim_asymm_v5,2020.2.10,Win32,60,60e52e7cfedb1dae636df45f,,,,,,,,,858,79,48,1,0,0,response1disk,,6,29,10,1,0,0,rectangle,29,10,1,0,0,29,10,1,0,0,0,115,115,142,1,,,,,,,,
,,,,,,,,,,,,,FF,,,,,,,,1.075,,,,,,,,,,,,,,,,,,,,,,5e8dd289f526a801dc3ce16d,60e56a32e776b6ca1e030277,2021-07-07_10h50.50.654,Simcolourproject_2stim_asymm_v5,2020.2.10,Win32,60,60e52e7cfedb1dae636df45f,,,,,,,,,1983,48,104,1,0,0,response1disk,,7,9,0,1,0,0,rectangle,9,0,1,0,0,9,0,1,0,0,0,116,116,140,1,,,,,,,,
,,,,,,,,,,,,,FF,,,,,,,,1.584,,,,,,,,,,,,,,,,,,,,,,5e8dd289f526a801dc3ce16d,60e56a32e776b6ca1e030277,2021-07-07_10h50.50.654,Simcolourproject_2stim_asymm_v5,2020.2.10,Win32,60,60e52e7cfedb1dae636df45f,,,,,,,,,3914,45,-53,1,0,0,response3disk,,4,0,-14,1,0,0,rectangle,0,-14,1,0,0,0,-14,1,0,0,0,117,117,27,1,,,,,,,,
,,,,,,,,,,,,,FF,,,,,,,,0.694,,,,,,,,,,,,,,,,,,,,,,5e8dd289f526a801dc3ce16d,60e56a32e776b6ca1e030277,2021-07-07_10h50.50.654,Simcolourproject_2stim_asymm_v5,2020.2.10,Win32,60,60e52e7cfedb1dae636df45f,,,,,,,,,1713,39,76,1,0,0,response1disk,,7,10,3,1,0,0,rectangle,10,3,1,0,0,10,3,1,0,0,0,118,118,82,1,,,,,,,,
,,,,,,,,,,,,,FF,,,,,,,,1.847,,,,,,,,,,,,,,,,,,,,,,5e8dd289f526a801dc3ce16d,60e56a32e776b6ca1e030277,2021-07-07_10h50.50.654,Simcolourproject_2stim_asymm_v5,2020.2.10,Win32,60,60e52e7cfedb1dae636df45f,,,,,,,,,1734,-31,-42,1,0,0,response5disk,,3,2,10,1,0,0,rectangle,2,10,1,0,0,2,10,1,0,0,0,119,119,79,1,,,,,,,,
,,,,,,,,,,,,,FF,,,,,,,,1.077,,,,,,,,,,,,,,,,,,,,,,5e8dd289f526a801dc3ce16d,60e56a32e776b6ca1e030277,2021-07-07_10h50.50.654,Simcolourproject_2stim_asymm_v5,2020.2.10,Win32,60,60e52e7cfedb1dae636df45f,,,,,,,,,3392,-36,-66,1,0,0,response5disk,,3,-2,2,1,0,0,rectangle,-2,2,1,0,0,-2,2,1,0,0,0,120,120,148,1,,,,,,,,
,,,,,,,,,,,,,FF,,,,,,,,2.537,,,,,,,,,,,,,,,,,,,,,,5e8dd289f526a801dc3ce16d,60e56a32e776b6ca1e030277,2021-07-07_10h50.50.654,Simcolourproject_2stim_asymm_v5,2020.2.10,Win32,60,60e52e7cfedb1dae636df45f,,,,,,,,,1021,34,56,1,0,0,response1disk,,7,9,3,1,0,0,rectangle,9,3,1,0,0,9,3,1,0,0,0,121,121,158,1,,,,,,,,
,,,,,,,,,,,,,FF,,,,,,,,2,,,,,,,,,,,,,,,,,,,,,,5e8dd289f526a801dc3ce16d,60e56a32e776b6ca1e030277,2021-07-07_10h50.50.654,Simcolourproject_2stim_asymm_v5,2020.2.10,Win32,60,60e52e7cfedb1dae636df45f,,,,,,,,,3403,84,-33,1,0,0,response3disk,,5,4,2,1,0,0,rectangle,-69,31,1,0,0,-5,-8,1,0,0,0,122,122,88,1,,response7disk_3,TRUE,1,1,"[266,267,217,131,154,5,123,93,103,134,70,107,287,258,166,207,86,297,212,61]",2.321,rectangle
,,,,,,,,,,,,,FF,,,,,,,,1.152,,,,,,,,,,,,,,,,,,,,,,5e8dd289f526a801dc3ce16d,60e56a32e776b6ca1e030277,2021-07-07_10h50.50.654,Simcolourproject_2stim_asymm_v5,2020.2.10,Win32,60,60e52e7cfedb1dae636df45f,,,,,,,,,3125,62,71,1,0,0,response1disk,,7,-18,-3,1,0,0,rectangle,-18,-3,1,0,0,-18,-3,1,0,0,0,123,123,62,1,,,,,,,,
,,,,,,,,,,,,,FF,,,,,,,,0.987,,,,,,,,,,,,,,,,,,,,,,5e8dd289f526a801dc3ce16d,60e56a32e776b6ca1e030277,2021-07-07_10h50.50.654,Simcolourproject_2stim_asymm_v5,2020.2.10,Win32,60,60e52e7cfedb1dae636df45f,,,,,,,,,551,84,44,1,0,0,response1disk,,6,12,-6,1,0,0,rectangle,12,-6,1,0,0,12,-6,1,0,0,0,124,124,73,1,,,,,,,,
,,,,,,,,,,,,,FF,,,,,,,,0.801,,,,,,,,,,,,,,,,,,,,,,5e8dd289f526a801dc3ce16d,60e56a32e776b6ca1e030277,2021-07-07_10h50.50.654,Simcolourproject_2stim_asymm_v5,2020.2.10,Win32,60,60e52e7cfedb1dae636df45f,,,,,,,,,1865,52,90,1,0,0,response1disk,,7,0,-4,1,0,0,rectangle,0,-4,1,0,0,0,-4,1,0,0,0,125,125,7,1,,,,,,,,
,,,,,,,,,,,,,FF,,,,,,,,1.309,,,,,,,,,,,,,,,,,,,,,,5e8dd289f526a801dc3ce16d,60e56a32e776b6ca1e030277,2021-07-07_10h50.50.654,Simcolourproject_2stim_asymm_v5,2020.2.10,Win32,60,60e52e7cfedb1dae636df45f,,,,,,,,,4359,-43,-78,1,0,0,response5disk,,3,30,13,1,0,0,rectangle,30,13,1,0,0,30,13,1,0,0,0,126,126,95,1,,,,,,,,
,,,,,,,,,,,,,FF,,,,,,,,0.705,,,,,,,,,,,,,,,,,,,,,,5e8dd289f526a801dc3ce16d,60e56a32e776b6ca1e030277,2021-07-07_10h50.50.654,Simcolourproject_2stim_asymm_v5,2020.2.10,Win32,60,60e52e7cfedb1dae636df45f,,,,,,,,,1474,32,68,1,0,0,response1disk,,7,-5,-13,1,0,0,rectangle,-5,-13,1,0,0,-5,-13,1,0,0,0,127,127,12,1,,,,,,,,
,,,,,,,,,,,,,FF,,,,,,,,1.322,,,,,,,,,,,,,,,,,,,,,,5e8dd289f526a801dc3ce16d,60e56a32e776b6ca1e030277,2021-07-07_10h50.50.654,Simcolourproject_2stim_asymm_v5,2020.2.10,Win32,60,60e52e7cfedb1dae636df45f,,,,,,,,,722,35,-68,1,0,0,response3disk,,4,12,-3,1,0,0,rectangle,12,-3,1,0,0,12,-3,1,0,0,0,128,128,0,1,,,,,,,,
,,,,,,,,,,,,,FF,,,,,,,,0.721,,,,,,,,,,,,,,,,,,,,,,5e8dd289f526a801dc3ce16d,60e56a32e776b6ca1e030277,2021-07-07_10h50.50.654,Simcolourproject_2stim_asymm_v5,2020.2.10,Win32,60,60e52e7cfedb1dae636df45f,,,,,,,,,1151,35,76,1,0,0,response1disk,,7,6,-6,1,0,0,rectangle,6,-6,1,0,0,6,-6,1,0,0,0,129,129,16,1,,,,,,,,
,,,,,,,,,,,,,FF,,,,,,,,1.712,,,,,,,,,,,,,,,,,,,,,,5e8dd289f526a801dc3ce16d,60e56a32e776b6ca1e030277,2021-07-07_10h50.50.654,Simcolourproject_2stim_asymm_v5,2020.2.10,Win32,60,60e52e7cfedb1dae636df45f,,,,,,,,,3094,90,47,1,0,0,response1disk,,6,-26,3,1,0,0,rectangle,-74,32,1,0,0,-6,-3,1,0,0,0,130,130,93,1,,response7disk_3,TRUE,1,1,"[266,267,217,131,154,5,123,93,103,134,70,107,287,258,166,207,86,297,212,61]",1.795,rectangle
,,,,,,,,,,,,,FF,,,,,,,,1.162,,,,,,,,,,,,,,,,,,,,,,5e8dd289f526a801dc3ce16d,60e56a32e776b6ca1e030277,2021-07-07_10h50.50.654,Simcolourproject_2stim_asymm_v5,2020.2.10,Win32,60,60e52e7cfedb1dae636df45f,,,,,,,,,1677,-66,-43,1,0,0,response5disk,,2,25,6,1,0,0,rectangle,25,6,1,0,0,25,6,1,0,0,0,131,131,13,1,,,,,,,,
,,,,,,,,,,,,,FF,,,,,,,,0.841,,,,,,,,,,,,,,,,,,,,,,5e8dd289f526a801dc3ce16d,60e56a32e776b6ca1e030277,2021-07-07_10h50.50.654,Simcolourproject_2stim_asymm_v5,2020.2.10,Win32,60,60e52e7cfedb1dae636df45f,,,,,,,,,1816,-56,-26,1,0,0,response5disk,,2,-4,4,1,0,0,rectangle,-4,4,1,0,0,-4,4,1,0,0,0,132,132,85,1,,,,,,,,
,,,,,,,,,,,,,FF,,,,,,,,0.735,,,,,,,,,,,,,,,,,,,,,,5e8dd289f526a801dc3ce16d,60e56a32e776b6ca1e030277,2021-07-07_10h50.50.654,Simcolourproject_2stim_asymm_v5,2020.2.10,Win32,60,60e52e7cfedb1dae636df45f,,,,,,,,,517,39,82,1,0,0,response1disk,,7,6,12,1,0,0,rectangle,-88,-37,1,0,0,-4,-1,1,0,0,0,133,133,120,1,,response5disk_3,TRUE,2,2,"[266,267,217,131,154,5,123,93,103,134,70,107,287,258,166,207,86,297,212,61]",1.436,rectangle
,,,,,,,,,,,,,FF,,,,,,,,1.629,,,,,,,,,,,,,,,,,,,,,,5e8dd289f526a801dc3ce16d,60e56a32e776b6ca1e030277,2021-07-07_10h50.50.654,Simcolourproject_2stim_asymm_v5,2020.2.10,Win32,60,60e52e7cfedb1dae636df45f,,,,,,,,,2868,26,80,1,0,0,response1disk,,7,1,6,1,0,0,rectangle,1,6,1,0,0,1,6,1,0,0,0,134,134,154,1,,,,,,,,
,,,,,,,,,,,,,FF,,,,,,,,0.71,,,,,,,,,,,,,,,,,,,,,,5e8dd289f526a801dc3ce16d,60e56a32e776b6ca1e030277,2021-07-07_10h50.50.654,Simcolourproject_2stim_asymm_v5,2020.2.10,Win32,60,60e52e7cfedb1dae636df45f,,,,,,,,,3340,43,89,1,0,0,response1disk,,7,1,-14,1,0,0,rectangle,1,-14,1,0,0,1,-14,1,0,0,0,135,135,35,1,,,,,,,,
,,,,,,,,,,,,,FF,,,,,,,,0.582,,,,,,,,,,,,,,,,,,,,,,5e8dd289f526a801dc3ce16d,60e56a32e776b6ca1e030277,2021-07-07_10h50.50.654,Simcolourproject_2stim_asymm_v5,2020.2.10,Win32,60,60e52e7cfedb1dae636df45f,,,,,,,,,1112,59,76,1,0,0,response1disk,,7,8,-13,1,0,0,rectangle,8,-13,1,0,0,8,-13,1,0,0,0,136,136,106,1,,,,,,,,
,,,,,,,,,,,,,FF,,,,,,,,0.728,,,,,,,,,,,,,,,,,,,,,,5e8dd289f526a801dc3ce16d,60e56a32e776b6ca1e030277,2021-07-07_10h50.50.654,Simcolourproject_2stim_asymm_v5,2020.2.10,Win32,60,60e52e7cfedb1dae636df45f,,,,,,,,,3807,79,39,1,0,0,response1disk,,6,21,-5,1,0,0,rectangle,21,-5,1,0,0,21,-5,1,0,0,0,137,137,149,1,,,,,,,,
,,,,,,,,,,,,,FF,,,,,,,,0.956,,,,,,,,,,,,,,,,,,,,,,5e8dd289f526a801dc3ce16d,60e56a32e776b6ca1e030277,2021-07-07_10h50.50.654,Simcolourproject_2stim_asymm_v5,2020.2.10,Win32,60,60e52e7cfedb1dae636df45f,,,,,,,,,4034,86,35,1,0,0,response1disk,,6,8,-14,1,0,0,rectangle,8,-14,1,0,0,8,-14,1,0,0,0,138,138,38,1,,,,,,,,
,,,,,,,,,,,,,FF,,,,,,,,0.655,,,,,,,,,,,,,,,,,,,,,,5e8dd289f526a801dc3ce16d,60e56a32e776b6ca1e030277,2021-07-07_10h50.50.654,Simcolourproject_2stim_asymm_v5,2020.2.10,Win32,60,60e52e7cfedb1dae636df45f,,,,,,,,,1160,49,72,1,0,0,response1disk,,7,16,9,1,0,0,rectangle,16,9,1,0,0,16,9,1,0,0,0,139,139,126,1,,,,,,,,
,,,,,,,,,,,,,FF,,,,,,,,0.823,,,,,,,,,,,,,,,,,,,,,,5e8dd289f526a801dc3ce16d,60e56a32e776b6ca1e030277,2021-07-07_10h50.50.654,Simcolourproject_2stim_asymm_v5,2020.2.10,Win32,60,60e52e7cfedb1dae636df45f,,,,,,,,,1405,78,46,1,0,0,response1disk,,6,9,-11,1,0,0,rectangle,9,-11,1,0,0,9,-11,1,0,0,0,140,140,52,1,,,,,,,,
,,,,,,,,,,,,,FF,,,,,,,,1.069,,,,,,,,,,,,,,,,,,,,,,5e8dd289f526a801dc3ce16d,60e56a32e776b6ca1e030277,2021-07-07_10h50.50.654,Simcolourproject_2stim_asymm_v5,2020.2.10,Win32,60,60e52e7cfedb1dae636df45f,,,,,,,,,3050,42,-67,1,0,0,response3disk,,4,0,-7,1,0,0,rectangle,0,-7,1,0,0,0,-7,1,0,0,0,141,141,5,1,,,,,,,,
,,,,,,,,,,,,,FF,,,,,,,,0.643,,,,,,,,,,,,,,,,,,,,,,5e8dd289f526a801dc3ce16d,60e56a32e776b6ca1e030277,2021-07-07_10h50.50.654,Simcolourproject_2stim_asymm_v5,2020.2.10,Win32,60,60e52e7cfedb1dae636df45f,,,,,,,,,3189,34,-64,1,0,0,response3disk,,4,3,-8,1,0,0,rectangle,3,-8,1,0,0,3,-8,1,0,0,0,142,142,146,1,,,,,,,,
,,,,,,,,,,,,,FF,,,,,,,,1.386,,,,,,,,,,,,,,,,,,,,,,5e8dd289f526a801dc3ce16d,60e56a32e776b6ca1e030277,2021-07-07_10h50.50.654,Simcolourproject_2stim_asymm_v5,2020.2.10,Win32,60,60e52e7cfedb1dae636df45f,,,,,,,,,344,81,37,1,0,0,response1disk,,6,0,0,1,0,0,rectangle,0,0,1,0,0,0,0,1,0,0,0,143,143,159,1,,,,,,,,
,,,,,,,,,,,,,FF,,,,,,,,0.64,,,,,,,,,,,,,,,,,,,,,,5e8dd289f526a801dc3ce16d,60e56a32e776b6ca1e030277,2021-07-07_10h50.50.654,Simcolourproject_2stim_asymm_v5,2020.2.10,Win32,60,60e52e7cfedb1dae636df45f,,,,,,,,,930,45,79,1,0,0,response1disk,,7,7,7,1,0,0,rectangle,7,7,1,0,0,7,7,1,0,0,0,144,144,98,1,,,,,,,,
,,,,,,,,,,,,,FF,,,,,,,,1.278,,,,,,,,,,,,,,,,,,,,,,5e8dd289f526a801dc3ce16d,60e56a32e776b6ca1e030277,2021-07-07_10h50.50.654,Simcolourproject_2stim_asymm_v5,2020.2.10,Win32,60,60e52e7cfedb1dae636df45f,,,,,,,,,3203,62,37,1,0,0,response1disk,,6,0,-1,1,0,0,rectangle,0,-1,1,0,0,0,-1,1,0,0,0,145,145,36,1,,,,,,,,
,,,,,,,,,,,,,FF,,,,,,,,0.819,,,,,,,,,,,,,,,,,,,,,,5e8dd289f526a801dc3ce16d,60e56a32e776b6ca1e030277,2021-07-07_10h50.50.654,Simcolourproject_2stim_asymm_v5,2020.2.10,Win32,60,60e52e7cfedb1dae636df45f,,,,,,,,,2084,26,66,1,0,0,response1disk,,7,0,5,1,0,0,rectangle,0,5,1,0,0,0,5,1,0,0,0,146,146,132,1,,,,,,,,
,,,,,,,,,,,,,FF,,,,,,,,0.698,,,,,,,,,,,,,,,,,,,,,,5e8dd289f526a801dc3ce16d,60e56a32e776b6ca1e030277,2021-07-07_10h50.50.654,Simcolourproject_2stim_asymm_v5,2020.2.10,Win32,60,60e52e7cfedb1dae636df45f,,,,,,,,,1933,37,77,1,0,0,response1disk,,7,5,-8,1,0,0,rectangle,5,-8,1,0,0,5,-8,1,0,0,0,147,147,77,1,,,,,,,,
,,,,,,,,,,,,,FF,,,,,,,,0.931,,,,,,,,,,,,,,,,,,,,,,5e8dd289f526a801dc3ce16d,60e56a32e776b6ca1e030277,2021-07-07_10h50.50.654,Simcolourproject_2stim_asymm_v5,2020.2.10,Win32,60,60e52e7cfedb1dae636df45f,,,,,,,,,3916,46,84,1,0,0,response1disk,,7,9,-2,1,0,0,rectangle,9,-2,1,0,0,9,-2,1,0,0,0,148,148,24,1,,,,,,,,
,,,,,,,,,,,,,FF,,,,,,,,0.731,,,,,,,,,,,,,,,,,,,,,,5e8dd289f526a801dc3ce16d,60e56a32e776b6ca1e030277,2021-07-07_10h50.50.654,Simcolourproject_2stim_asymm_v5,2020.2.10,Win32,60,60e52e7cfedb1dae636df45f,,,,,,,,,4233,44,96,1,0,0,response1disk,,7,10,0,1,0,0,rectangle,10,0,1,0,0,10,0,1,0,0,0,149,149,133,1,,,,,,,,
,,,,,,,,,,,,,FF,,,,,,,,0.841,,,,,,,,,,,,,,,,,,,,,,5e8dd289f526a801dc3ce16d,60e56a32e776b6ca1e030277,2021-07-07_10h50.50.654,Simcolourproject_2stim_asymm_v5,2020.2.10,Win32,60,60e52e7cfedb1dae636df45f,,,,,,,,,2769,79,38,1,0,0,response1disk,,6,25,-6,1,0,0,rectangle,25,-6,1,0,0,25,-6,1,0,0,0,150,150,80,1,,,,,,,,
,,,,,,,,,,,,,FF,,,,,,,,1.203,,,,,,,,,,,,,,,,,,,,,,5e8dd289f526a801dc3ce16d,60e56a32e776b6ca1e030277,2021-07-07_10h50.50.654,Simcolourproject_2stim_asymm_v5,2020.2.10,Win32,60,60e52e7cfedb1dae636df45f,,,,,,,,,1674,43,-64,1,0,0,response3disk,,4,16,1,1,0,0,rectangle,16,1,1,0,0,16,1,1,0,0,0,151,151,72,1,,,,,,,,
,,,,,,,,,,,,,FF,,,,,,,,0.768,,,,,,,,,,,,,,,,,,,,,,5e8dd289f526a801dc3ce16d,60e56a32e776b6ca1e030277,2021-07-07_10h50.50.654,Simcolourproject_2stim_asymm_v5,2020.2.10,Win32,60,60e52e7cfedb1dae636df45f,,,,,,,,,2973,28,55,1,0,0,response1disk,,7,11,2,1,0,0,rectangle,11,2,1,0,0,11,2,1,0,0,0,152,152,116,1,,,,,,,,
,,,,,,,,,,,,,FF,,,,,,,,0.609,,,,,,,,,,,,,,,,,,,,,,5e8dd289f526a801dc3ce16d,60e56a32e776b6ca1e030277,2021-07-07_10h50.50.654,Simcolourproject_2stim_asymm_v5,2020.2.10,Win32,60,60e52e7cfedb1dae636df45f,,,,,,,,,2273,50,74,1,0,0,response1disk,,7,20,7,1,0,0,rectangle,82,-28,1,0,0,24,-3,1,0,0,0,153,153,19,1,,response3disk_3,TRUE,5,5,"[266,267,217,131,154,5,123,93,103,134,70,107,287,258,166,207,86,297,212,61]",1.856,rectangle
,,,,,,,,,,,,,FF,,,,,,,,1.193,,,,,,,,,,,,,,,,,,,,,,5e8dd289f526a801dc3ce16d,60e56a32e776b6ca1e030277,2021-07-07_10h50.50.654,Simcolourproject_2stim_asymm_v5,2020.2.10,Win32,60,60e52e7cfedb1dae636df45f,,,,,,,,,2710,83,38,1,0,0,response1disk,,6,20,-7,1,0,0,rectangle,20,-7,1,0,0,20,-7,1,0,0,0,154,154,122,1,,,,,,,,
,,,,,,,,,,,,,FF,,,,,,,,0.638,,,,,,,,,,,,,,,,,,,,,,5e8dd289f526a801dc3ce16d,60e56a32e776b6ca1e030277,2021-07-07_10h50.50.654,Simcolourproject_2stim_asymm_v5,2020.2.10,Win32,60,60e52e7cfedb1dae636df45f,,,,,,,,,4284,37,87,1,0,0,response1disk,,7,4,12,1,0,0,rectangle,4,12,1,0,0,4,12,1,0,0,0,155,155,58,1,,,,,,,,
,,,,,,,,,,,,,FF,,,,,,,,0.957,,,,,,,,,,,,,,,,,,,,,,5e8dd289f526a801dc3ce16d,60e56a32e776b6ca1e030277,2021-07-07_10h50.50.654,Simcolourproject_2stim_asymm_v5,2020.2.10,Win32,60,60e52e7cfedb1dae636df45f,,,,,,,,,1311,28,-45,1,0,0,response3disk,,4,-15,0,1,0,0,rectangle,-15,0,1,0,0,-15,0,1,0,0,0,156,156,59,1,,,,,,,,
,,,,,,,,,,,,,FF,,,,,,,,0.628,,,,,,,,,,,,,,,,,,,,,,5e8dd289f526a801dc3ce16d,60e56a32e776b6ca1e030277,2021-07-07_10h50.50.654,Simcolourproject_2stim_asymm_v5,2020.2.10,Win32,60,60e52e7cfedb1dae636df45f,,,,,,,,,1524,32,-42,1,0,0,response3disk,,4,-8,-1,1,0,0,rectangle,-8,-1,1,0,0,-8,-1,1,0,0,0,157,157,151,1,,,,,,,,
,,,,,,,,,,,,,FF,,,,,,,,0.628,,,,,,,,,,,,,,,,,,,,,,5e8dd289f526a801dc3ce16d,60e56a32e776b6ca1e030277,2021-07-07_10h50.50.654,Simcolourproject_2stim_asymm_v5,2020.2.10,Win32,60,60e52e7cfedb1dae636df45f,,,,,,,,,2195,35,85,1,0,0,response1disk,,7,5,9,1,0,0,rectangle,5,9,1,0,0,5,9,1,0,0,0,158,158,109,1,,,,,,,,
,,,,,,,,,,,,,FF,,,,,,,,0.611,,,,,,,,,,,,,,,,,,,,,,5e8dd289f526a801dc3ce16d,60e56a32e776b6ca1e030277,2021-07-07_10h50.50.654,Simcolourproject_2stim_asymm_v5,2020.2.10,Win32,60,60e52e7cfedb1dae636df45f,,,,,,,,,3865,36,91,1,0,0,response1disk,,7,6,8,1,0,0,rectangle,6,8,1,0,0,6,8,1,0,0,0,159,159,131,1,,,,,,,,
,,,,,,,,,,,,,FF,,,,,,,,1.564,,,,,,,,,,,,,,,,,,,,,,5e8dd289f526a801dc3ce16d,60e56a32e776b6ca1e030277,2021-07-07_10h50.50.654,Simcolourproject_2stim_asymm_v5,2020.2.10,Win32,60,60e52e7cfedb1dae636df45f,,,,,,,,,155,84,-20,1,0,0,response3disk,,5,0,7,1,0,0,rectangle,0,7,1,0,0,0,7,1,0,0,1,0,160,54,1,,,,,,,,
,,,,,,,,,,,,,FF,,,,,,,,0.554,,,,,,,,,,,,,,,,,,,,,,5e8dd289f526a801dc3ce16d,60e56a32e776b6ca1e030277,2021-07-07_10h50.50.654,Simcolourproject_2stim_asymm_v5,2020.2.10,Win32,60,60e52e7cfedb1dae636df45f,,,,,,,,,3028,49,86,1,0,0,response1disk,,7,5,11,1,0,0,rectangle,5,11,1,0,0,5,11,1,0,0,1,1,161,143,1,,,,,,,,
,,,,,,,,,,,,,FF,,,,,,,,0.973,,,,,,,,,,,,,,,,,,,,,,5e8dd289f526a801dc3ce16d,60e56a32e776b6ca1e030277,2021-07-07_10h50.50.654,Simcolourproject_2stim_asymm_v5,2020.2.10,Win32,60,60e52e7cfedb1dae636df45f,,,,,,,,,1679,40,-63,1,0,0,response3disk,,4,12,2,1,0,0,rectangle,12,2,1,0,0,12,2,1,0,0,1,2,162,60,1,,,,,,,,
,,,,,,,,,,,,,FF,,,,,,,,1.334,,,,,,,,,,,,,,,,,,,,,,5e8dd289f526a801dc3ce16d,60e56a32e776b6ca1e030277,2021-07-07_10h50.50.654,Simcolourproject_2stim_asymm_v5,2020.2.10,Win32,60,60e52e7cfedb1dae636df45f,,,,,,,,,3793,88,29,1,0,0,response1disk,,6,4,-8,1,0,0,rectangle,4,-8,1,0,0,4,-8,1,0,0,1,3,163,79,1,,,,,,,,
,,,,,,,,,,,,,FF,,,,,,,,0.742,,,,,,,,,,,,,,,,,,,,,,5e8dd289f526a801dc3ce16d,60e56a32e776b6ca1e030277,2021-07-07_10h50.50.654,Simcolourproject_2stim_asymm_v5,2020.2.10,Win32,60,60e52e7cfedb1dae636df45f,,,,,,,,,2729,70,85,1,0,0,response1disk,,7,12,11,1,0,0,rectangle,12,11,1,0,0,12,11,1,0,0,1,4,164,27,1,,,,,,,,
,,,,,,,,,,,,,FF,,,,,,,,1.051,,,,,,,,,,,,,,,,,,,,,,5e8dd289f526a801dc3ce16d,60e56a32e776b6ca1e030277,2021-07-07_10h50.50.654,Simcolourproject_2stim_asymm_v5,2020.2.10,Win32,60,60e52e7cfedb1dae636df45f,,,,,,,,,3551,-30,83,1,0,0,response7disk,,0,-10,-1,1,0,0,rectangle,60,-37,1,0,0,-2,3,1,0,0,1,5,165,100,1,,response3disk_3,TRUE,5,5,"[266,267,217,131,154,5,123,93,103,134,70,107,287,258,166,207,86,297,212,61]",1.395,rectangle
,,,,,,,,,,,,,FF,,,,,,,,0.675,,,,,,,,,,,,,,,,,,,,,,5e8dd289f526a801dc3ce16d,60e56a32e776b6ca1e030277,2021-07-07_10h50.50.654,Simcolourproject_2stim_asymm_v5,2020.2.10,Win32,60,60e52e7cfedb1dae636df45f,,,,,,,,,1471,43,68,1,0,0,response1disk,,7,12,-1,1,0,0,rectangle,12,-1,1,0,0,12,-1,1,0,0,1,6,166,140,1,,,,,,,,
,,,,,,,,,,,,,FF,,,,,,,,0.718,,,,,,,,,,,,,,,,,,,,,,5e8dd289f526a801dc3ce16d,60e56a32e776b6ca1e030277,2021-07-07_10h50.50.654,Simcolourproject_2stim_asymm_v5,2020.2.10,Win32,60,60e52e7cfedb1dae636df45f,,,,,,,,,2077,102,44,1,0,0,response1disk,,6,23,-10,1,0,0,rectangle,23,-10,1,0,0,23,-10,1,0,0,1,7,167,35,1,,,,,,,,
,,,,,,,,,,,,,FF,,,,,,,,0.967,,,,,,,,,,,,,,,,,,,,,,5e8dd289f526a801dc3ce16d,60e56a32e776b6ca1e030277,2021-07-07_10h50.50.654,Simcolourproject_2stim_asymm_v5,2020.2.10,Win32,60,60e52e7cfedb1dae636df45f,,,,,,,,,4114,79,39,1,0,0,response1disk,,6,13,14,1,0,0,rectangle,13,14,1,0,0,13,14,1,0,0,1,8,168,133,1,,,,,,,,
,,,,,,,,,,,,,FF,,,,,,,,3.517,,,,,,,,,,,,,,,,,,,,,,5e8dd289f526a801dc3ce16d,60e56a32e776b6ca1e030277,2021-07-07_10h50.50.654,Simcolourproject_2stim_asymm_v5,2020.2.10,Win32,60,60e52e7cfedb1dae636df45f,,,,,,,,,4201,46,76,1,0,0,response1disk,,7,2,10,1,0,0,rectangle,2,10,1,0,0,2,10,1,0,0,1,9,169,105,1,,,,,,,,
,,,,,,,,,,,,,FF,,,,,,,,0.773,,,,,,,,,,,,,,,,,,,,,,5e8dd289f526a801dc3ce16d,60e56a32e776b6ca1e030277,2021-07-07_10h50.50.654,Simcolourproject_2stim_asymm_v5,2020.2.10,Win32,60,60e52e7cfedb1dae636df45f,,,,,,,,,617,44,-29,1,0,0,response3disk,,5,-3,15,1,0,0,rectangle,-3,15,1,0,0,-3,15,1,0,0,1,10,170,153,1,,,,,,,,
,,,,,,,,,,,,,FF,,,,,,,,0.955,,,,,,,,,,,,,,,,,,,,,,5e8dd289f526a801dc3ce16d,60e56a32e776b6ca1e030277,2021-07-07_10h50.50.654,Simcolourproject_2stim_asymm_v5,2020.2.10,Win32,60,60e52e7cfedb1dae636df45f,,,,,,,,,2621,22,88,1,0,0,response1disk,,7,-10,-1,1,0,0,rectangle,-10,-1,1,0,0,-10,-1,1,0,0,1,11,171,152,1,,,,,,,,
,,,,,,,,,,,,,FF,,,,,,,,0.72,,,,,,,,,,,,,,,,,,,,,,5e8dd289f526a801dc3ce16d,60e56a32e776b6ca1e030277,2021-07-07_10h50.50.654,Simcolourproject_2stim_asymm_v5,2020.2.10,Win32,60,60e52e7cfedb1dae636df45f,,,,,,,,,3113,70,31,1,0,0,response1disk,,6,5,2,1,0,0,rectangle,5,2,1,0,0,5,2,1,0,0,1,12,172,59,1,,,,,,,,
,,,,,,,,,,,,,FF,,,,,,,,0.636,,,,,,,,,,,,,,,,,,,,,,5e8dd289f526a801dc3ce16d,60e56a32e776b6ca1e030277,2021-07-07_10h50.50.654,Simcolourproject_2stim_asymm_v5,2020.2.10,Win32,60,60e52e7cfedb1dae636df45f,,,,,,,,,3309,40,75,1,0,0,response1disk,,7,2,7,1,0,0,rectangle,2,7,1,0,0,2,7,1,0,0,1,13,173,36,1,,,,,,,,
,,,,,,,,,,,,,FF,,,,,,,,2.171,,,,,,,,,,,,,,,,,,,,,,5e8dd289f526a801dc3ce16d,60e56a32e776b6ca1e030277,2021-07-07_10h50.50.654,Simcolourproject_2stim_asymm_v5,2020.2.10,Win32,60,60e52e7cfedb1dae636df45f,,,,,,,,,4168,-45,-37,1,0,0,response5disk,,2,8,4,1,0,0,rectangle,8,4,1,0,0,8,4,1,0,0,1,14,174,90,1,,,,,,,,
,,,,,,,,,,,,,FF,,,,,,,,0.808,,,,,,,,,,,,,,,,,,,,,,5e8dd289f526a801dc3ce16d,60e56a32e776b6ca1e030277,2021-07-07_10h50.50.654,Simcolourproject_2stim_asymm_v5,2020.2.10,Win32,60,60e52e7cfedb1dae636df45f,,,,,,,,,408,75,42,1,0,0,response1disk,,6,33,-1,1,0,0,rectangle,33,-1,1,0,0,33,-1,1,0,0,1,15,175,89,1,,,,,,,,
,,,,,,,,,,,,,FF,,,,,,,,0.828,,,,,,,,,,,,,,,,,,,,,,5e8dd289f526a801dc3ce16d,60e56a32e776b6ca1e030277,2021-07-07_10h50.50.654,Simcolourproject_2stim_asymm_v5,2020.2.10,Win32,60,60e52e7cfedb1dae636df45f,,,,,,,,,4041,57,33,1,0,0,response1disk,,6,14,1,1,0,0,rectangle,14,1,1,0,0,14,1,1,0,0,1,16,176,52,1,,,,,,,,
,,,,,,,,,,,,,FF,,,,,,,,1.108,,,,,,,,,,,,,,,,,,,,,,5e8dd289f526a801dc3ce16d,60e56a32e776b6ca1e030277,2021-07-07_10h50.50.654,Simcolourproject_2stim_asymm_v5,2020.2.10,Win32,60,60e52e7cfedb1dae636df45f,,,,,,,,,3819,52,47,1,0,0,response1disk,,6,4,8,1,0,0,rectangle,4,8,1,0,0,4,8,1,0,0,1,17,177,44,1,,,,,,,,
,,,,,,,,,,,,,FF,,,,,,,,0.653,,,,,,,,,,,,,,,,,,,,,,5e8dd289f526a801dc3ce16d,60e56a32e776b6ca1e030277,2021-07-07_10h50.50.654,Simcolourproject_2stim_asymm_v5,2020.2.10,Win32,60,60e52e7cfedb1dae636df45f,,,,,,,,,1537,32,69,1,0,0,response1disk,,7,8,3,1,0,0,rectangle,8,3,1,0,0,8,3,1,0,0,1,18,178,31,1,,,,,,,,
,,,,,,,,,,,,,FF,,,,,,,,1.483,,,,,,,,,,,,,,,,,,,,,,5e8dd289f526a801dc3ce16d,60e56a32e776b6ca1e030277,2021-07-07_10h50.50.654,Simcolourproject_2stim_asymm_v5,2020.2.10,Win32,60,60e52e7cfedb1dae636df45f,,,,,,,,,1055,32,-52,1,0,0,response3disk,,4,2,-4,1,0,0,rectangle,2,-4,1,0,0,2,-4,1,0,0,1,19,179,30,1,,,,,,,,
,,,,,,,,,,,,,FF,,,,,,,,0.707,,,,,,,,,,,,,,,,,,,,,,5e8dd289f526a801dc3ce16d,60e56a32e776b6ca1e030277,2021-07-07_10h50.50.654,Simcolourproject_2stim_asymm_v5,2020.2.10,Win32,60,60e52e7cfedb1dae636df45f,,,,,,,,,1735,36,89,1,0,0,response1disk,,7,1,-9,1,0,0,rectangle,1,-9,1,0,0,1,-9,1,0,0,1,20,180,63,1,,,,,,,,
,,,,,,,,,,,,,FF,,,,,,,,0.988,,,,,,,,,,,,,,,,,,,,,,5e8dd289f526a801dc3ce16d,60e56a32e776b6ca1e030277,2021-07-07_10h50.50.654,Simcolourproject_2stim_asymm_v5,2020.2.10,Win32,60,60e52e7cfedb1dae636df45f,,,,,,,,,1368,-49,65,1,0,0,response7disk,,0,2,-9,1,0,0,rectangle,2,-9,1,0,0,2,-9,1,0,0,1,21,181,51,1,,,,,,,,
,,,,,,,,,,,,,FF,,,,,,,,0.9,,,,,,,,,,,,,,,,,,,,,,5e8dd289f526a801dc3ce16d,60e56a32e776b6ca1e030277,2021-07-07_10h50.50.654,Simcolourproject_2stim_asymm_v5,2020.2.10,Win32,60,60e52e7cfedb1dae636df45f,,,,,,,,,1232,-24,-66,1,0,0,response5disk,,3,8,-9,1,0,0,rectangle,8,-9,1,0,0,8,-9,1,0,0,1,22,182,67,1,,,,,,,,
,,,,,,,,,,,,,FF,,,,,,,,0.67,,,,,,,,,,,,,,,,,,,,,,5e8dd289f526a801dc3ce16d,60e56a32e776b6ca1e030277,2021-07-07_10h50.50.654,Simcolourproject_2stim_asymm_v5,2020.2.10,Win32,60,60e52e7cfedb1dae636df45f,,,,,,,,,1013,38,95,1,0,0,response1disk,,7,6,1,1,0,0,rectangle,6,1,1,0,0,6,1,1,0,0,1,23,183,21,1,,,,,,,,
,,,,,,,,,,,,,FF,,,,,,,,1.047,,,,,,,,,,,,,,,,,,,,,,5e8dd289f526a801dc3ce16d,60e56a32e776b6ca1e030277,2021-07-07_10h50.50.654,Simcolourproject_2stim_asymm_v5,2020.2.10,Win32,60,60e52e7cfedb1dae636df45f,,,,,,,,,3963,54,103,1,0,0,response1disk,,7,11,6,1,0,0,rectangle,11,6,1,0,0,11,6,1,0,0,1,24,184,23,1,,,,,,,,
,,,,,,,,,,,,,FF,,,,,,,,0.683,,,,,,,,,,,,,,,,,,,,,,5e8dd289f526a801dc3ce16d,60e56a32e776b6ca1e030277,2021-07-07_10h50.50.654,Simcolourproject_2stim_asymm_v5,2020.2.10,Win32,60,60e52e7cfedb1dae636df45f,,,,,,,,,4314,64,117,1,0,0,response1disk,,7,16,13,1,0,0,rectangle,16,13,1,0,0,16,13,1,0,0,1,25,185,37,1,,,,,,,,
,,,,,,,,,,,,,FF,,,,,,,,1.349,,,,,,,,,,,,,,,,,,,,,,5e8dd289f526a801dc3ce16d,60e56a32e776b6ca1e030277,2021-07-07_10h50.50.654,Simcolourproject_2stim_asymm_v5,2020.2.10,Win32,60,60e52e7cfedb1dae636df45f,,,,,,,,,4246,76,118,1,0,0,response1disk,,7,4,-1,1,0,0,rectangle,4,-1,1,0,0,4,-1,1,0,0,1,26,186,68,1,,,,,,,,
,,,,,,,,,,,,,FF,,,,,,,,0.67,,,,,,,,,,,,,,,,,,,,,,5e8dd289f526a801dc3ce16d,60e56a32e776b6ca1e030277,2021-07-07_10h50.50.654,Simcolourproject_2stim_asymm_v5,2020.2.10,Win32,60,60e52e7cfedb1dae636df45f,,,,,,,,,2563,45,72,1,0,0,response1disk,,7,7,6,1,0,0,rectangle,7,6,1,0,0,7,6,1,0,0,1,27,187,130,1,,,,,,,,
,,,,,,,,,,,,,FF,,,,,,,,0.816,,,,,,,,,,,,,,,,,,,,,,5e8dd289f526a801dc3ce16d,60e56a32e776b6ca1e030277,2021-07-07_10h50.50.654,Simcolourproject_2stim_asymm_v5,2020.2.10,Win32,60,60e52e7cfedb1dae636df45f,,,,,,,,,1431,92,34,1,0,0,response1disk,,6,29,-8,1,0,0,rectangle,29,-8,1,0,0,29,-8,1,0,0,1,28,188,64,1,,,,,,,,
,,,,,,,,,,,,,FF,,,,,,,,0.825,,,,,,,,,,,,,,,,,,,,,,5e8dd289f526a801dc3ce16d,60e56a32e776b6ca1e030277,2021-07-07_10h50.50.654,Simcolourproject_2stim_asymm_v5,2020.2.10,Win32,60,60e52e7cfedb1dae636df45f,,,,,,,,,978,42,-47,1,0,0,response3disk,,4,4,-11,1,0,0,rectangle,4,-11,1,0,0,4,-11,1,0,0,1,29,189,149,1,,,,,,,,
,,,,,,,,,,,,,FF,,,,,,,,1.172,,,,,,,,,,,,,,,,,,,,,,5e8dd289f526a801dc3ce16d,60e56a32e776b6ca1e030277,2021-07-07_10h50.50.654,Simcolourproject_2stim_asymm_v5,2020.2.10,Win32,60,60e52e7cfedb1dae636df45f,,,,,,,,,2947,34,64,1,0,0,response1disk,,7,12,4,1,0,0,rectangle,12,4,1,0,0,12,4,1,0,0,1,30,190,57,1,,,,,,,,
,,,,,,,,,,,,,FF,,,,,,,,2.012,,,,,,,,,,,,,,,,,,,,,,5e8dd289f526a801dc3ce16d,60e56a32e776b6ca1e030277,2021-07-07_10h50.50.654,Simcolourproject_2stim_asymm_v5,2020.2.10,Win32,60,60e52e7cfedb1dae636df45f,,,,,,,,,1128,61,87,1,0,0,response1disk,,7,4,6,1,0,0,rectangle,4,6,1,0,0,4,6,1,0,0,1,31,191,34,1,,,,,,,,
,,,,,,,,,,,,,FF,,,,,,,,0.723,,,,,,,,,,,,,,,,,,,,,,5e8dd289f526a801dc3ce16d,60e56a32e776b6ca1e030277,2021-07-07_10h50.50.654,Simcolourproject_2stim_asymm_v5,2020.2.10,Win32,60,60e52e7cfedb1dae636df45f,,,,,,,,,472,34,64,1,0,0,response1disk,,7,8,13,1,0,0,rectangle,8,13,1,0,0,8,13,1,0,0,1,32,192,158,1,,,,,,,,
,,,,,,,,,,,,,FF,,,,,,,,1.078,,,,,,,,,,,,,,,,,,,,,,5e8dd289f526a801dc3ce16d,60e56a32e776b6ca1e030277,2021-07-07_10h50.50.654,Simcolourproject_2stim_asymm_v5,2020.2.10,Win32,60,60e52e7cfedb1dae636df45f,,,,,,,,,1453,26,-75,1,0,0,response3disk,,4,16,-2,1,0,0,rectangle,16,-2,1,0,0,16,-2,1,0,0,1,33,193,142,1,,,,,,,,
,,,,,,,,,,,,,FF,,,,,,,,2.778,,,,,,,,,,,,,,,,,,,,,,5e8dd289f526a801dc3ce16d,60e56a32e776b6ca1e030277,2021-07-07_10h50.50.654,Simcolourproject_2stim_asymm_v5,2020.2.10,Win32,60,60e52e7cfedb1dae636df45f,,,,,,,,,2102,42,78,1,0,0,response1disk,,7,0,-7,1,0,0,rectangle,0,-7,1,0,0,0,-7,1,0,0,1,34,194,56,1,,,,,,,,
,,,,,,,,,,,,,FF,,,,,,,,0.747,,,,,,,,,,,,,,,,,,,,,,5e8dd289f526a801dc3ce16d,60e56a32e776b6ca1e030277,2021-07-07_10h50.50.654,Simcolourproject_2stim_asymm_v5,2020.2.10,Win32,60,60e52e7cfedb1dae636df45f,,,,,,,,,2139,61,89,1,0,0,response1disk,,7,10,6,1,0,0,rectangle,10,6,1,0,0,10,6,1,0,0,1,35,195,47,1,,,,,,,,
,,,,,,,,,,,,,FF,,,,,,,,0.78,,,,,,,,,,,,,,,,,,,,,,5e8dd289f526a801dc3ce16d,60e56a32e776b6ca1e030277,2021-07-07_10h50.50.654,Simcolourproject_2stim_asymm_v5,2020.2.10,Win32,60,60e52e7cfedb1dae636df45f,,,,,,,,,32,34,70,1,0,0,response1disk,,7,-8,-10,1,0,0,rectangle,-8,-10,1,0,0,-8,-10,1,0,0,1,36,196,157,1,,,,,,,,
,,,,,,,,,,,,,FF,,,,,,,,0.8,,,,,,,,,,,,,,,,,,,,,,5e8dd289f526a801dc3ce16d,60e56a32e776b6ca1e030277,2021-07-07_10h50.50.654,Simcolourproject_2stim_asymm_v5,2020.2.10,Win32,60,60e52e7cfedb1dae636df45f,,,,,,,,,1190,48,78,1,0,0,response1disk,,7,17,9,1,0,0,rectangle,17,9,1,0,0,17,9,1,0,0,1,37,197,18,1,,,,,,,,
,,,,,,,,,,,,,FF,,,,,,,,0.992,,,,,,,,,,,,,,,,,,,,,,5e8dd289f526a801dc3ce16d,60e56a32e776b6ca1e030277,2021-07-07_10h50.50.654,Simcolourproject_2stim_asymm_v5,2020.2.10,Win32,60,60e52e7cfedb1dae636df45f,,,,,,,,,536,48,91,1,0,0,response1disk,,7,-5,10,1,0,0,rectangle,-5,10,1,0,0,-5,10,1,0,0,1,38,198,121,1,,,,,,,,
,,,,,,,,,,,,,FF,,,,,,,,1.043,,,,,,,,,,,,,,,,,,,,,,5e8dd289f526a801dc3ce16d,60e56a32e776b6ca1e030277,2021-07-07_10h50.50.654,Simcolourproject_2stim_asymm_v5,2020.2.10,Win32,60,60e52e7cfedb1dae636df45f,,,,,,,,,124,83,51,1,0,0,response1disk,,6,0,2,1,0,0,rectangle,0,2,1,0,0,0,2,1,0,0,1,39,199,11,1,,,,,,,,
,,,,,,,,,,,,,FF,,,,,,,,1.033,,,,,,,,,,,,,,,,,,,,,,5e8dd289f526a801dc3ce16d,60e56a32e776b6ca1e030277,2021-07-07_10h50.50.654,Simcolourproject_2stim_asymm_v5,2020.2.10,Win32,60,60e52e7cfedb1dae636df45f,,,,,,,,,3856,65,30,1,0,0,response1disk,,6,-3,2,1,0,0,rectangle,-3,2,1,0,0,-3,2,1,0,0,1,40,200,72,1,,,,,,,,
,,,,,,,,,,,,,FF,,,,,,,,1.287,,,,,,,,,,,,,,,,,,,,,,5e8dd289f526a801dc3ce16d,60e56a32e776b6ca1e030277,2021-07-07_10h50.50.654,Simcolourproject_2stim_asymm_v5,2020.2.10,Win32,60,60e52e7cfedb1dae636df45f,,,,,,,,,3771,-36,-84,1,0,0,response5disk,,3,2,4,1,0,0,rectangle,2,4,1,0,0,2,4,1,0,0,1,41,201,151,1,,,,,,,,
,,,,,,,,,,,,,FF,,,,,,,,0.951,,,,,,,,,,,,,,,,,,,,,,5e8dd289f526a801dc3ce16d,60e56a32e776b6ca1e030277,2021-07-07_10h50.50.654,Simcolourproject_2stim_asymm_v5,2020.2.10,Win32,60,60e52e7cfedb1dae636df45f,,,,,,,,,3064,55,101,1,0,0,response1disk,,7,5,4,1,0,0,rectangle,5,4,1,0,0,5,4,1,0,0,1,42,202,88,1,,,,,,,,
,,,,,,,,,,,,,FF,,,,,,,,1.301,,,,,,,,,,,,,,,,,,,,,,5e8dd289f526a801dc3ce16d,60e56a32e776b6ca1e030277,2021-07-07_10h50.50.654,Simcolourproject_2stim_asymm_v5,2020.2.10,Win32,60,60e52e7cfedb1dae636df45f,,,,,,,,,693,30,-55,1,0,0,response3disk,,4,5,-15,1,0,0,rectangle,5,-15,1,0,0,5,-15,1,0,0,1,43,203,87,1,,,,,,,,
,,,,,,,,,,,,,FF,,,,,,,,0.985,,,,,,,,,,,,,,,,,,,,,,5e8dd289f526a801dc3ce16d,60e56a32e776b6ca1e030277,2021-07-07_10h50.50.654,Simcolourproject_2stim_asymm_v5,2020.2.10,Win32,60,60e52e7cfedb1dae636df45f,,,,,,,,,3475,-45,-73,1,0,0,response5disk,,3,10,4,1,0,0,rectangle,10,4,1,0,0,10,4,1,0,0,1,44,204,8,1,,,,,,,,
,,,,,,,,,,,,,FF,,,,,,,,0.826,,,,,,,,,,,,,,,,,,,,,,5e8dd289f526a801dc3ce16d,60e56a32e776b6ca1e030277,2021-07-07_10h50.50.654,Simcolourproject_2stim_asymm_v5,2020.2.10,Win32,60,60e52e7cfedb1dae636df45f,,,,,,,,,4315,38,73,1,0,0,response1disk,,7,6,-3,1,0,0,rectangle,6,-3,1,0,0,6,-3,1,0,0,1,45,205,128,1,,,,,,,,
,,,,,,,,,,,,,FF,,,,,,,,0.759,,,,,,,,,,,,,,,,,,,,,,5e8dd289f526a801dc3ce16d,60e56a32e776b6ca1e030277,2021-07-07_10h50.50.654,Simcolourproject_2stim_asymm_v5,2020.2.10,Win32,60,60e52e7cfedb1dae636df45f,,,,,,,,,1181,43,82,1,0,0,response1disk,,7,9,13,1,0,0,rectangle,52,-27,1,0,0,10,4,1,0,0,1,46,206,82,1,,response3disk_3,TRUE,5,5,"[266,267,217,131,154,5,123,93,103,134,70,107,287,258,166,207,86,297,212,61]",2.138,rectangle
,,,,,,,,,,,,,FF,,,,,,,,1.099,,,,,,,,,,,,,,,,,,,,,,5e8dd289f526a801dc3ce16d,60e56a32e776b6ca1e030277,2021-07-07_10h50.50.654,Simcolourproject_2stim_asymm_v5,2020.2.10,Win32,60,60e52e7cfedb1dae636df45f,,,,,,,,,1410,56,61,1,0,0,response1disk,,7,7,4,1,0,0,rectangle,7,4,1,0,0,7,4,1,0,0,1,47,207,0,1,,,,,,,,
,,,,,,,,,,,,,FF,,,,,,,,0.751,,,,,,,,,,,,,,,,,,,,,,5e8dd289f526a801dc3ce16d,60e56a32e776b6ca1e030277,2021-07-07_10h50.50.654,Simcolourproject_2stim_asymm_v5,2020.2.10,Win32,60,60e52e7cfedb1dae636df45f,,,,,,,,,2540,36,70,1,0,0,response1disk,,7,4,-4,1,0,0,rectangle,4,-4,1,0,0,4,-4,1,0,0,1,48,208,24,1,,,,,,,,
,,,,,,,,,,,,,FF,,,,,,,,0.908,,,,,,,,,,,,,,,,,,,,,,5e8dd289f526a801dc3ce16d,60e56a32e776b6ca1e030277,2021-07-07_10h50.50.654,Simcolourproject_2stim_asymm_v5,2020.2.10,Win32,60,60e52e7cfedb1dae636df45f,,,,,,,,,222,51,91,1,0,0,response1disk,,7,10,4,1,0,0,rectangle,10,4,1,0,0,10,4,1,0,0,1,49,209,53,1,,,,,,,,
,,,,,,,,,,,,,FF,,,,,,,,1.189,,,,,,,,,,,,,,,,,,,,,,5e8dd289f526a801dc3ce16d,60e56a32e776b6ca1e030277,2021-07-07_10h50.50.654,Simcolourproject_2stim_asymm_v5,2020.2.10,Win32,60,60e52e7cfedb1dae636df45f,,,,,,,,,1447,-73,-34,1,0,0,response5disk,,2,-5,8,1,0,0,rectangle,-5,8,1,0,0,-5,8,1,0,0,1,50,210,42,1,,,,,,,,
,,,,,,,,,,,,,FF,,,,,,,,0.81,,,,,,,,,,,,,,,,,,,,,,5e8dd289f526a801dc3ce16d,60e56a32e776b6ca1e030277,2021-07-07_10h50.50.654,Simcolourproject_2stim_asymm_v5,2020.2.10,Win32,60,60e52e7cfedb1dae636df45f,,,,,,,,,3029,38,76,1,0,0,response1disk,,7,5,-5,1,0,0,rectangle,88,42,1,0,0,20,7,1,0,0,1,51,211,108,1,,response1disk_3,TRUE,6,6,"[266,267,217,131,154,5,123,93,103,134,70,107,287,258,166,207,86,297,212,61]",1.637,rectangle
,,,,,,,,,,,,,FF,,,,,,,,0.896,,,,,,,,,,,,,,,,,,,,,,5e8dd289f526a801dc3ce16d,60e56a32e776b6ca1e030277,2021-07-07_10h50.50.654,Simcolourproject_2stim_asymm_v5,2020.2.10,Win32,60,60e52e7cfedb1dae636df45f,,,,,,,,,1439,50,105,1,0,0,response1disk,,7,18,15,1,0,0,rectangle,18,15,1,0,0,18,15,1,0,0,1,52,212,81,1,,,,,,,,
,,,,,,,,,,,,,FF,,,,,,,,1.255,,,,,,,,,,,,,,,,,,,,,,5e8dd289f526a801dc3ce16d,60e56a32e776b6ca1e030277,2021-07-07_10h50.50.654,Simcolourproject_2stim_asymm_v5,2020.2.10,Win32,60,60e52e7cfedb1dae636df45f,,,,,,,,,37,86,62,1,0,0,response1disk,,6,7,0,1,0,0,rectangle,7,0,1,0,0,7,0,1,0,0,1,53,213,62,1,,,,,,,,
,,,,,,,,,,,,,FF,,,,,,,,1.013,,,,,,,,,,,,,,,,,,,,,,5e8dd289f526a801dc3ce16d,60e56a32e776b6ca1e030277,2021-07-07_10h50.50.654,Simcolourproject_2stim_asymm_v5,2020.2.10,Win32,60,60e52e7cfedb1dae636df45f,,,,,,,,,1171,48,88,1,0,0,response1disk,,7,20,-1,1,0,0,rectangle,20,-1,1,0,0,20,-1,1,0,0,1,54,214,98,1,,,,,,,,
,,,,,,,,,,,,,FF,,,,,,,,1.192,,,,,,,,,,,,,,,,,,,,,,5e8dd289f526a801dc3ce16d,60e56a32e776b6ca1e030277,2021-07-07_10h50.50.654,Simcolourproject_2stim_asymm_v5,2020.2.10,Win32,60,60e52e7cfedb1dae636df45f,,,,,,,,,597,71,42,1,0,0,response1disk,,6,6,-10,1,0,0,rectangle,6,-10,1,0,0,6,-10,1,0,0,1,55,215,106,1,,,,,,,,
,,,,,,,,,,,,,FF,,,,,,,,0.783,,,,,,,,,,,,,,,,,,,,,,5e8dd289f526a801dc3ce16d,60e56a32e776b6ca1e030277,2021-07-07_10h50.50.654,Simcolourproject_2stim_asymm_v5,2020.2.10,Win32,60,60e52e7cfedb1dae636df45f,,,,,,,,,3279,48,66,1,0,0,response1disk,,7,9,8,1,0,0,rectangle,88,41,1,0,0,15,-2,1,0,0,1,56,216,38,1,,response1disk_3,TRUE,6,6,"[266,267,217,131,154,5,123,93,103,134,70,107,287,258,166,207,86,297,212,61]",1.577,rectangle
,,,,,,,,,,,,,FF,,,,,,,,0.997,,,,,,,,,,,,,,,,,,,,,,5e8dd289f526a801dc3ce16d,60e56a32e776b6ca1e030277,2021-07-07_10h50.50.654,Simcolourproject_2stim_asymm_v5,2020.2.10,Win32,60,60e52e7cfedb1dae636df45f,,,,,,,,,813,75,46,1,0,0,response1disk,,6,12,8,1,0,0,rectangle,12,8,1,0,0,12,8,1,0,0,1,57,217,96,1,,,,,,,,
,,,,,,,,,,,,,FF,,,,,,,,0.858,,,,,,,,,,,,,,,,,,,,,,5e8dd289f526a801dc3ce16d,60e56a32e776b6ca1e030277,2021-07-07_10h50.50.654,Simcolourproject_2stim_asymm_v5,2020.2.10,Win32,60,60e52e7cfedb1dae636df45f,,,,,,,,,934,44,73,1,0,0,response1disk,,7,13,-6,1,0,0,rectangle,13,-6,1,0,0,13,-6,1,0,0,1,58,218,73,1,,,,,,,,
,,,,,,,,,,,,,FF,,,,,,,,2.356,,,,,,,,,,,,,,,,,,,,,,5e8dd289f526a801dc3ce16d,60e56a32e776b6ca1e030277,2021-07-07_10h50.50.654,Simcolourproject_2stim_asymm_v5,2020.2.10,Win32,60,60e52e7cfedb1dae636df45f,,,,,,,,,1540,41,-98,1,0,0,response3disk,,4,5,-8,1,0,0,rectangle,5,-8,1,0,0,5,-8,1,0,0,1,59,219,49,1,,,,,,,,
,,,,,,,,,,,,,FF,,,,,,,,0.844,,,,,,,,,,,,,,,,,,,,,,5e8dd289f526a801dc3ce16d,60e56a32e776b6ca1e030277,2021-07-07_10h50.50.654,Simcolourproject_2stim_asymm_v5,2020.2.10,Win32,60,60e52e7cfedb1dae636df45f,,,,,,,,,3182,50,89,1,0,0,response1disk,,7,-8,-2,1,0,0,rectangle,-8,-2,1,0,0,-8,-2,1,0,0,1,60,220,58,1,,,,,,,,
,,,,,,,,,,,,,FF,,,,,,,,0.78,,,,,,,,,,,,,,,,,,,,,,5e8dd289f526a801dc3ce16d,60e56a32e776b6ca1e030277,2021-07-07_10h50.50.654,Simcolourproject_2stim_asymm_v5,2020.2.10,Win32,60,60e52e7cfedb1dae636df45f,,,,,,,,,1626,50,76,1,0,0,response1disk,,7,7,8,1,0,0,rectangle,7,8,1,0,0,7,8,1,0,0,1,61,221,33,1,,,,,,,,
,,,,,,,,,,,,,FF,,,,,,,,0.712,,,,,,,,,,,,,,,,,,,,,,5e8dd289f526a801dc3ce16d,60e56a32e776b6ca1e030277,2021-07-07_10h50.50.654,Simcolourproject_2stim_asymm_v5,2020.2.10,Win32,60,60e52e7cfedb1dae636df45f,,,,,,,,,879,47,70,1,0,0,response1disk,,7,6,12,1,0,0,rectangle,6,12,1,0,0,6,12,1,0,0,1,62,222,39,1,,,,,,,,
,,,,,,,,,,,,,FF,,,,,,,,0.915,,,,,,,,,,,,,,,,,,,,,,5e8dd289f526a801dc3ce16d,60e56a32e776b6ca1e030277,2021-07-07_10h50.50.654,Simcolourproject_2stim_asymm_v5,2020.2.10,Win32,60,60e52e7cfedb1dae636df45f,,,,,,,,,4033,66,43,1,0,0,response1disk,,6,-5,-11,1,0,0,rectangle,-5,-11,1,0,0,-5,-11,1,0,0,1,63,223,4,1,,,,,,,,
,,,,,,,,,,,,,FF,,,,,,,,1.561,,,,,,,,,,,,,,,,,,,,,,5e8dd289f526a801dc3ce16d,60e56a32e776b6ca1e030277,2021-07-07_10h50.50.654,Simcolourproject_2stim_asymm_v5,2020.2.10,Win32,60,60e52e7cfedb1dae636df45f,,,,,,,,,3390,-71,29,1,0,0,response7disk,,1,0,-4,1,0,0,rectangle,0,-4,1,0,0,0,-4,1,0,0,1,64,224,115,1,,,,,,,,
,,,,,,,,,,,,,FF,,,,,,,,0.682,,,,,,,,,,,,,,,,,,,,,,5e8dd289f526a801dc3ce16d,60e56a32e776b6ca1e030277,2021-07-07_10h50.50.654,Simcolourproject_2stim_asymm_v5,2020.2.10,Win32,60,60e52e7cfedb1dae636df45f,,,,,,,,,1701,60,77,1,0,0,response1disk,,7,3,3,1,0,0,rectangle,3,3,1,0,0,3,3,1,0,0,1,65,225,74,1,,,,,,,,
,,,,,,,,,,,,,FF,,,,,,,,0.708,,,,,,,,,,,,,,,,,,,,,,5e8dd289f526a801dc3ce16d,60e56a32e776b6ca1e030277,2021-07-07_10h50.50.654,Simcolourproject_2stim_asymm_v5,2020.2.10,Win32,60,60e52e7cfedb1dae636df45f,,,,,,,,,1079,44,76,1,0,0,response1disk,,7,8,13,1,0,0,rectangle,8,13,1,0,0,8,13,1,0,0,1,66,226,32,1,,,,,,,,
,,,,,,,,,,,,,FF,,,,,,,,1.162,,,,,,,,,,,,,,,,,,,,,,5e8dd289f526a801dc3ce16d,60e56a32e776b6ca1e030277,2021-07-07_10h50.50.654,Simcolourproject_2stim_asymm_v5,2020.2.10,Win32,60,60e52e7cfedb1dae636df45f,,,,,,,,,438,-44,-57,1,0,0,response5disk,,3,-13,10,1,0,0,rectangle,-13,10,1,0,0,-13,10,1,0,0,1,67,227,25,1,,,,,,,,
,,,,,,,,,,,,,FF,,,,,,,,0.997,,,,,,,,,,,,,,,,,,,,,,5e8dd289f526a801dc3ce16d,60e56a32e776b6ca1e030277,2021-07-07_10h50.50.654,Simcolourproject_2stim_asymm_v5,2020.2.10,Win32,60,60e52e7cfedb1dae636df45f,,,,,,,,,431,-24,-68,1,0,0,response5disk,,3,8,-7,1,0,0,rectangle,8,-7,1,0,0,8,-7,1,0,0,1,68,228,46,1,,,,,,,,
,,,,,,,,,,,,,FF,,,,,,,,0.767,,,,,,,,,,,,,,,,,,,,,,5e8dd289f526a801dc3ce16d,60e56a32e776b6ca1e030277,2021-07-07_10h50.50.654,Simcolourproject_2stim_asymm_v5,2020.2.10,Win32,60,60e52e7cfedb1dae636df45f,,,,,,,,,3127,44,70,1,0,0,response1disk,,7,13,-1,1,0,0,rectangle,13,-1,1,0,0,13,-1,1,0,0,1,69,229,19,1,,,,,,,,
,,,,,,,,,,,,,FF,,,,,,,,1.215,,,,,,,,,,,,,,,,,,,,,,5e8dd289f526a801dc3ce16d,60e56a32e776b6ca1e030277,2021-07-07_10h50.50.654,Simcolourproject_2stim_asymm_v5,2020.2.10,Win32,60,60e52e7cfedb1dae636df45f,,,,,,,,,2720,24,-61,1,0,0,response3disk,,4,-4,-12,1,0,0,rectangle,-4,-12,1,0,0,-4,-12,1,0,0,1,70,230,9,1,,,,,,,,
,,,,,,,,,,,,,FF,,,,,,,,1.088,,,,,,,,,,,,,,,,,,,,,,5e8dd289f526a801dc3ce16d,60e56a32e776b6ca1e030277,2021-07-07_10h50.50.654,Simcolourproject_2stim_asymm_v5,2020.2.10,Win32,60,60e52e7cfedb1dae636df45f,,,,,,,,,1239,65,41,1,0,0,response1disk,,6,-11,0,1,0,0,rectangle,-11,0,1,0,0,-11,0,1,0,0,1,71,231,127,1,,,,,,,,
,,,,,,,,,,,,,FF,,,,,,,,1.106,,,,,,,,,,,,,,,,,,,,,,5e8dd289f526a801dc3ce16d,60e56a32e776b6ca1e030277,2021-07-07_10h50.50.654,Simcolourproject_2stim_asymm_v5,2020.2.10,Win32,60,60e52e7cfedb1dae636df45f,,,,,,,,,2292,-52,-74,1,0,0,response5disk,,3,5,3,1,0,0,rectangle,5,3,1,0,0,5,3,1,0,0,1,72,232,109,1,,,,,,,,
,,,,,,,,,,,,,FF,,,,,,,,0.693,,,,,,,,,,,,,,,,,,,,,,5e8dd289f526a801dc3ce16d,60e56a32e776b6ca1e030277,2021-07-07_10h50.50.654,Simcolourproject_2stim_asymm_v5,2020.2.10,Win32,60,60e52e7cfedb1dae636df45f,,,,,,,,,793,37,88,1,0,0,response1disk,,7,2,-3,1,0,0,rectangle,2,-3,1,0,0,2,-3,1,0,0,1,73,233,129,1,,,,,,,,
,,,,,,,,,,,,,FF,,,,,,,,1.006,,,,,,,,,,,,,,,,,,,,,,5e8dd289f526a801dc3ce16d,60e56a32e776b6ca1e030277,2021-07-07_10h50.50.654,Simcolourproject_2stim_asymm_v5,2020.2.10,Win32,60,60e52e7cfedb1dae636df45f,,,,,,,,,1192,36,74,1,0,0,response1disk,,7,2,2,1,0,0,rectangle,2,2,1,0,0,2,2,1,0,0,1,74,234,13,1,,,,,,,,
,,,,,,,,,,,,,FF,,,,,,,,0.724,,,,,,,,,,,,,,,,,,,,,,5e8dd289f526a801dc3ce16d,60e56a32e776b6ca1e030277,2021-07-07_10h50.50.654,Simcolourproject_2stim_asymm_v5,2020.2.10,Win32,60,60e52e7cfedb1dae636df45f,,,,,,,,,1651,49,75,1,0,0,response1disk,,7,15,-1,1,0,0,rectangle,15,-1,1,0,0,15,-1,1,0,0,1,75,235,156,1,,,,,,,,
,,,,,,,,,,,,,FF,,,,,,,,0.753,,,,,,,,,,,,,,,,,,,,,,5e8dd289f526a801dc3ce16d,60e56a32e776b6ca1e030277,2021-07-07_10h50.50.654,Simcolourproject_2stim_asymm_v5,2020.2.10,Win32,60,60e52e7cfedb1dae636df45f,,,,,,,,,3886,49,85,1,0,0,response1disk,,7,20,8,1,0,0,rectangle,20,8,1,0,0,20,8,1,0,0,1,76,236,148,1,,,,,,,,
,,,,,,,,,,,,,FF,,,,,,,,0.975,,,,,,,,,,,,,,,,,,,,,,5e8dd289f526a801dc3ce16d,60e56a32e776b6ca1e030277,2021-07-07_10h50.50.654,Simcolourproject_2stim_asymm_v5,2020.2.10,Win32,60,60e52e7cfedb1dae636df45f,,,,,,,,,3964,47,63,1,0,0,response1disk,,7,20,10,1,0,0,rectangle,20,10,1,0,0,20,10,1,0,0,1,77,237,91,1,,,,,,,,
,,,,,,,,,,,,,FF,,,,,,,,0.843,,,,,,,,,,,,,,,,,,,,,,5e8dd289f526a801dc3ce16d,60e56a32e776b6ca1e030277,2021-07-07_10h50.50.654,Simcolourproject_2stim_asymm_v5,2020.2.10,Win32,60,60e52e7cfedb1dae636df45f,,,,,,,,,3874,31,72,1,0,0,response1disk,,7,4,2,1,0,0,rectangle,4,2,1,0,0,4,2,1,0,0,1,78,238,146,1,,,,,,,,
,,,,,,,,,,,,,FF,,,,,,,,0.886,,,,,,,,,,,,,,,,,,,,,,5e8dd289f526a801dc3ce16d,60e56a32e776b6ca1e030277,2021-07-07_10h50.50.654,Simcolourproject_2stim_asymm_v5,2020.2.10,Win32,60,60e52e7cfedb1dae636df45f,,,,,,,,,254,85,36,1,0,0,response1disk,,6,26,2,1,0,0,rectangle,26,2,1,0,0,26,2,1,0,0,1,79,239,78,1,,,,,,,,
,,,,,,,,,,,,,FF,,,,,,,,0.77,,,,,,,,,,,,,,,,,,,,,,5e8dd289f526a801dc3ce16d,60e56a32e776b6ca1e030277,2021-07-07_10h50.50.654,Simcolourproject_2stim_asymm_v5,2020.2.10,Win32,60,60e52e7cfedb1dae636df45f,,,,,,,,,1564,33,84,1,0,0,response1disk,,7,5,0,1,0,0,rectangle,5,0,1,0,0,5,0,1,0,0,1,80,240,45,1,,,,,,,,
,,,,,,,,,,,,,FF,,,,,,,,1.076,,,,,,,,,,,,,,,,,,,,,,5e8dd289f526a801dc3ce16d,60e56a32e776b6ca1e030277,2021-07-07_10h50.50.654,Simcolourproject_2stim_asymm_v5,2020.2.10,Win32,60,60e52e7cfedb1dae636df45f,,,,,,,,,3282,21,-65,1,0,0,response3disk,,4,-4,-4,1,0,0,rectangle,-4,-4,1,0,0,-4,-4,1,0,0,1,81,241,122,1,,,,,,,,
,,,,,,,,,,,,,FF,,,,,,,,0.7,,,,,,,,,,,,,,,,,,,,,,5e8dd289f526a801dc3ce16d,60e56a32e776b6ca1e030277,2021-07-07_10h50.50.654,Simcolourproject_2stim_asymm_v5,2020.2.10,Win32,60,60e52e7cfedb1dae636df45f,,,,,,,,,2704,39,80,1,0,0,response1disk,,7,13,10,1,0,0,rectangle,13,10,1,0,0,13,10,1,0,0,1,82,242,83,1,,,,,,,,
,,,,,,,,,,,,,FF,,,,,,,,0.936,,,,,,,,,,,,,,,,,,,,,,5e8dd289f526a801dc3ce16d,60e56a32e776b6ca1e030277,2021-07-07_10h50.50.654,Simcolourproject_2stim_asymm_v5,2020.2.10,Win32,60,60e52e7cfedb1dae636df45f,,,,,,,,,2899,38,75,1,0,0,response1disk,,7,9,0,1,0,0,rectangle,9,0,1,0,0,9,0,1,0,0,1,83,243,150,1,,,,,,,,
,,,,,,,,,,,,,FF,,,,,,,,0.692,,,,,,,,,,,,,,,,,,,,,,5e8dd289f526a801dc3ce16d,60e56a32e776b6ca1e030277,2021-07-07_10h50.50.654,Simcolourproject_2stim_asymm_v5,2020.2.10,Win32,60,60e52e7cfedb1dae636df45f,,,,,,,,,1398,35,79,1,0,0,response1disk,,7,15,-2,1,0,0,rectangle,15,-2,1,0,0,15,-2,1,0,0,1,84,244,136,1,,,,,,,,
,,,,,,,,,,,,,FF,,,,,,,,0.717,,,,,,,,,,,,,,,,,,,,,,5e8dd289f526a801dc3ce16d,60e56a32e776b6ca1e030277,2021-07-07_10h50.50.654,Simcolourproject_2stim_asymm_v5,2020.2.10,Win32,60,60e52e7cfedb1dae636df45f,,,,,,,,,337,32,60,1,0,0,response1disk,,7,8,-11,1,0,0,rectangle,8,-11,1,0,0,8,-11,1,0,0,1,85,245,1,1,,,,,,,,
,,,,,,,,,,,,,FF,,,,,,,,1.35,,,,,,,,,,,,,,,,,,,,,,5e8dd289f526a801dc3ce16d,60e56a32e776b6ca1e030277,2021-07-07_10h50.50.654,Simcolourproject_2stim_asymm_v5,2020.2.10,Win32,60,60e52e7cfedb1dae636df45f,,,,,,,,,95,29,-66,1,0,0,response3disk,,4,2,-7,1,0,0,rectangle,2,-7,1,0,0,2,-7,1,0,0,1,86,246,112,1,,,,,,,,
,,,,,,,,,,,,,FF,,,,,,,,0.927,,,,,,,,,,,,,,,,,,,,,,5e8dd289f526a801dc3ce16d,60e56a32e776b6ca1e030277,2021-07-07_10h50.50.654,Simcolourproject_2stim_asymm_v5,2020.2.10,Win32,60,60e52e7cfedb1dae636df45f,,,,,,,,,725,65,-17,1,0,0,response3disk,,5,1,7,1,0,0,rectangle,1,7,1,0,0,1,7,1,0,0,1,87,247,6,1,,,,,,,,
,,,,,,,,,,,,,FF,,,,,,,,1.214,,,,,,,,,,,,,,,,,,,,,,5e8dd289f526a801dc3ce16d,60e56a32e776b6ca1e030277,2021-07-07_10h50.50.654,Simcolourproject_2stim_asymm_v5,2020.2.10,Win32,60,60e52e7cfedb1dae636df45f,,,,,,,,,2423,46,-21,1,0,0,response3disk,,5,7,7,1,0,0,rectangle,7,7,1,0,0,7,7,1,0,0,1,88,248,43,1,,,,,,,,
,,,,,,,,,,,,,FF,,,,,,,,0.7,,,,,,,,,,,,,,,,,,,,,,5e8dd289f526a801dc3ce16d,60e56a32e776b6ca1e030277,2021-07-07_10h50.50.654,Simcolourproject_2stim_asymm_v5,2020.2.10,Win32,60,60e52e7cfedb1dae636df45f,,,,,,,,,3834,32,83,1,0,0,response1disk,,7,5,7,1,0,0,rectangle,5,7,1,0,0,5,7,1,0,0,1,89,249,28,1,,,,,,,,
,,,,,,,,,,,,,FF,,,,,,,,1.227,,,,,,,,,,,,,,,,,,,,,,5e8dd289f526a801dc3ce16d,60e56a32e776b6ca1e030277,2021-07-07_10h50.50.654,Simcolourproject_2stim_asymm_v5,2020.2.10,Win32,60,60e52e7cfedb1dae636df45f,,,,,,,,,2881,91,32,1,0,0,response1disk,,6,21,-1,1,0,0,rectangle,21,-1,1,0,0,21,-1,1,0,0,1,90,250,104,1,,,,,,,,
,,,,,,,,,,,,,FF,,,,,,,,1.216,,,,,,,,,,,,,,,,,,,,,,5e8dd289f526a801dc3ce16d,60e56a32e776b6ca1e030277,2021-07-07_10h50.50.654,Simcolourproject_2stim_asymm_v5,2020.2.10,Win32,60,60e52e7cfedb1dae636df45f,,,,,,,,,413,49,43,1,0,0,response1disk,,6,-27,2,1,0,0,rectangle,-27,2,1,0,0,-27,2,1,0,0,1,91,251,124,1,,,,,,,,
,,,,,,,,,,,,,FF,,,,,,,,0.717,,,,,,,,,,,,,,,,,,,,,,5e8dd289f526a801dc3ce16d,60e56a32e776b6ca1e030277,2021-07-07_10h50.50.654,Simcolourproject_2stim_asymm_v5,2020.2.10,Win32,60,60e52e7cfedb1dae636df45f,,,,,,,,,2705,18,82,1,0,0,response1disk,,7,5,5,1,0,0,rectangle,5,5,1,0,0,5,5,1,0,0,1,92,252,29,1,,,,,,,,
,,,,,,,,,,,,,FF,,,,,,,,0.728,,,,,,,,,,,,,,,,,,,,,,5e8dd289f526a801dc3ce16d,60e56a32e776b6ca1e030277,2021-07-07_10h50.50.654,Simcolourproject_2stim_asymm_v5,2020.2.10,Win32,60,60e52e7cfedb1dae636df45f,,,,,,,,,2441,36,68,1,0,0,response1disk,,7,8,-4,1,0,0,rectangle,8,-4,1,0,0,8,-4,1,0,0,1,93,253,119,1,,,,,,,,
,,,,,,,,,,,,,FF,,,,,,,,1.668,,,,,,,,,,,,,,,,,,,,,,5e8dd289f526a801dc3ce16d,60e56a32e776b6ca1e030277,2021-07-07_10h50.50.654,Simcolourproject_2stim_asymm_v5,2020.2.10,Win32,60,60e52e7cfedb1dae636df45f,,,,,,,,,2945,40,-90,1,0,0,response3disk,,4,13,-9,1,0,0,rectangle,13,-9,1,0,0,13,-9,1,0,0,1,94,254,135,1,,,,,,,,
,,,,,,,,,,,,,FF,,,,,,,,1.437,,,,,,,,,,,,,,,,,,,,,,5e8dd289f526a801dc3ce16d,60e56a32e776b6ca1e030277,2021-07-07_10h50.50.654,Simcolourproject_2stim_asymm_v5,2020.2.10,Win32,60,60e52e7cfedb1dae636df45f,,,,,,,,,953,60,-39,1,0,0,response3disk,,5,-18,0,1,0,0,rectangle,-18,0,1,0,0,-18,0,1,0,0,1,95,255,75,1,,,,,,,,
,,,,,,,,,,,,,FF,,,,,,,,0.809,,,,,,,,,,,,,,,,,,,,,,5e8dd289f526a801dc3ce16d,60e56a32e776b6ca1e030277,2021-07-07_10h50.50.654,Simcolourproject_2stim_asymm_v5,2020.2.10,Win32,60,60e52e7cfedb1dae636df45f,,,,,,,,,3325,45,87,1,0,0,response1disk,,7,13,-3,1,0,0,rectangle,13,-3,1,0,0,13,-3,1,0,0,1,96,256,155,1,,,,,,,,
,,,,,,,,,,,,,FF,,,,,,,,0.88,,,,,,,,,,,,,,,,,,,,,,5e8dd289f526a801dc3ce16d,60e56a32e776b6ca1e030277,2021-07-07_10h50.50.654,Simcolourproject_2stim_asymm_v5,2020.2.10,Win32,60,60e52e7cfedb1dae636df45f,,,,,,,,,649,76,39,1,0,0,response1disk,,6,8,1,1,0,0,rectangle,-77,38,1,0,0,-11,-12,1,0,0,1,97,257,61,1,,response7disk_3,TRUE,1,1,"[266,267,217,131,154,5,123,93,103,134,70,107,287,258,166,207,86,297,212,61]",2.027,rectangle
,,,,,,,,,,,,,FF,,,,,,,,1.47,,,,,,,,,,,,,,,,,,,,,,5e8dd289f526a801dc3ce16d,60e56a32e776b6ca1e030277,2021-07-07_10h50.50.654,Simcolourproject_2stim_asymm_v5,2020.2.10,Win32,60,60e52e7cfedb1dae636df45f,,,,,,,,,2043,37,-35,1,0,0,response3disk,,5,-20,13,1,0,0,rectangle,-20,13,1,0,0,-20,13,1,0,0,1,98,258,131,1,,,,,,,,
,,,,,,,,,,,,,FF,,,,,,,,0.749,,,,,,,,,,,,,,,,,,,,,,5e8dd289f526a801dc3ce16d,60e56a32e776b6ca1e030277,2021-07-07_10h50.50.654,Simcolourproject_2stim_asymm_v5,2020.2.10,Win32,60,60e52e7cfedb1dae636df45f,,,,,,,,,3070,43,82,1,0,0,response1disk,,7,1,-2,1,0,0,rectangle,1,-2,1,0,0,1,-2,1,0,0,1,99,259,15,1,,,,,,,,
,,,,,,,,,,,,,FF,,,,,,,,1.012,,,,,,,,,,,,,,,,,,,,,,5e8dd289f526a801dc3ce16d,60e56a32e776b6ca1e030277,2021-07-07_10h50.50.654,Simcolourproject_2stim_asymm_v5,2020.2.10,Win32,60,60e52e7cfedb1dae636df45f,,,,,,,,,4140,-38,101,1,0,0,response7disk,,0,-4,13,1,0,0,rectangle,-4,13,1,0,0,-4,13,1,0,0,1,100,260,84,1,,,,,,,,
,,,,,,,,,,,,,FF,,,,,,,,0.806,,,,,,,,,,,,,,,,,,,,,,5e8dd289f526a801dc3ce16d,60e56a32e776b6ca1e030277,2021-07-07_10h50.50.654,Simcolourproject_2stim_asymm_v5,2020.2.10,Win32,60,60e52e7cfedb1dae636df45f,,,,,,,,,2684,53,86,1,0,0,response1disk,,7,10,-4,1,0,0,rectangle,10,-4,1,0,0,10,-4,1,0,0,1,101,261,132,1,,,,,,,,
,,,,,,,,,,,,,FF,,,,,,,,1.271,,,,,,,,,,,,,,,,,,,,,,5e8dd289f526a801dc3ce16d,60e56a32e776b6ca1e030277,2021-07-07_10h50.50.654,Simcolourproject_2stim_asymm_v5,2020.2.10,Win32,60,60e52e7cfedb1dae636df45f,,,,,,,,,3977,20,-63,1,0,0,response3disk,,4,11,-2,1,0,0,rectangle,11,-2,1,0,0,11,-2,1,0,0,1,102,262,22,1,,,,,,,,
,,,,,,,,,,,,,FF,,,,,,,,0.949,,,,,,,,,,,,,,,,,,,,,,5e8dd289f526a801dc3ce16d,60e56a32e776b6ca1e030277,2021-07-07_10h50.50.654,Simcolourproject_2stim_asymm_v5,2020.2.10,Win32,60,60e52e7cfedb1dae636df45f,,,,,,,,,4184,39,-28,1,0,0,response3disk,,5,0,15,1,0,0,rectangle,0,15,1,0,0,0,15,1,0,0,1,103,263,94,1,,,,,,,,
,,,,,,,,,,,,,FF,,,,,,,,0.724,,,,,,,,,,,,,,,,,,,,,,5e8dd289f526a801dc3ce16d,60e56a32e776b6ca1e030277,2021-07-07_10h50.50.654,Simcolourproject_2stim_asymm_v5,2020.2.10,Win32,60,60e52e7cfedb1dae636df45f,,,,,,,,,3697,34,62,1,0,0,response1disk,,7,10,1,1,0,0,rectangle,10,1,1,0,0,10,1,1,0,0,1,104,264,10,1,,,,,,,,
,,,,,,,,,,,,,FF,,,,,,,,0.879,,,,,,,,,,,,,,,,,,,,,,5e8dd289f526a801dc3ce16d,60e56a32e776b6ca1e030277,2021-07-07_10h50.50.654,Simcolourproject_2stim_asymm_v5,2020.2.10,Win32,60,60e52e7cfedb1dae636df45f,,,,,,,,,3080,38,61,1,0,0,response1disk,,7,20,0,1,0,0,rectangle,54,-29,1,0,0,15,-1,1,0,0,1,105,265,97,1,,response3disk_3,TRUE,5,5,"[266,267,217,131,154,5,123,93,103,134,70,107,287,258,166,207,86,297,212,61]",1.487,rectangle
,,,,,,,,,,,,,FF,,,,,,,,2.01,,,,,,,,,,,,,,,,,,,,,,5e8dd289f526a801dc3ce16d,60e56a32e776b6ca1e030277,2021-07-07_10h50.50.654,Simcolourproject_2stim_asymm_v5,2020.2.10,Win32,60,60e52e7cfedb1dae636df45f,,,,,,,,,3553,36,-74,1,0,0,response3disk,,4,-1,-8,1,0,0,rectangle,26,-89,1,0,0,9,0,1,0,0,1,106,266,117,1,,response3disk_3,TRUE,4,4,"[266,267,217,131,154,5,123,93,103,134,70,107,287,258,166,207,86,297,212,61]",1.507,rectangle
,,,,,,,,,,,,,FF,,,,,,,,1.417,,,,,,,,,,,,,,,,,,,,,,5e8dd289f526a801dc3ce16d,60e56a32e776b6ca1e030277,2021-07-07_10h50.50.654,Simcolourproject_2stim_asymm_v5,2020.2.10,Win32,60,60e52e7cfedb1dae636df45f,,,,,,,,,3588,-29,-63,1,0,0,response5disk,,3,16,8,1,0,0,rectangle,16,8,1,0,0,16,8,1,0,0,1,107,267,159,1,,,,,,,,
,,,,,,,,,,,,,FF,,,,,,,,1.051,,,,,,,,,,,,,,,,,,,,,,5e8dd289f526a801dc3ce16d,60e56a32e776b6ca1e030277,2021-07-07_10h50.50.654,Simcolourproject_2stim_asymm_v5,2020.2.10,Win32,60,60e52e7cfedb1dae636df45f,,,,,,,,,3374,69,-35,1,0,0,response3disk,,5,-2,7,1,0,0,rectangle,-2,7,1,0,0,-2,7,1,0,0,1,108,268,154,1,,,,,,,,
,,,,,,,,,,,,,FF,,,,,,,,1.457,,,,,,,,,,,,,,,,,,,,,,5e8dd289f526a801dc3ce16d,60e56a32e776b6ca1e030277,2021-07-07_10h50.50.654,Simcolourproject_2stim_asymm_v5,2020.2.10,Win32,60,60e52e7cfedb1dae636df45f,,,,,,,,,3583,30,-56,1,0,0,response3disk,,4,6,-2,1,0,0,rectangle,6,-2,1,0,0,6,-2,1,0,0,1,109,269,2,1,,,,,,,,
,,,,,,,,,,,,,FF,,,,,,,,1.305,,,,,,,,,,,,,,,,,,,,,,5e8dd289f526a801dc3ce16d,60e56a32e776b6ca1e030277,2021-07-07_10h50.50.654,Simcolourproject_2stim_asymm_v5,2020.2.10,Win32,60,60e52e7cfedb1dae636df45f,,,,,,,,,4205,22,-54,1,0,0,response3disk,,4,1,-2,1,0,0,rectangle,1,-2,1,0,0,1,-2,1,0,0,1,110,270,123,1,,,,,,,,
,,,,,,,,,,,,,FF,,,,,,,,1.206,,,,,,,,,,,,,,,,,,,,,,5e8dd289f526a801dc3ce16d,60e56a32e776b6ca1e030277,2021-07-07_10h50.50.654,Simcolourproject_2stim_asymm_v5,2020.2.10,Win32,60,60e52e7cfedb1dae636df45f,,,,,,,,,3976,65,-42,1,0,0,response3disk,,5,7,-8,1,0,0,rectangle,7,-8,1,0,0,7,-8,1,0,0,1,111,271,41,1,,,,,,,,
,,,,,,,,,,,,,FF,,,,,,,,0.885,,,,,,,,,,,,,,,,,,,,,,5e8dd289f526a801dc3ce16d,60e56a32e776b6ca1e030277,2021-07-07_10h50.50.654,Simcolourproject_2stim_asymm_v5,2020.2.10,Win32,60,60e52e7cfedb1dae636df45f,,,,,,,,,958,46,51,1,0,0,response1disk,,7,9,-3,1,0,0,rectangle,9,-3,1,0,0,9,-3,1,0,0,1,112,272,99,1,,,,,,,,
,,,,,,,,,,,,,FF,,,,,,,,0.808,,,,,,,,,,,,,,,,,,,,,,5e8dd289f526a801dc3ce16d,60e56a32e776b6ca1e030277,2021-07-07_10h50.50.654,Simcolourproject_2stim_asymm_v5,2020.2.10,Win32,60,60e52e7cfedb1dae636df45f,,,,,,,,,2495,34,55,1,0,0,response1disk,,7,20,4,1,0,0,rectangle,20,4,1,0,0,20,4,1,0,0,1,113,273,116,1,,,,,,,,
,,,,,,,,,,,,,FF,,,,,,,,0.82,,,,,,,,,,,,,,,,,,,,,,5e8dd289f526a801dc3ce16d,60e56a32e776b6ca1e030277,2021-07-07_10h50.50.654,Simcolourproject_2stim_asymm_v5,2020.2.10,Win32,60,60e52e7cfedb1dae636df45f,,,,,,,,,3130,42,62,1,0,0,response1disk,,7,22,4,1,0,0,rectangle,22,4,1,0,0,22,4,1,0,0,1,114,274,93,1,,,,,,,,
,,,,,,,,,,,,,FF,,,,,,,,0.793,,,,,,,,,,,,,,,,,,,,,,5e8dd289f526a801dc3ce16d,60e56a32e776b6ca1e030277,2021-07-07_10h50.50.654,Simcolourproject_2stim_asymm_v5,2020.2.10,Win32,60,60e52e7cfedb1dae636df45f,,,,,,,,,858,35,58,1,0,0,response1disk,,7,16,4,1,0,0,rectangle,16,4,1,0,0,16,4,1,0,0,1,115,275,111,1,,,,,,,,
,,,,,,,,,,,,,FF,,,,,,,,0.674,,,,,,,,,,,,,,,,,,,,,,5e8dd289f526a801dc3ce16d,60e56a32e776b6ca1e030277,2021-07-07_10h50.50.654,Simcolourproject_2stim_asymm_v5,2020.2.10,Win32,60,60e52e7cfedb1dae636df45f,,,,,,,,,1983,35,49,1,0,0,response1disk,,7,20,11,1,0,0,rectangle,20,11,1,0,0,20,11,1,0,0,1,116,276,95,1,,,,,,,,
,,,,,,,,,,,,,FF,,,,,,,,0.91,,,,,,,,,,,,,,,,,,,,,,5e8dd289f526a801dc3ce16d,60e56a32e776b6ca1e030277,2021-07-07_10h50.50.654,Simcolourproject_2stim_asymm_v5,2020.2.10,Win32,60,60e52e7cfedb1dae636df45f,,,,,,,,,3914,20,-53,1,0,0,response3disk,,4,1,8,1,0,0,rectangle,1,8,1,0,0,1,8,1,0,0,1,117,277,110,1,,,,,,,,
,,,,,,,,,,,,,FF,,,,,,,,0.745,,,,,,,,,,,,,,,,,,,,,,5e8dd289f526a801dc3ce16d,60e56a32e776b6ca1e030277,2021-07-07_10h50.50.654,Simcolourproject_2stim_asymm_v5,2020.2.10,Win32,60,60e52e7cfedb1dae636df45f,,,,,,,,,1713,27,78,1,0,0,response1disk,,7,9,0,1,0,0,rectangle,9,0,1,0,0,9,0,1,0,0,1,118,278,126,1,,,,,,,,
,,,,,,,,,,,,,FF,,,,,,,,1.119,,,,,,,,,,,,,,,,,,,,,,5e8dd289f526a801dc3ce16d,60e56a32e776b6ca1e030277,2021-07-07_10h50.50.654,Simcolourproject_2stim_asymm_v5,2020.2.10,Win32,60,60e52e7cfedb1dae636df45f,,,,,,,,,1734,-31,-78,1,0,0,response5disk,,3,-1,-12,1,0,0,rectangle,-1,-12,1,0,0,-1,-12,1,0,0,1,119,279,141,1,,,,,,,,
,,,,,,,,,,,,,FF,,,,,,,,0.907,,,,,,,,,,,,,,,,,,,,,,5e8dd289f526a801dc3ce16d,60e56a32e776b6ca1e030277,2021-07-07_10h50.50.654,Simcolourproject_2stim_asymm_v5,2020.2.10,Win32,60,60e52e7cfedb1dae636df45f,,,,,,,,,3392,-33,-63,1,0,0,response5disk,,3,9,6,1,0,0,rectangle,9,6,1,0,0,9,6,1,0,0,1,120,280,102,1,,,,,,,,
,,,,,,,,,,,,,FF,,,,,,,,0.719,,,,,,,,,,,,,,,,,,,,,,5e8dd289f526a801dc3ce16d,60e56a32e776b6ca1e030277,2021-07-07_10h50.50.654,Simcolourproject_2stim_asymm_v5,2020.2.10,Win32,60,60e52e7cfedb1dae636df45f,,,,,,,,,1021,24,79,1,0,0,response1disk,,7,0,7,1,0,0,rectangle,0,7,1,0,0,0,7,1,0,0,1,121,281,107,1,,,,,,,,
,,,,,,,,,,,,,FF,,,,,,,,1.218,,,,,,,,,,,,,,,,,,,,,,5e8dd289f526a801dc3ce16d,60e56a32e776b6ca1e030277,2021-07-07_10h50.50.654,Simcolourproject_2stim_asymm_v5,2020.2.10,Win32,60,60e52e7cfedb1dae636df45f,,,,,,,,,3403,100,46,1,0,0,response1disk,,6,9,-4,1,0,0,rectangle,9,-4,1,0,0,9,-4,1,0,0,1,122,282,65,1,,,,,,,,
,,,,,,,,,,,,,FF,,,,,,,,0.767,,,,,,,,,,,,,,,,,,,,,,5e8dd289f526a801dc3ce16d,60e56a32e776b6ca1e030277,2021-07-07_10h50.50.654,Simcolourproject_2stim_asymm_v5,2020.2.10,Win32,60,60e52e7cfedb1dae636df45f,,,,,,,,,3125,40,67,1,0,0,response1disk,,7,20,10,1,0,0,rectangle,20,10,1,0,0,20,10,1,0,0,1,123,283,50,1,,,,,,,,
,,,,,,,,,,,,,FF,,,,,,,,0.624,,,,,,,,,,,,,,,,,,,,,,5e8dd289f526a801dc3ce16d,60e56a32e776b6ca1e030277,2021-07-07_10h50.50.654,Simcolourproject_2stim_asymm_v5,2020.2.10,Win32,60,60e52e7cfedb1dae636df45f,,,,,,,,,551,37,72,1,0,0,response1disk,,7,18,8,1,0,0,rectangle,18,8,1,0,0,18,8,1,0,0,1,124,284,14,1,,,,,,,,
,,,,,,,,,,,,,FF,,,,,,,,0.57,,,,,,,,,,,,,,,,,,,,,,5e8dd289f526a801dc3ce16d,60e56a32e776b6ca1e030277,2021-07-07_10h50.50.654,Simcolourproject_2stim_asymm_v5,2020.2.10,Win32,60,60e52e7cfedb1dae636df45f,,,,,,,,,1865,43,76,1,0,0,response1disk,,7,16,1,1,0,0,rectangle,16,1,1,0,0,16,1,1,0,0,1,125,285,125,1,,,,,,,,
,,,,,,,,,,,,,FF,,,,,,,,1.453,,,,,,,,,,,,,,,,,,,,,,5e8dd289f526a801dc3ce16d,60e56a32e776b6ca1e030277,2021-07-07_10h50.50.654,Simcolourproject_2stim_asymm_v5,2020.2.10,Win32,60,60e52e7cfedb1dae636df45f,,,,,,,,,4359,-66,17,1,0,0,response7disk,,1,-4,-9,1,0,0,rectangle,-33,-85,1,0,0,0,-10,1,0,0,1,126,286,40,1,,response5disk_3,TRUE,3,3,"[266,267,217,131,154,5,123,93,103,134,70,107,287,258,166,207,86,297,212,61]",1.676,rectangle
,,,,,,,,,,,,,FF,,,,,,,,0.713,,,,,,,,,,,,,,,,,,,,,,5e8dd289f526a801dc3ce16d,60e56a32e776b6ca1e030277,2021-07-07_10h50.50.654,Simcolourproject_2stim_asymm_v5,2020.2.10,Win32,60,60e52e7cfedb1dae636df45f,,,,,,,,,1474,34,88,1,0,0,response1disk,,7,10,-8,1,0,0,rectangle,10,-8,1,0,0,10,-8,1,0,0,1,127,287,138,1,,,,,,,,
,,,,,,,,,,,,,FF,,,,,,,,1.717,,,,,,,,,,,,,,,,,,,,,,5e8dd289f526a801dc3ce16d,60e56a32e776b6ca1e030277,2021-07-07_10h50.50.654,Simcolourproject_2stim_asymm_v5,2020.2.10,Win32,60,60e52e7cfedb1dae636df45f,,,,,,,,,722,21,-60,1,0,0,response3disk,,4,-8,-10,1,0,0,rectangle,-8,-10,1,0,0,-8,-10,1,0,0,1,128,288,48,1,,,,,,,,
,,,,,,,,,,,,,FF,,,,,,,,1.002,,,,,,,,,,,,,,,,,,,,,,5e8dd289f526a801dc3ce16d,60e56a32e776b6ca1e030277,2021-07-07_10h50.50.654,Simcolourproject_2stim_asymm_v5,2020.2.10,Win32,60,60e52e7cfedb1dae636df45f,,,,,,,,,1151,59,20,1,0,0,response1disk,,6,-7,2,1,0,0,rectangle,-7,2,1,0,0,-7,2,1,0,0,1,129,289,69,1,,,,,,,,
,,,,,,,,,,,,,FF,,,,,,,,1.318,,,,,,,,,,,,,,,,,,,,,,5e8dd289f526a801dc3ce16d,60e56a32e776b6ca1e030277,2021-07-07_10h50.50.654,Simcolourproject_2stim_asymm_v5,2020.2.10,Win32,60,60e52e7cfedb1dae636df45f,,,,,,,,,3094,29,-69,1,0,0,response3disk,,4,-1,1,1,0,0,rectangle,-1,1,1,0,0,-1,1,1,0,0,1,130,290,85,1,,,,,,,,
,,,,,,,,,,,,,FF,,,,,,,,1.059,,,,,,,,,,,,,,,,,,,,,,5e8dd289f526a801dc3ce16d,60e56a32e776b6ca1e030277,2021-07-07_10h50.50.654,Simcolourproject_2stim_asymm_v5,2020.2.10,Win32,60,60e52e7cfedb1dae636df45f,,,,,,,,,1677,-56,-30,1,0,0,response5disk,,2,-21,10,1,0,0,rectangle,-21,10,1,0,0,-21,10,1,0,0,1,131,291,3,1,,,,,,,,
,,,,,,,,,,,,,FF,,,,,,,,1.287,,,,,,,,,,,,,,,,,,,,,,5e8dd289f526a801dc3ce16d,60e56a32e776b6ca1e030277,2021-07-07_10h50.50.654,Simcolourproject_2stim_asymm_v5,2020.2.10,Win32,60,60e52e7cfedb1dae636df45f,,,,,,,,,1816,-40,-83,1,0,0,response5disk,,3,4,4,1,0,0,rectangle,4,4,1,0,0,4,4,1,0,0,1,132,292,12,1,,,,,,,,
,,,,,,,,,,,,,FF,,,,,,,,0.765,,,,,,,,,,,,,,,,,,,,,,5e8dd289f526a801dc3ce16d,60e56a32e776b6ca1e030277,2021-07-07_10h50.50.654,Simcolourproject_2stim_asymm_v5,2020.2.10,Win32,60,60e52e7cfedb1dae636df45f,,,,,,,,,517,42,91,1,0,0,response1disk,,7,20,8,1,0,0,rectangle,20,8,1,0,0,20,8,1,0,0,1,133,293,20,1,,,,,,,,
,,,,,,,,,,,,,FF,,,,,,,,0.735,,,,,,,,,,,,,,,,,,,,,,5e8dd289f526a801dc3ce16d,60e56a32e776b6ca1e030277,2021-07-07_10h50.50.654,Simcolourproject_2stim_asymm_v5,2020.2.10,Win32,60,60e52e7cfedb1dae636df45f,,,,,,,,,2868,36,70,1,0,0,response1disk,,7,15,10,1,0,0,rectangle,15,10,1,0,0,15,10,1,0,0,1,134,294,139,1,,,,,,,,
,,,,,,,,,,,,,FF,,,,,,,,0.975,,,,,,,,,,,,,,,,,,,,,,5e8dd289f526a801dc3ce16d,60e56a32e776b6ca1e030277,2021-07-07_10h50.50.654,Simcolourproject_2stim_asymm_v5,2020.2.10,Win32,60,60e52e7cfedb1dae636df45f,,,,,,,,,3340,86,45,1,0,0,response1disk,,6,22,-2,1,0,0,rectangle,22,-2,1,0,0,22,-2,1,0,0,1,135,295,120,1,,,,,,,,
,,,,,,,,,,,,,FF,,,,,,,,0.896,,,,,,,,,,,,,,,,,,,,,,5e8dd289f526a801dc3ce16d,60e56a32e776b6ca1e030277,2021-07-07_10h50.50.654,Simcolourproject_2stim_asymm_v5,2020.2.10,Win32,60,60e52e7cfedb1dae636df45f,,,,,,,,,1112,53,66,1,0,0,response1disk,,7,18,5,1,0,0,rectangle,-36,-72,1,0,0,5,-5,1,0,0,1,136,296,101,1,,response5disk_3,TRUE,3,3,"[266,267,217,131,154,5,123,93,103,134,70,107,287,258,166,207,86,297,212,61]",1.727,rectangle
,,,,,,,,,,,,,FF,,,,,,,,1.119,,,,,,,,,,,,,,,,,,,,,,5e8dd289f526a801dc3ce16d,60e56a32e776b6ca1e030277,2021-07-07_10h50.50.654,Simcolourproject_2stim_asymm_v5,2020.2.10,Win32,60,60e52e7cfedb1dae636df45f,,,,,,,,,3807,55,47,1,0,0,response1disk,,6,27,10,1,0,0,rectangle,27,10,1,0,0,27,10,1,0,0,1,137,297,144,1,,,,,,,,
,,,,,,,,,,,,,FF,,,,,,,,0.881,,,,,,,,,,,,,,,,,,,,,,5e8dd289f526a801dc3ce16d,60e56a32e776b6ca1e030277,2021-07-07_10h50.50.654,Simcolourproject_2stim_asymm_v5,2020.2.10,Win32,60,60e52e7cfedb1dae636df45f,,,,,,,,,4034,34,72,1,0,0,response1disk,,7,-1,-9,1,0,0,rectangle,-1,-9,1,0,0,-1,-9,1,0,0,1,138,298,114,1,,,,,,,,
,,,,,,,,,,,,,FF,,,,,,,,0.71,,,,,,,,,,,,,,,,,,,,,,5e8dd289f526a801dc3ce16d,60e56a32e776b6ca1e030277,2021-07-07_10h50.50.654,Simcolourproject_2stim_asymm_v5,2020.2.10,Win32,60,60e52e7cfedb1dae636df45f,,,,,,,,,1160,30,57,1,0,0,response1disk,,7,13,12,1,0,0,rectangle,13,12,1,0,0,13,12,1,0,0,1,139,299,71,1,,,,,,,,
,,,,,,,,,,,,,FF,,,,,,,,0.864,,,,,,,,,,,,,,,,,,,,,,5e8dd289f526a801dc3ce16d,60e56a32e776b6ca1e030277,2021-07-07_10h50.50.654,Simcolourproject_2stim_asymm_v5,2020.2.10,Win32,60,60e52e7cfedb1dae636df45f,,,,,,,,,1405,34,64,1,0,0,response1disk,,7,6,-5,1,0,0,rectangle,6,-5,1,0,0,6,-5,1,0,0,1,140,300,113,1,,,,,,,,
,,,,,,,,,,,,,FF,,,,,,,,0.75,,,,,,,,,,,,,,,,,,,,,,5e8dd289f526a801dc3ce16d,60e56a32e776b6ca1e030277,2021-07-07_10h50.50.654,Simcolourproject_2stim_asymm_v5,2020.2.10,Win32,60,60e52e7cfedb1dae636df45f,,,,,,,,,3050,72,39,1,0,0,response1disk,,6,19,11,1,0,0,rectangle,19,11,1,0,0,19,11,1,0,0,1,141,301,145,1,,,,,,,,
,,,,,,,,,,,,,FF,,,,,,,,1.327,,,,,,,,,,,,,,,,,,,,,,5e8dd289f526a801dc3ce16d,60e56a32e776b6ca1e030277,2021-07-07_10h50.50.654,Simcolourproject_2stim_asymm_v5,2020.2.10,Win32,60,60e52e7cfedb1dae636df45f,,,,,,,,,3189,24,-51,1,0,0,response3disk,,4,0,5,1,0,0,rectangle,0,5,1,0,0,0,5,1,0,0,1,142,302,17,1,,,,,,,,
,,,,,,,,,,,,,FF,,,,,,,,0.711,,,,,,,,,,,,,,,,,,,,,,5e8dd289f526a801dc3ce16d,60e56a32e776b6ca1e030277,2021-07-07_10h50.50.654,Simcolourproject_2stim_asymm_v5,2020.2.10,Win32,60,60e52e7cfedb1dae636df45f,,,,,,,,,344,33,78,1,0,0,response1disk,,7,12,2,1,0,0,rectangle,12,2,1,0,0,12,2,1,0,0,1,143,303,26,1,,,,,,,,
