key_resp.keys,key_resp.rt,key_resp_14.keys,key_resp_14.rt,key_resp_15.keys,key_resp_15.rt,key_resp_17.keys,key_resp_17.rt,key_resp_9.keys,key_resp_9.rt,key_resp_10.keys,key_resp_10.rt,practice_comparison,Ecc,mouse_5.x,mouse_5.y,mouse_5.leftButton,mouse_5.midButton,mouse_5.rightButton,mouse_5.clicked_name,pracsimilarity,response_time,mouse_10.x,mouse_10.y,mouse_10.leftButton,mouse_10.midButton,mouse_10.rightButton,mouse_10.clicked_name,mouse_7.x,mouse_7.y,mouse_7.leftButton,mouse_7.midButton,mouse_7.rightButton,mouse_6.x,mouse_6.y,mouse_6.leftButton,mouse_6.midButton,mouse_6.rightButton,duringprac.thisRepN,duringprac.thisTrialN,duringprac.thisN,duringprac.thisIndex,duringprac.ran,participant,session,date,expName,psychopyVersion,OS,frameRate,study_id,mouse_7.clicked_name,catchpracsimilarity,catch_response_time,catchnumberprac,catchtrialorderprac,mouse_6.clicked_name,key_resp_22.keys,key_resp_22.rt,realcomparison,mouse.x,mouse.y,mouse.leftButton,mouse.midButton,mouse.rightButton,mouse.clicked_name,Colour2,similarity,mouse_2.x,mouse_2.y,mouse_2.leftButton,mouse_2.midButton,mouse_2.rightButton,mouse_2.clicked_name,mouse_3.x,mouse_3.y,mouse_3.leftButton,mouse_3.midButton,mouse_3.rightButton,mouse_11.x,mouse_11.y,mouse_11.leftButton,mouse_11.midButton,mouse_11.rightButton,trials_2.thisRepN,trials_2.thisTrialN,trials_2.thisN,trials_2.thisIndex,trials_2.ran,Colour1,mouse_3.clicked_name,catchornah,catchsimilarity,catchnumber,catchtrialorder,catchRT,mouse_11.clicked_name
space,0.9575,space,16.2799,space,40.4143,space,7.7972,space,4.3287,space,5.9164,54,FF,-20.8371582,-83.54656982,1,0,0,response5disk_5,3,2.9856,-11.331604,-9.781494141,1,0,0,rectangle_8,-11.331604,-9.781494141,1,0,0,-11.331604,-9.781494141,1,0,0,0,0,0,0,1,5ea2ac2e9a49751cf0dee644,60e56421b732a63ea707a209,2021-07-07_10h23.34.512,Simcolourproject_2stim_asymm_v5,2020.2.10,MacIntel,60,60e52e7cfedb1dae636df45f,,,,,,,,,,,,,,,,,,,,,,,,,,,,,,,,,,,,,,,,,,,,,,
,,,,,,,,,,,,129,PF,73.38677979,45.27697754,1,0,0,response1disk_5,6,1.9018,-0.574462891,3.834777832,1,0,0,rectangle_8,41.10772705,81.59475708,1,0,0,2.389221191,3.956054688,1,0,0,0,1,1,4,1,5ea2ac2e9a49751cf0dee644,60e56421b732a63ea707a209,2021-07-07_10h23.34.512,Simcolourproject_2stim_asymm_v5,2020.2.10,MacIntel,60,60e52e7cfedb1dae636df45f,response1disk_7,7,2.6163,7,"[2,5]",rectangle_4,,,,,,,,,,,,,,,,,,,,,,,,,,,,,,,,,,,,,,,,
,,,,,,,,,,,,142,PF,30.38848877,-65.47906494,1,0,0,response3disk_5,4,1.9676,11.6741333,-10.13995361,1,0,0,rectangle_8,11.6741333,-10.13995361,1,0,0,11.6741333,-10.13995361,1,0,0,0,2,2,6,1,5ea2ac2e9a49751cf0dee644,60e56421b732a63ea707a209,2021-07-07_10h23.34.512,Simcolourproject_2stim_asymm_v5,2020.2.10,MacIntel,60,60e52e7cfedb1dae636df45f,,,,,,,,,,,,,,,,,,,,,,,,,,,,,,,,,,,,,,,,,,,,,,
,,,,,,,,,,,,71,FF,-61.66900635,-40.27520752,1,0,0,response5disk_5,2,1.434,-6.026245117,-5.093261719,1,0,0,rectangle_8,-6.026245117,-5.093261719,1,0,0,-6.026245117,-5.093261719,1,0,0,0,3,3,3,1,5ea2ac2e9a49751cf0dee644,60e56421b732a63ea707a209,2021-07-07_10h23.34.512,Simcolourproject_2stim_asymm_v5,2020.2.10,MacIntel,60,60e52e7cfedb1dae636df45f,,,,,,,,,,,,,,,,,,,,,,,,,,,,,,,,,,,,,,,,,,,,,,
,,,,,,,,,,,,92,PF,-69.03118896,-35.00665283,1,0,0,response5disk_5,2,0.8005,-16.53399658,-7.30456543,1,0,0,rectangle_8,46.14691162,82.27337646,1,0,0,5.142700195,-2.019470215,1,0,0,0,4,4,1,1,5ea2ac2e9a49751cf0dee644,60e56421b732a63ea707a209,2021-07-07_10h23.34.512,Simcolourproject_2stim_asymm_v5,2020.2.10,MacIntel,60,60e52e7cfedb1dae636df45f,response1disk_7,7,1.9177,7,"[2,5]",rectangle_4,,,,,,,,,,,,,,,,,,,,,,,,,,,,,,,,,,,,,,,,
,,,,,,,,,,,,50,FF,70.1862793,-22.81219482,1,0,0,response3disk_5,5,1.1671,12.12597656,-9.229156494,1,0,0,rectangle_8,12.12597656,-9.229156494,1,0,0,12.12597656,-9.229156494,1,0,0,0,5,5,5,1,5ea2ac2e9a49751cf0dee644,60e56421b732a63ea707a209,2021-07-07_10h23.34.512,Simcolourproject_2stim_asymm_v5,2020.2.10,MacIntel,60,60e52e7cfedb1dae636df45f,,,,,,,,,,,,,,,,,,,,,,,,,,,,,,,,,,,,,,,,,,,,,,
,,,,,,,,,,,,83,PF,67.34094238,-29.54663086,1,0,0,response3disk_5,5,0.9341,17.37487793,-2.845825195,1,0,0,rectangle_8,17.37487793,-2.845825195,1,0,0,17.37487793,-2.845825195,1,0,0,0,6,6,2,1,5ea2ac2e9a49751cf0dee644,60e56421b732a63ea707a209,2021-07-07_10h23.34.512,Simcolourproject_2stim_asymm_v5,2020.2.10,MacIntel,60,60e52e7cfedb1dae636df45f,,,,,,,,,,,,,,,,,,,,,,,,,,,,,,,,,,,,,,,,,,,,,,
,,,,,,,,,,,,,FF,,,,,,,,1.2338,,,,,,,,,,,,,,,,,,,,,,5ea2ac2e9a49751cf0dee644,60e56421b732a63ea707a209,2021-07-07_10h23.34.512,Simcolourproject_2stim_asymm_v5,2020.2.10,MacIntel,60,60e52e7cfedb1dae636df45f,,,,,,,space,2.2347,2958,89.2555542,37.84796143,1,0,0,response1disk,,6,2.887695313,-2.316619873,1,0,0,rectangle,2.887695313,-2.316619873,1,0,0,2.887695313,-2.316619873,1,0,0,0,0,0,118,1,,,,,,,,
,,,,,,,,,,,,,FF,,,,,,,,1.0321,,,,,,,,,,,,,,,,,,,,,,5ea2ac2e9a49751cf0dee644,60e56421b732a63ea707a209,2021-07-07_10h23.34.512,Simcolourproject_2stim_asymm_v5,2020.2.10,MacIntel,60,60e52e7cfedb1dae636df45f,,,,,,,,,3615,89.3067627,-35.76361084,1,0,0,response3disk,,5,-11.43017578,-2.43460083,1,0,0,rectangle,-11.43017578,-2.43460083,1,0,0,-11.43017578,-2.43460083,1,0,0,0,1,1,138,1,,,,,,,,
,,,,,,,,,,,,,FF,,,,,,,,1.5153,,,,,,,,,,,,,,,,,,,,,,5ea2ac2e9a49751cf0dee644,60e56421b732a63ea707a209,2021-07-07_10h23.34.512,Simcolourproject_2stim_asymm_v5,2020.2.10,MacIntel,60,60e52e7cfedb1dae636df45f,,,,,,,,,3388,-58.54559326,43.89282227,1,0,0,response7disk,,1,-9.679992676,-5.10736084,1,0,0,rectangle,-9.679992676,-5.10736084,1,0,0,-9.679992676,-5.10736084,1,0,0,0,2,2,153,1,,,,,,,,
,,,,,,,,,,,,,FF,,,,,,,,0.9711,,,,,,,,,,,,,,,,,,,,,,5ea2ac2e9a49751cf0dee644,60e56421b732a63ea707a209,2021-07-07_10h23.34.512,Simcolourproject_2stim_asymm_v5,2020.2.10,MacIntel,60,60e52e7cfedb1dae636df45f,,,,,,,,,2950,57.85888672,18.85009766,1,0,0,response1disk,,6,2.753295898,1.720458984,1,0,0,rectangle,2.753295898,1.720458984,1,0,0,2.753295898,1.720458984,1,0,0,0,3,3,31,1,,,,,,,,
,,,,,,,,,,,,,FF,,,,,,,,1.0509,,,,,,,,,,,,,,,,,,,,,,5ea2ac2e9a49751cf0dee644,60e56421b732a63ea707a209,2021-07-07_10h23.34.512,Simcolourproject_2stim_asymm_v5,2020.2.10,MacIntel,60,60e52e7cfedb1dae636df45f,,,,,,,,,616,-39.07550049,-79.57177734,1,0,0,response5disk,,3,2.614257813,-0.468566895,1,0,0,rectangle,2.614257813,-0.468566895,1,0,0,2.614257813,-0.468566895,1,0,0,0,4,4,87,1,,,,,,,,
,,,,,,,,,,,,,FF,,,,,,,,0.7838,,,,,,,,,,,,,,,,,,,,,,5ea2ac2e9a49751cf0dee644,60e56421b732a63ea707a209,2021-07-07_10h23.34.512,Simcolourproject_2stim_asymm_v5,2020.2.10,MacIntel,60,60e52e7cfedb1dae636df45f,,,,,,,,,2174,-23.7288208,-49.49969482,1,0,0,response5disk,,3,3.267089844,1.056182861,1,0,0,rectangle,3.267089844,1.056182861,1,0,0,3.267089844,1.056182861,1,0,0,0,5,5,17,1,,,,,,,,
,,,,,,,,,,,,,FF,,,,,,,,0.8058,,,,,,,,,,,,,,,,,,,,,,5ea2ac2e9a49751cf0dee644,60e56421b732a63ea707a209,2021-07-07_10h23.34.512,Simcolourproject_2stim_asymm_v5,2020.2.10,MacIntel,60,60e52e7cfedb1dae636df45f,,,,,,,,,922,80.40130615,-42.17803955,1,0,0,response3disk,,5,25.95349121,-12.90393066,1,0,0,rectangle,25.95349121,-12.90393066,1,0,0,25.95349121,-12.90393066,1,0,0,0,6,6,135,1,,,,,,,,
,,,,,,,,,,,,,FF,,,,,,,,1.4671,,,,,,,,,,,,,,,,,,,,,,5ea2ac2e9a49751cf0dee644,60e56421b732a63ea707a209,2021-07-07_10h23.34.512,Simcolourproject_2stim_asymm_v5,2020.2.10,MacIntel,60,60e52e7cfedb1dae636df45f,,,,,,,,,1160,89.02703857,28.93481445,1,0,0,response1disk,,6,-7.002380371,-2.75793457,1,0,0,rectangle,-7.002380371,-2.75793457,1,0,0,-7.002380371,-2.75793457,1,0,0,0,7,7,35,1,,,,,,,,
,,,,,,,,,,,,,FF,,,,,,,,0.8831,,,,,,,,,,,,,,,,,,,,,,5ea2ac2e9a49751cf0dee644,60e56421b732a63ea707a209,2021-07-07_10h23.34.512,Simcolourproject_2stim_asymm_v5,2020.2.10,MacIntel,60,60e52e7cfedb1dae636df45f,,,,,,,,,3470,-75.05187988,-30.00976563,1,0,0,response5disk,,2,-9.926086426,4.495849609,1,0,0,rectangle,-9.926086426,4.495849609,1,0,0,-9.926086426,4.495849609,1,0,0,0,8,8,108,1,,,,,,,,
,,,,,,,,,,,,,FF,,,,,,,,1.1049,,,,,,,,,,,,,,,,,,,,,,5ea2ac2e9a49751cf0dee644,60e56421b732a63ea707a209,2021-07-07_10h23.34.512,Simcolourproject_2stim_asymm_v5,2020.2.10,MacIntel,60,60e52e7cfedb1dae636df45f,,,,,,,,,3425,-15.58947754,71.45800781,1,0,0,response7disk,,0,1.993408203,10.16766357,1,0,0,rectangle,1.993408203,10.16766357,1,0,0,1.993408203,10.16766357,1,0,0,0,9,9,6,1,,,,,,,,
,,,,,,,,,,,,,FF,,,,,,,,1.1521,,,,,,,,,,,,,,,,,,,,,,5ea2ac2e9a49751cf0dee644,60e56421b732a63ea707a209,2021-07-07_10h23.34.512,Simcolourproject_2stim_asymm_v5,2020.2.10,MacIntel,60,60e52e7cfedb1dae636df45f,,,,,,,,,1442,32.45788574,-80.17749023,1,0,0,response3disk,,4,1.28137207,-10.3578186,1,0,0,rectangle,1.28137207,-10.3578186,1,0,0,1.28137207,-10.3578186,1,0,0,0,10,10,28,1,,,,,,,,
,,,,,,,,,,,,,FF,,,,,,,,1.9141,,,,,,,,,,,,,,,,,,,,,,5ea2ac2e9a49751cf0dee644,60e56421b732a63ea707a209,2021-07-07_10h23.34.512,Simcolourproject_2stim_asymm_v5,2020.2.10,MacIntel,60,60e52e7cfedb1dae636df45f,,,,,,,,,980,51.40087891,-101.4295959,1,0,0,response3disk,,4,5.27722168,-13.61206055,1,0,0,rectangle,5.27722168,-13.61206055,1,0,0,5.27722168,-13.61206055,1,0,0,0,11,11,18,1,,,,,,,,
,,,,,,,,,,,,,FF,,,,,,,,0.9851,,,,,,,,,,,,,,,,,,,,,,5ea2ac2e9a49751cf0dee644,60e56421b732a63ea707a209,2021-07-07_10h23.34.512,Simcolourproject_2stim_asymm_v5,2020.2.10,MacIntel,60,60e52e7cfedb1dae636df45f,,,,,,,,,4346,-35.59075928,-67.60968018,1,0,0,response5disk,,3,-0.5703125,3.031738281,1,0,0,rectangle,-0.5703125,3.031738281,1,0,0,-0.5703125,3.031738281,1,0,0,0,12,12,156,1,,,,,,,,
,,,,,,,,,,,,,FF,,,,,,,,1.6369,,,,,,,,,,,,,,,,,,,,,,5ea2ac2e9a49751cf0dee644,60e56421b732a63ea707a209,2021-07-07_10h23.34.512,Simcolourproject_2stim_asymm_v5,2020.2.10,MacIntel,60,60e52e7cfedb1dae636df45f,,,,,,,,,712,52.02813721,-64.57794189,1,0,0,response3disk,,4,5.719848633,-4.495666504,1,0,0,rectangle,5.719848633,-4.495666504,1,0,0,5.719848633,-4.495666504,1,0,0,0,13,13,90,1,,,,,,,,
,,,,,,,,,,,,,FF,,,,,,,,0.9343,,,,,,,,,,,,,,,,,,,,,,5ea2ac2e9a49751cf0dee644,60e56421b732a63ea707a209,2021-07-07_10h23.34.512,Simcolourproject_2stim_asymm_v5,2020.2.10,MacIntel,60,60e52e7cfedb1dae636df45f,,,,,,,,,2597,84.40795898,39.43933105,1,0,0,response1disk,,6,2.602355957,5.335327148,1,0,0,rectangle,2.602355957,5.335327148,1,0,0,2.602355957,5.335327148,1,0,0,0,14,14,96,1,,,,,,,,
,,,,,,,,,,,,,FF,,,,,,,,0.9527,,,,,,,,,,,,,,,,,,,,,,5ea2ac2e9a49751cf0dee644,60e56421b732a63ea707a209,2021-07-07_10h23.34.512,Simcolourproject_2stim_asymm_v5,2020.2.10,MacIntel,60,60e52e7cfedb1dae636df45f,,,,,,,,,1220,-33.77990723,-66.53424072,1,0,0,response5disk,,3,-16.24200439,-15.61825562,1,0,0,rectangle,-16.24200439,-15.61825562,1,0,0,-16.24200439,-15.61825562,1,0,0,0,15,15,125,1,,,,,,,,
,,,,,,,,,,,,,FF,,,,,,,,0.8833,,,,,,,,,,,,,,,,,,,,,,5ea2ac2e9a49751cf0dee644,60e56421b732a63ea707a209,2021-07-07_10h23.34.512,Simcolourproject_2stim_asymm_v5,2020.2.10,MacIntel,60,60e52e7cfedb1dae636df45f,,,,,,,,,3458,55.50323486,89.64608765,1,0,0,response1disk,,7,2.849304199,9.691040039,1,0,0,rectangle,2.849304199,9.691040039,1,0,0,2.849304199,9.691040039,1,0,0,0,16,16,47,1,,,,,,,,
,,,,,,,,,,,,,FF,,,,,,,,0.9495,,,,,,,,,,,,,,,,,,,,,,5ea2ac2e9a49751cf0dee644,60e56421b732a63ea707a209,2021-07-07_10h23.34.512,Simcolourproject_2stim_asymm_v5,2020.2.10,MacIntel,60,60e52e7cfedb1dae636df45f,,,,,,,,,883,81.71960449,-24.56359863,1,0,0,response3disk,,5,12.02758789,2.349884033,1,0,0,rectangle,-27.65447998,-85.25946045,1,0,0,0.38482666,-6.22265625,1,0,0,0,17,17,78,1,,response5disk_3,TRUE,3,3,"[30,150,230,280,128,264,319,91,18,293,93,197,234,134,111,287,205,264,78,141]",1.7332,rectangle
,,,,,,,,,,,,,FF,,,,,,,,1.3669,,,,,,,,,,,,,,,,,,,,,,5ea2ac2e9a49751cf0dee644,60e56421b732a63ea707a209,2021-07-07_10h23.34.512,Simcolourproject_2stim_asymm_v5,2020.2.10,MacIntel,60,60e52e7cfedb1dae636df45f,,,,,,,,,316,91.91156006,46.88922119,1,0,0,response1disk,,6,-0.600341797,-0.958282471,1,0,0,rectangle,-0.600341797,-0.958282471,1,0,0,-0.600341797,-0.958282471,1,0,0,0,18,18,152,1,,,,,,,,
,,,,,,,,,,,,,FF,,,,,,,,0.8348,,,,,,,,,,,,,,,,,,,,,,5ea2ac2e9a49751cf0dee644,60e56421b732a63ea707a209,2021-07-07_10h23.34.512,Simcolourproject_2stim_asymm_v5,2020.2.10,MacIntel,60,60e52e7cfedb1dae636df45f,,,,,,,,,3860,55.56628418,-33.58181763,1,0,0,response3disk,,5,4.899719238,4.927429199,1,0,0,rectangle,4.899719238,4.927429199,1,0,0,4.899719238,4.927429199,1,0,0,0,19,19,43,1,,,,,,,,
,,,,,,,,,,,,,FF,,,,,,,,0.7006,,,,,,,,,,,,,,,,,,,,,,5ea2ac2e9a49751cf0dee644,60e56421b732a63ea707a209,2021-07-07_10h23.34.512,Simcolourproject_2stim_asymm_v5,2020.2.10,MacIntel,60,60e52e7cfedb1dae636df45f,,,,,,,,,4254,-37.7857666,-77.93267822,1,0,0,response5disk,,3,-28.41949463,-0.113464355,1,0,0,rectangle,-28.41949463,-0.113464355,1,0,0,-28.41949463,-0.113464355,1,0,0,0,20,20,72,1,,,,,,,,
,,,,,,,,,,,,,FF,,,,,,,,0.6511,,,,,,,,,,,,,,,,,,,,,,5ea2ac2e9a49751cf0dee644,60e56421b732a63ea707a209,2021-07-07_10h23.34.512,Simcolourproject_2stim_asymm_v5,2020.2.10,MacIntel,60,60e52e7cfedb1dae636df45f,,,,,,,,,492,97.76544189,48.14147949,1,0,0,response1disk,,6,-2.952941895,-2.633636475,1,0,0,rectangle,-2.952941895,-2.633636475,1,0,0,-2.952941895,-2.633636475,1,0,0,0,21,21,85,1,,,,,,,,
,,,,,,,,,,,,,FF,,,,,,,,0.7014,,,,,,,,,,,,,,,,,,,,,,5ea2ac2e9a49751cf0dee644,60e56421b732a63ea707a209,2021-07-07_10h23.34.512,Simcolourproject_2stim_asymm_v5,2020.2.10,MacIntel,60,60e52e7cfedb1dae636df45f,,,,,,,,,490,81.47747803,33.72271729,1,0,0,response1disk,,6,-8.356018066,-12.48052979,1,0,0,rectangle,-8.356018066,-12.48052979,1,0,0,-8.356018066,-12.48052979,1,0,0,0,22,22,23,1,,,,,,,,
,,,,,,,,,,,,,FF,,,,,,,,0.6836,,,,,,,,,,,,,,,,,,,,,,5ea2ac2e9a49751cf0dee644,60e56421b732a63ea707a209,2021-07-07_10h23.34.512,Simcolourproject_2stim_asymm_v5,2020.2.10,MacIntel,60,60e52e7cfedb1dae636df45f,,,,,,,,,2631,83.79412842,61.68786621,1,0,0,response1disk,,6,4.604919434,7.288238525,1,0,0,rectangle,4.604919434,7.288238525,1,0,0,4.604919434,7.288238525,1,0,0,0,23,23,133,1,,,,,,,,
,,,,,,,,,,,,,FF,,,,,,,,0.9496,,,,,,,,,,,,,,,,,,,,,,5ea2ac2e9a49751cf0dee644,60e56421b732a63ea707a209,2021-07-07_10h23.34.512,Simcolourproject_2stim_asymm_v5,2020.2.10,MacIntel,60,60e52e7cfedb1dae636df45f,,,,,,,,,1790,82.10253906,-26.10995483,1,0,0,response3disk,,5,6.080444336,-7.50201416,1,0,0,rectangle,6.080444336,-7.50201416,1,0,0,6.080444336,-7.50201416,1,0,0,0,24,24,84,1,,,,,,,,
,,,,,,,,,,,,,FF,,,,,,,,1.3501,,,,,,,,,,,,,,,,,,,,,,5ea2ac2e9a49751cf0dee644,60e56421b732a63ea707a209,2021-07-07_10h23.34.512,Simcolourproject_2stim_asymm_v5,2020.2.10,MacIntel,60,60e52e7cfedb1dae636df45f,,,,,,,,,58,78.61645508,-41.19381714,1,0,0,response3disk,,5,19.13659668,-4.066650391,1,0,0,rectangle,19.13659668,-4.066650391,1,0,0,19.13659668,-4.066650391,1,0,0,0,25,25,46,1,,,,,,,,
,,,,,,,,,,,,,FF,,,,,,,,1.3365,,,,,,,,,,,,,,,,,,,,,,5ea2ac2e9a49751cf0dee644,60e56421b732a63ea707a209,2021-07-07_10h23.34.512,Simcolourproject_2stim_asymm_v5,2020.2.10,MacIntel,60,60e52e7cfedb1dae636df45f,,,,,,,,,910,97.54382324,46.47454834,1,0,0,response1disk,,6,-1.166564941,-3.885894775,1,0,0,rectangle,-1.166564941,-3.885894775,1,0,0,-1.166564941,-3.885894775,1,0,0,0,26,26,106,1,,,,,,,,
,,,,,,,,,,,,,FF,,,,,,,,0.9834,,,,,,,,,,,,,,,,,,,,,,5ea2ac2e9a49751cf0dee644,60e56421b732a63ea707a209,2021-07-07_10h23.34.512,Simcolourproject_2stim_asymm_v5,2020.2.10,MacIntel,60,60e52e7cfedb1dae636df45f,,,,,,,,,3377,43.42956543,-68.48788452,1,0,0,response3disk,,4,-15.8862915,-5.164855957,1,0,0,rectangle,-15.8862915,-5.164855957,1,0,0,-15.8862915,-5.164855957,1,0,0,0,27,27,68,1,,,,,,,,
,,,,,,,,,,,,,FF,,,,,,,,0.7003,,,,,,,,,,,,,,,,,,,,,,5ea2ac2e9a49751cf0dee644,60e56421b732a63ea707a209,2021-07-07_10h23.34.512,Simcolourproject_2stim_asymm_v5,2020.2.10,MacIntel,60,60e52e7cfedb1dae636df45f,,,,,,,,,3957,78.02453613,64.45059204,1,0,0,response1disk,,6,0.821411133,1.655914307,1,0,0,rectangle,0.821411133,1.655914307,1,0,0,0.821411133,1.655914307,1,0,0,0,28,28,109,1,,,,,,,,
,,,,,,,,,,,,,FF,,,,,,,,0.6496,,,,,,,,,,,,,,,,,,,,,,5ea2ac2e9a49751cf0dee644,60e56421b732a63ea707a209,2021-07-07_10h23.34.512,Simcolourproject_2stim_asymm_v5,2020.2.10,MacIntel,60,60e52e7cfedb1dae636df45f,,,,,,,,,2406,81.82165527,33.69903564,1,0,0,response1disk,,6,14.65704346,11.05389404,1,0,0,rectangle,-28.57684326,73.19519043,1,0,0,-9.707580566,9.732940674,1,0,0,0,29,29,81,1,,response7disk_3,TRUE,0,0,"[30,150,230,280,128,264,319,91,18,293,93,197,234,134,111,287,205,264,78,141]",1.5517,rectangle
,,,,,,,,,,,,,FF,,,,,,,,0.9172,,,,,,,,,,,,,,,,,,,,,,5ea2ac2e9a49751cf0dee644,60e56421b732a63ea707a209,2021-07-07_10h23.34.512,Simcolourproject_2stim_asymm_v5,2020.2.10,MacIntel,60,60e52e7cfedb1dae636df45f,,,,,,,,,3866,34.14099121,79.07281494,1,0,0,response1disk,,7,-2.28326416,0.175231934,1,0,0,rectangle,-2.28326416,0.175231934,1,0,0,-2.28326416,0.175231934,1,0,0,0,30,30,88,1,,,,,,,,
,,,,,,,,,,,,,FF,,,,,,,,1.1358,,,,,,,,,,,,,,,,,,,,,,5ea2ac2e9a49751cf0dee644,60e56421b732a63ea707a209,2021-07-07_10h23.34.512,Simcolourproject_2stim_asymm_v5,2020.2.10,MacIntel,60,60e52e7cfedb1dae636df45f,,,,,,,,,2108,20.00390625,-79.5012207,1,0,0,response3disk,,4,1.963928223,-6.978637695,1,0,0,rectangle,1.963928223,-6.978637695,1,0,0,1.963928223,-6.978637695,1,0,0,0,31,31,122,1,,,,,,,,
,,,,,,,,,,,,,FF,,,,,,,,0.7677,,,,,,,,,,,,,,,,,,,,,,5ea2ac2e9a49751cf0dee644,60e56421b732a63ea707a209,2021-07-07_10h23.34.512,Simcolourproject_2stim_asymm_v5,2020.2.10,MacIntel,60,60e52e7cfedb1dae636df45f,,,,,,,,,816,30.91564941,-70.86242676,1,0,0,response3disk,,4,-6.125610352,1.175231934,1,0,0,rectangle,-6.125610352,1.175231934,1,0,0,-6.125610352,1.175231934,1,0,0,0,32,32,26,1,,,,,,,,
,,,,,,,,,,,,,FF,,,,,,,,0.9349,,,,,,,,,,,,,,,,,,,,,,5ea2ac2e9a49751cf0dee644,60e56421b732a63ea707a209,2021-07-07_10h23.34.512,Simcolourproject_2stim_asymm_v5,2020.2.10,MacIntel,60,60e52e7cfedb1dae636df45f,,,,,,,,,1134,-74.88031006,-27.1953125,1,0,0,response5disk,,2,-3.173339844,-2.062561035,1,0,0,rectangle,-3.173339844,-2.062561035,1,0,0,-3.173339844,-2.062561035,1,0,0,0,33,33,59,1,,,,,,,,
,,,,,,,,,,,,,FF,,,,,,,,0.8008,,,,,,,,,,,,,,,,,,,,,,5ea2ac2e9a49751cf0dee644,60e56421b732a63ea707a209,2021-07-07_10h23.34.512,Simcolourproject_2stim_asymm_v5,2020.2.10,MacIntel,60,60e52e7cfedb1dae636df45f,,,,,,,,,3239,-29.27539063,-98.140625,1,0,0,response5disk,,3,1.583679199,2.390716553,1,0,0,rectangle,1.583679199,2.390716553,1,0,0,1.583679199,2.390716553,1,0,0,0,34,34,97,1,,,,,,,,
,,,,,,,,,,,,,FF,,,,,,,,0.9504,,,,,,,,,,,,,,,,,,,,,,5ea2ac2e9a49751cf0dee644,60e56421b732a63ea707a209,2021-07-07_10h23.34.512,Simcolourproject_2stim_asymm_v5,2020.2.10,MacIntel,60,60e52e7cfedb1dae636df45f,,,,,,,,,1335,87.50256348,42.2901001,1,0,0,response1disk,,6,11.05273438,12.48971558,1,0,0,rectangle,11.05273438,12.48971558,1,0,0,11.05273438,12.48971558,1,0,0,0,35,35,100,1,,,,,,,,
,,,,,,,,,,,,,FF,,,,,,,,1.268,,,,,,,,,,,,,,,,,,,,,,5ea2ac2e9a49751cf0dee644,60e56421b732a63ea707a209,2021-07-07_10h23.34.512,Simcolourproject_2stim_asymm_v5,2020.2.10,MacIntel,60,60e52e7cfedb1dae636df45f,,,,,,,,,1407,87.44488525,16.95043945,1,0,0,response1disk,,6,2.07611084,4.979431152,1,0,0,rectangle,2.07611084,4.979431152,1,0,0,2.07611084,4.979431152,1,0,0,0,36,36,2,1,,,,,,,,
,,,,,,,,,,,,,FF,,,,,,,,0.6849,,,,,,,,,,,,,,,,,,,,,,5ea2ac2e9a49751cf0dee644,60e56421b732a63ea707a209,2021-07-07_10h23.34.512,Simcolourproject_2stim_asymm_v5,2020.2.10,MacIntel,60,60e52e7cfedb1dae636df45f,,,,,,,,,2498,83.76672363,30.85119629,1,0,0,response1disk,,6,-3.054931641,-6.40234375,1,0,0,rectangle,-3.054931641,-6.40234375,1,0,0,-3.054931641,-6.40234375,1,0,0,0,37,37,126,1,,,,,,,,
,,,,,,,,,,,,,FF,,,,,,,,0.7829,,,,,,,,,,,,,,,,,,,,,,5ea2ac2e9a49751cf0dee644,60e56421b732a63ea707a209,2021-07-07_10h23.34.512,Simcolourproject_2stim_asymm_v5,2020.2.10,MacIntel,60,60e52e7cfedb1dae636df45f,,,,,,,,,231,92.46582031,42.78985596,1,0,0,response1disk,,6,-2.868896484,1.459228516,1,0,0,rectangle,-2.868896484,1.459228516,1,0,0,-2.868896484,1.459228516,1,0,0,0,38,38,129,1,,,,,,,,
,,,,,,,,,,,,,FF,,,,,,,,0.8166,,,,,,,,,,,,,,,,,,,,,,5ea2ac2e9a49751cf0dee644,60e56421b732a63ea707a209,2021-07-07_10h23.34.512,Simcolourproject_2stim_asymm_v5,2020.2.10,MacIntel,60,60e52e7cfedb1dae636df45f,,,,,,,,,110,28.7354126,-90.33441162,1,0,0,response3disk,,4,-3.877319336,3.138519287,1,0,0,rectangle,-3.877319336,3.138519287,1,0,0,-3.877319336,3.138519287,1,0,0,0,39,39,64,1,,,,,,,,
,,,,,,,,,,,,,FF,,,,,,,,0.8664,,,,,,,,,,,,,,,,,,,,,,5ea2ac2e9a49751cf0dee644,60e56421b732a63ea707a209,2021-07-07_10h23.34.512,Simcolourproject_2stim_asymm_v5,2020.2.10,MacIntel,60,60e52e7cfedb1dae636df45f,,,,,,,,,60,14.30737305,-84.88195801,1,0,0,response3disk,,4,-9.60333252,3.304412842,1,0,0,rectangle,-9.60333252,3.304412842,1,0,0,-9.60333252,3.304412842,1,0,0,0,40,40,115,1,,,,,,,,
,,,,,,,,,,,,,FF,,,,,,,,0.7674,,,,,,,,,,,,,,,,,,,,,,5ea2ac2e9a49751cf0dee644,60e56421b732a63ea707a209,2021-07-07_10h23.34.512,Simcolourproject_2stim_asymm_v5,2020.2.10,MacIntel,60,60e52e7cfedb1dae636df45f,,,,,,,,,278,-70.81005859,-16.06216431,1,0,0,response5disk,,2,-5.900634766,-9.66595459,1,0,0,rectangle,-5.900634766,-9.66595459,1,0,0,-5.900634766,-9.66595459,1,0,0,0,41,41,95,1,,,,,,,,
,,,,,,,,,,,,,FF,,,,,,,,1.0004,,,,,,,,,,,,,,,,,,,,,,5ea2ac2e9a49751cf0dee644,60e56421b732a63ea707a209,2021-07-07_10h23.34.512,Simcolourproject_2stim_asymm_v5,2020.2.10,MacIntel,60,60e52e7cfedb1dae636df45f,,,,,,,,,627,59.89538574,-51.46673584,1,0,0,response3disk,,5,-4.912658691,-3.149963379,1,0,0,rectangle,-4.912658691,-3.149963379,1,0,0,-4.912658691,-3.149963379,1,0,0,0,42,42,66,1,,,,,,,,
,,,,,,,,,,,,,FF,,,,,,,,1.3333,,,,,,,,,,,,,,,,,,,,,,5ea2ac2e9a49751cf0dee644,60e56421b732a63ea707a209,2021-07-07_10h23.34.512,Simcolourproject_2stim_asymm_v5,2020.2.10,MacIntel,60,60e52e7cfedb1dae636df45f,,,,,,,,,1140,81.69262695,-28.25131226,1,0,0,response3disk,,5,5.762145996,-0.856964111,1,0,0,rectangle,5.762145996,-0.856964111,1,0,0,5.762145996,-0.856964111,1,0,0,0,43,43,99,1,,,,,,,,
,,,,,,,,,,,,,FF,,,,,,,,0.7664,,,,,,,,,,,,,,,,,,,,,,5ea2ac2e9a49751cf0dee644,60e56421b732a63ea707a209,2021-07-07_10h23.34.512,Simcolourproject_2stim_asymm_v5,2020.2.10,MacIntel,60,60e52e7cfedb1dae636df45f,,,,,,,,,4276,26.40460205,-65.54614258,1,0,0,response3disk,,4,-3.871582031,-1.070922852,1,0,0,rectangle,-3.871582031,-1.070922852,1,0,0,-3.871582031,-1.070922852,1,0,0,0,44,44,112,1,,,,,,,,
,,,,,,,,,,,,,FF,,,,,,,,0.8834,,,,,,,,,,,,,,,,,,,,,,5ea2ac2e9a49751cf0dee644,60e56421b732a63ea707a209,2021-07-07_10h23.34.512,Simcolourproject_2stim_asymm_v5,2020.2.10,MacIntel,60,60e52e7cfedb1dae636df45f,,,,,,,,,1619,34.62042236,-76.1149292,1,0,0,response3disk,,4,-1.371887207,-1.960266113,1,0,0,rectangle,-1.371887207,-1.960266113,1,0,0,-1.371887207,-1.960266113,1,0,0,0,45,45,136,1,,,,,,,,
,,,,,,,,,,,,,FF,,,,,,,,0.75,,,,,,,,,,,,,,,,,,,,,,5ea2ac2e9a49751cf0dee644,60e56421b732a63ea707a209,2021-07-07_10h23.34.512,Simcolourproject_2stim_asymm_v5,2020.2.10,MacIntel,60,60e52e7cfedb1dae636df45f,,,,,,,,,3914,-26.93096924,-62.70547485,1,0,0,response5disk,,3,16.29229736,2.747558594,1,0,0,rectangle,16.29229736,2.747558594,1,0,0,16.29229736,2.747558594,1,0,0,0,46,46,94,1,,,,,,,,
,,,,,,,,,,,,,FF,,,,,,,,0.7178,,,,,,,,,,,,,,,,,,,,,,5ea2ac2e9a49751cf0dee644,60e56421b732a63ea707a209,2021-07-07_10h23.34.512,Simcolourproject_2stim_asymm_v5,2020.2.10,MacIntel,60,60e52e7cfedb1dae636df45f,,,,,,,,,2563,93.18548584,-33.88031006,1,0,0,response3disk,,5,2.313354492,6.442260742,1,0,0,rectangle,2.313354492,6.442260742,1,0,0,2.313354492,6.442260742,1,0,0,0,47,47,15,1,,,,,,,,
,,,,,,,,,,,,,FF,,,,,,,,0.767,,,,,,,,,,,,,,,,,,,,,,5ea2ac2e9a49751cf0dee644,60e56421b732a63ea707a209,2021-07-07_10h23.34.512,Simcolourproject_2stim_asymm_v5,2020.2.10,MacIntel,60,60e52e7cfedb1dae636df45f,,,,,,,,,312,89.20617676,-17.32684326,1,0,0,response3disk,,5,-6.239685059,4.843536377,1,0,0,rectangle,-6.239685059,4.843536377,1,0,0,-6.239685059,4.843536377,1,0,0,0,48,48,105,1,,,,,,,,
,,,,,,,,,,,,,FF,,,,,,,,1.0009,,,,,,,,,,,,,,,,,,,,,,5ea2ac2e9a49751cf0dee644,60e56421b732a63ea707a209,2021-07-07_10h23.34.512,Simcolourproject_2stim_asymm_v5,2020.2.10,MacIntel,60,60e52e7cfedb1dae636df45f,,,,,,,,,1167,84.59783936,46.04541016,1,0,0,response1disk,,6,-1.081176758,2.312805176,1,0,0,rectangle,-1.081176758,2.312805176,1,0,0,-1.081176758,2.312805176,1,0,0,0,49,49,86,1,,,,,,,,
,,,,,,,,,,,,,FF,,,,,,,,0.9382,,,,,,,,,,,,,,,,,,,,,,5ea2ac2e9a49751cf0dee644,60e56421b732a63ea707a209,2021-07-07_10h23.34.512,Simcolourproject_2stim_asymm_v5,2020.2.10,MacIntel,60,60e52e7cfedb1dae636df45f,,,,,,,,,501,105.5617065,31.49853516,1,0,0,response1disk,,6,-22.06988525,5.620635986,1,0,0,rectangle,-22.06988525,5.620635986,1,0,0,-22.06988525,5.620635986,1,0,0,0,50,50,76,1,,,,,,,,
,,,,,,,,,,,,,FF,,,,,,,,1.0187,,,,,,,,,,,,,,,,,,,,,,5ea2ac2e9a49751cf0dee644,60e56421b732a63ea707a209,2021-07-07_10h23.34.512,Simcolourproject_2stim_asymm_v5,2020.2.10,MacIntel,60,60e52e7cfedb1dae636df45f,,,,,,,,,2301,-78.66796875,-37.59686279,1,0,0,response5disk,,2,-11.63549805,-2.436798096,1,0,0,rectangle,-11.63549805,-2.436798096,1,0,0,-11.63549805,-2.436798096,1,0,0,0,51,51,92,1,,,,,,,,
,,,,,,,,,,,,,FF,,,,,,,,0.7673,,,,,,,,,,,,,,,,,,,,,,5ea2ac2e9a49751cf0dee644,60e56421b732a63ea707a209,2021-07-07_10h23.34.512,Simcolourproject_2stim_asymm_v5,2020.2.10,MacIntel,60,60e52e7cfedb1dae636df45f,,,,,,,,,721,-36.75878906,-64.71463013,1,0,0,response5disk,,3,-2.535583496,8.811920166,1,0,0,rectangle,-2.535583496,8.811920166,1,0,0,-2.535583496,8.811920166,1,0,0,0,52,52,157,1,,,,,,,,
,,,,,,,,,,,,,FF,,,,,,,,1.1183,,,,,,,,,,,,,,,,,,,,,,5ea2ac2e9a49751cf0dee644,60e56421b732a63ea707a209,2021-07-07_10h23.34.512,Simcolourproject_2stim_asymm_v5,2020.2.10,MacIntel,60,60e52e7cfedb1dae636df45f,,,,,,,,,1651,72.33612061,-47.60009766,1,0,0,response3disk,,5,5.142089844,-5.505859375,1,0,0,rectangle,5.142089844,-5.505859375,1,0,0,5.142089844,-5.505859375,1,0,0,0,53,53,36,1,,,,,,,,
,,,,,,,,,,,,,FF,,,,,,,,0.9004,,,,,,,,,,,,,,,,,,,,,,5ea2ac2e9a49751cf0dee644,60e56421b732a63ea707a209,2021-07-07_10h23.34.512,Simcolourproject_2stim_asymm_v5,2020.2.10,MacIntel,60,60e52e7cfedb1dae636df45f,,,,,,,,,136,98.1496582,-32.54412842,1,0,0,response3disk,,5,3.439575195,-3.557891846,1,0,0,rectangle,3.439575195,-3.557891846,1,0,0,3.439575195,-3.557891846,1,0,0,0,54,54,154,1,,,,,,,,
,,,,,,,,,,,,,FF,,,,,,,,0.9834,,,,,,,,,,,,,,,,,,,,,,5ea2ac2e9a49751cf0dee644,60e56421b732a63ea707a209,2021-07-07_10h23.34.512,Simcolourproject_2stim_asymm_v5,2020.2.10,MacIntel,60,60e52e7cfedb1dae636df45f,,,,,,,,,614,-45.95355225,-72.20947266,1,0,0,response5disk,,3,4.882019043,8.463806152,1,0,0,rectangle,4.882019043,8.463806152,1,0,0,4.882019043,8.463806152,1,0,0,0,55,55,51,1,,,,,,,,
,,,,,,,,,,,,,FF,,,,,,,,1.3722,,,,,,,,,,,,,,,,,,,,,,5ea2ac2e9a49751cf0dee644,60e56421b732a63ea707a209,2021-07-07_10h23.34.512,Simcolourproject_2stim_asymm_v5,2020.2.10,MacIntel,60,60e52e7cfedb1dae636df45f,,,,,,,,,4330,98.95404053,67.74835205,1,0,0,response1disk,,6,-6.779724121,3.591674805,1,0,0,rectangle,-6.779724121,3.591674805,1,0,0,-6.779724121,3.591674805,1,0,0,0,56,56,45,1,,,,,,,,
,,,,,,,,,,,,,FF,,,,,,,,0.7152,,,,,,,,,,,,,,,,,,,,,,5ea2ac2e9a49751cf0dee644,60e56421b732a63ea707a209,2021-07-07_10h23.34.512,Simcolourproject_2stim_asymm_v5,2020.2.10,MacIntel,60,60e52e7cfedb1dae636df45f,,,,,,,,,7,-43.09295654,-60.86035156,1,0,0,response5disk,,3,0.130859375,9.105773926,1,0,0,rectangle,0.130859375,9.105773926,1,0,0,0.130859375,9.105773926,1,0,0,0,57,57,130,1,,,,,,,,
,,,,,,,,,,,,,FF,,,,,,,,0.8996,,,,,,,,,,,,,,,,,,,,,,5ea2ac2e9a49751cf0dee644,60e56421b732a63ea707a209,2021-07-07_10h23.34.512,Simcolourproject_2stim_asymm_v5,2020.2.10,MacIntel,60,60e52e7cfedb1dae636df45f,,,,,,,,,2687,80.94812012,19.95080566,1,0,0,response1disk,,6,-1.62701416,1.936523438,1,0,0,rectangle,-1.62701416,1.936523438,1,0,0,-1.62701416,1.936523438,1,0,0,0,58,58,89,1,,,,,,,,
,,,,,,,,,,,,,FF,,,,,,,,0.8843,,,,,,,,,,,,,,,,,,,,,,5ea2ac2e9a49751cf0dee644,60e56421b732a63ea707a209,2021-07-07_10h23.34.512,Simcolourproject_2stim_asymm_v5,2020.2.10,MacIntel,60,60e52e7cfedb1dae636df45f,,,,,,,,,3807,88.28833008,38.56396484,1,0,0,response1disk,,6,0.143859863,-0.882904053,1,0,0,rectangle,0.143859863,-0.882904053,1,0,0,0.143859863,-0.882904053,1,0,0,0,59,59,49,1,,,,,,,,
,,,,,,,,,,,,,FF,,,,,,,,0.8366,,,,,,,,,,,,,,,,,,,,,,5ea2ac2e9a49751cf0dee644,60e56421b732a63ea707a209,2021-07-07_10h23.34.512,Simcolourproject_2stim_asymm_v5,2020.2.10,MacIntel,60,60e52e7cfedb1dae636df45f,,,,,,,,,502,81.29498291,28.95690918,1,0,0,response1disk,,6,-2.366088867,-10.7756958,1,0,0,rectangle,-2.366088867,-10.7756958,1,0,0,-2.366088867,-10.7756958,1,0,0,0,60,60,7,1,,,,,,,,
,,,,,,,,,,,,,FF,,,,,,,,0.9999,,,,,,,,,,,,,,,,,,,,,,5ea2ac2e9a49751cf0dee644,60e56421b732a63ea707a209,2021-07-07_10h23.34.512,Simcolourproject_2stim_asymm_v5,2020.2.10,MacIntel,60,60e52e7cfedb1dae636df45f,,,,,,,,,3894,93.30957031,24.57806396,1,0,0,response1disk,,6,10.81066895,4.296508789,1,0,0,rectangle,10.81066895,4.296508789,1,0,0,10.81066895,4.296508789,1,0,0,0,61,61,48,1,,,,,,,,
,,,,,,,,,,,,,FF,,,,,,,,0.8004,,,,,,,,,,,,,,,,,,,,,,5ea2ac2e9a49751cf0dee644,60e56421b732a63ea707a209,2021-07-07_10h23.34.512,Simcolourproject_2stim_asymm_v5,2020.2.10,MacIntel,60,60e52e7cfedb1dae636df45f,,,,,,,,,886,-61.76196289,45.4760437,1,0,0,response7disk,,1,-7.807067871,11.76187134,1,0,0,rectangle,-7.807067871,11.76187134,1,0,0,-7.807067871,11.76187134,1,0,0,0,62,62,69,1,,,,,,,,
,,,,,,,,,,,,,FF,,,,,,,,0.6842,,,,,,,,,,,,,,,,,,,,,,5ea2ac2e9a49751cf0dee644,60e56421b732a63ea707a209,2021-07-07_10h23.34.512,Simcolourproject_2stim_asymm_v5,2020.2.10,MacIntel,60,60e52e7cfedb1dae636df45f,,,,,,,,,1961,-86.79547119,34.24627686,1,0,0,response7disk,,1,-14.72052002,2.734436035,1,0,0,rectangle,-14.72052002,2.734436035,1,0,0,-14.72052002,2.734436035,1,0,0,0,63,63,113,1,,,,,,,,
,,,,,,,,,,,,,FF,,,,,,,,1.3024,,,,,,,,,,,,,,,,,,,,,,5ea2ac2e9a49751cf0dee644,60e56421b732a63ea707a209,2021-07-07_10h23.34.512,Simcolourproject_2stim_asymm_v5,2020.2.10,MacIntel,60,60e52e7cfedb1dae636df45f,,,,,,,,,1799,52.33929443,-84.42047119,1,0,0,response3disk,,4,2.474121094,-6.661987305,1,0,0,rectangle,2.474121094,-6.661987305,1,0,0,2.474121094,-6.661987305,1,0,0,0,64,64,54,1,,,,,,,,
,,,,,,,,,,,,,FF,,,,,,,,0.8003,,,,,,,,,,,,,,,,,,,,,,5ea2ac2e9a49751cf0dee644,60e56421b732a63ea707a209,2021-07-07_10h23.34.512,Simcolourproject_2stim_asymm_v5,2020.2.10,MacIntel,60,60e52e7cfedb1dae636df45f,,,,,,,,,3283,-64.37719727,21.96221924,1,0,0,response7disk,,1,-7.47442627,-0.249481201,1,0,0,rectangle,-7.47442627,-0.249481201,1,0,0,-7.47442627,-0.249481201,1,0,0,0,65,65,143,1,,,,,,,,
,,,,,,,,,,,,,FF,,,,,,,,0.8505,,,,,,,,,,,,,,,,,,,,,,5ea2ac2e9a49751cf0dee644,60e56421b732a63ea707a209,2021-07-07_10h23.34.512,Simcolourproject_2stim_asymm_v5,2020.2.10,MacIntel,60,60e52e7cfedb1dae636df45f,,,,,,,,,636,-39.45007324,-60.9012146,1,0,0,response5disk,,3,-3.190917969,-6.517120361,1,0,0,rectangle,-3.190917969,-6.517120361,1,0,0,-3.190917969,-6.517120361,1,0,0,0,66,66,137,1,,,,,,,,
,,,,,,,,,,,,,FF,,,,,,,,0.883,,,,,,,,,,,,,,,,,,,,,,5ea2ac2e9a49751cf0dee644,60e56421b732a63ea707a209,2021-07-07_10h23.34.512,Simcolourproject_2stim_asymm_v5,2020.2.10,MacIntel,60,60e52e7cfedb1dae636df45f,,,,,,,,,437,-49.06921387,-72.01074219,1,0,0,response5disk,,3,-0.531982422,1.536010742,1,0,0,rectangle,-0.531982422,1.536010742,1,0,0,-0.531982422,1.536010742,1,0,0,0,67,67,58,1,,,,,,,,
,,,,,,,,,,,,,FF,,,,,,,,0.7484,,,,,,,,,,,,,,,,,,,,,,5ea2ac2e9a49751cf0dee644,60e56421b732a63ea707a209,2021-07-07_10h23.34.512,Simcolourproject_2stim_asymm_v5,2020.2.10,MacIntel,60,60e52e7cfedb1dae636df45f,,,,,,,,,3936,-19.94915771,87.3793335,1,0,0,response7disk,,0,4.298461914,10.02584839,1,0,0,rectangle,4.298461914,10.02584839,1,0,0,4.298461914,10.02584839,1,0,0,0,68,68,24,1,,,,,,,,
,,,,,,,,,,,,,FF,,,,,,,,0.7676,,,,,,,,,,,,,,,,,,,,,,5ea2ac2e9a49751cf0dee644,60e56421b732a63ea707a209,2021-07-07_10h23.34.512,Simcolourproject_2stim_asymm_v5,2020.2.10,MacIntel,60,60e52e7cfedb1dae636df45f,,,,,,,,,2691,58.27642822,-74.03625488,1,0,0,response3disk,,4,5.016723633,-1.149169922,1,0,0,rectangle,5.016723633,-1.149169922,1,0,0,5.016723633,-1.149169922,1,0,0,0,69,69,37,1,,,,,,,,
,,,,,,,,,,,,,FF,,,,,,,,1.0884,,,,,,,,,,,,,,,,,,,,,,5ea2ac2e9a49751cf0dee644,60e56421b732a63ea707a209,2021-07-07_10h23.34.512,Simcolourproject_2stim_asymm_v5,2020.2.10,MacIntel,60,60e52e7cfedb1dae636df45f,,,,,,,,,3908,-91.74060059,-31.23251343,1,0,0,response5disk,,2,4.963623047,4.664154053,1,0,0,rectangle,4.963623047,4.664154053,1,0,0,4.963623047,4.664154053,1,0,0,0,70,70,61,1,,,,,,,,
,,,,,,,,,,,,,FF,,,,,,,,0.7337,,,,,,,,,,,,,,,,,,,,,,5ea2ac2e9a49751cf0dee644,60e56421b732a63ea707a209,2021-07-07_10h23.34.512,Simcolourproject_2stim_asymm_v5,2020.2.10,MacIntel,60,60e52e7cfedb1dae636df45f,,,,,,,,,3189,-38.51940918,-78.34317017,1,0,0,response5disk,,3,-1.42364502,0.582305908,1,0,0,rectangle,-1.42364502,0.582305908,1,0,0,-1.42364502,0.582305908,1,0,0,0,71,71,91,1,,,,,,,,
,,,,,,,,,,,,,FF,,,,,,,,0.8342,,,,,,,,,,,,,,,,,,,,,,5ea2ac2e9a49751cf0dee644,60e56421b732a63ea707a209,2021-07-07_10h23.34.512,Simcolourproject_2stim_asymm_v5,2020.2.10,MacIntel,60,60e52e7cfedb1dae636df45f,,,,,,,,,1871,67.34069824,-38.00274658,1,0,0,response3disk,,5,11.04815674,-6.651855469,1,0,0,rectangle,11.04815674,-6.651855469,1,0,0,11.04815674,-6.651855469,1,0,0,0,72,72,5,1,,,,,,,,
,,,,,,,,,,,,,FF,,,,,,,,0.916,,,,,,,,,,,,,,,,,,,,,,5ea2ac2e9a49751cf0dee644,60e56421b732a63ea707a209,2021-07-07_10h23.34.512,Simcolourproject_2stim_asymm_v5,2020.2.10,MacIntel,60,60e52e7cfedb1dae636df45f,,,,,,,,,3568,92.34112549,-48.96295166,1,0,0,response3disk,,5,-0.394958496,-6.382385254,1,0,0,rectangle,-0.394958496,-6.382385254,1,0,0,-0.394958496,-6.382385254,1,0,0,0,73,73,150,1,,,,,,,,
,,,,,,,,,,,,,FF,,,,,,,,0.9836,,,,,,,,,,,,,,,,,,,,,,5ea2ac2e9a49751cf0dee644,60e56421b732a63ea707a209,2021-07-07_10h23.34.512,Simcolourproject_2stim_asymm_v5,2020.2.10,MacIntel,60,60e52e7cfedb1dae636df45f,,,,,,,,,2977,90.3996582,-33.13238525,1,0,0,response3disk,,5,-9.908203125,3.191650391,1,0,0,rectangle,-9.908203125,3.191650391,1,0,0,-9.908203125,3.191650391,1,0,0,0,74,74,44,1,,,,,,,,
,,,,,,,,,,,,,FF,,,,,,,,1.4031,,,,,,,,,,,,,,,,,,,,,,5ea2ac2e9a49751cf0dee644,60e56421b732a63ea707a209,2021-07-07_10h23.34.512,Simcolourproject_2stim_asymm_v5,2020.2.10,MacIntel,60,60e52e7cfedb1dae636df45f,,,,,,,,,4317,-27.14624023,-60.58496094,1,0,0,response5disk,,3,3.375976563,0.184387207,1,0,0,rectangle,3.375976563,0.184387207,1,0,0,3.375976563,0.184387207,1,0,0,0,75,75,30,1,,,,,,,,
,,,,,,,,,,,,,FF,,,,,,,,0.7501,,,,,,,,,,,,,,,,,,,,,,5ea2ac2e9a49751cf0dee644,60e56421b732a63ea707a209,2021-07-07_10h23.34.512,Simcolourproject_2stim_asymm_v5,2020.2.10,MacIntel,60,60e52e7cfedb1dae636df45f,,,,,,,,,3896,72.2902832,-33.34472656,1,0,0,response3disk,,5,3.002563477,4.350402832,1,0,0,rectangle,3.002563477,4.350402832,1,0,0,3.002563477,4.350402832,1,0,0,0,76,76,120,1,,,,,,,,
,,,,,,,,,,,,,FF,,,,,,,,1.0003,,,,,,,,,,,,,,,,,,,,,,5ea2ac2e9a49751cf0dee644,60e56421b732a63ea707a209,2021-07-07_10h23.34.512,Simcolourproject_2stim_asymm_v5,2020.2.10,MacIntel,60,60e52e7cfedb1dae636df45f,,,,,,,,,915,87.36627197,-40.58581543,1,0,0,response3disk,,5,-8.290222168,2.769622803,1,0,0,rectangle,-67.20324707,-23.44830322,1,0,0,8.861022949,11.69729614,1,0,0,0,77,77,101,1,,response5disk_3,TRUE,2,2,"[30,150,230,280,128,264,319,91,18,293,93,197,234,134,111,287,205,264,78,141]",1.8173,rectangle
,,,,,,,,,,,,,FF,,,,,,,,1.3003,,,,,,,,,,,,,,,,,,,,,,5ea2ac2e9a49751cf0dee644,60e56421b732a63ea707a209,2021-07-07_10h23.34.512,Simcolourproject_2stim_asymm_v5,2020.2.10,MacIntel,60,60e52e7cfedb1dae636df45f,,,,,,,,,3629,44.57720947,35.29092407,1,0,0,response1disk,,6,-15.10980225,-12.4354248,1,0,0,rectangle,-15.10980225,-12.4354248,1,0,0,-15.10980225,-12.4354248,1,0,0,0,78,78,3,1,,,,,,,,
,,,,,,,,,,,,,FF,,,,,,,,0.8826,,,,,,,,,,,,,,,,,,,,,,5ea2ac2e9a49751cf0dee644,60e56421b732a63ea707a209,2021-07-07_10h23.34.512,Simcolourproject_2stim_asymm_v5,2020.2.10,MacIntel,60,60e52e7cfedb1dae636df45f,,,,,,,,,1374,-20.65307617,-88.02783203,1,0,0,response5disk,,3,-5.467407227,-8.044799805,1,0,0,rectangle,-5.467407227,-8.044799805,1,0,0,-5.467407227,-8.044799805,1,0,0,0,79,79,38,1,,,,,,,,
,,,,,,,,,,,,,FF,,,,,,,,0.55,,,,,,,,,,,,,,,,,,,,,,5ea2ac2e9a49751cf0dee644,60e56421b732a63ea707a209,2021-07-07_10h23.34.512,Simcolourproject_2stim_asymm_v5,2020.2.10,MacIntel,60,60e52e7cfedb1dae636df45f,,,,,,,,,633,-42.86035156,-81.09710693,1,0,0,response5disk,,3,15.72271729,5.878173828,1,0,0,rectangle,15.72271729,5.878173828,1,0,0,15.72271729,5.878173828,1,0,0,0,80,80,144,1,,,,,,,,
,,,,,,,,,,,,,FF,,,,,,,,0.7161,,,,,,,,,,,,,,,,,,,,,,5ea2ac2e9a49751cf0dee644,60e56421b732a63ea707a209,2021-07-07_10h23.34.512,Simcolourproject_2stim_asymm_v5,2020.2.10,MacIntel,60,60e52e7cfedb1dae636df45f,,,,,,,,,875,61.53735352,-26.57366943,1,0,0,response3disk,,5,20.30865479,-4.361663818,1,0,0,rectangle,20.30865479,-4.361663818,1,0,0,20.30865479,-4.361663818,1,0,0,0,81,81,50,1,,,,,,,,
,,,,,,,,,,,,,FF,,,,,,,,0.4835,,,,,,,,,,,,,,,,,,,,,,5ea2ac2e9a49751cf0dee644,60e56421b732a63ea707a209,2021-07-07_10h23.34.512,Simcolourproject_2stim_asymm_v5,2020.2.10,MacIntel,60,60e52e7cfedb1dae636df45f,,,,,,,,,2150,65.78161621,-37.78143311,1,0,0,response3disk,,5,4.255371094,-1.644775391,1,0,0,rectangle,4.255371094,-1.644775391,1,0,0,4.255371094,-1.644775391,1,0,0,0,82,82,60,1,,,,,,,,
,,,,,,,,,,,,,FF,,,,,,,,0.8,,,,,,,,,,,,,,,,,,,,,,5ea2ac2e9a49751cf0dee644,60e56421b732a63ea707a209,2021-07-07_10h23.34.512,Simcolourproject_2stim_asymm_v5,2020.2.10,MacIntel,60,60e52e7cfedb1dae636df45f,,,,,,,,,2539,55.08081055,20.39306641,1,0,0,response1disk,,6,-7.968933105,-6.544494629,1,0,0,rectangle,-7.968933105,-6.544494629,1,0,0,-7.968933105,-6.544494629,1,0,0,0,83,83,128,1,,,,,,,,
,,,,,,,,,,,,,FF,,,,,,,,1.2507,,,,,,,,,,,,,,,,,,,,,,5ea2ac2e9a49751cf0dee644,60e56421b732a63ea707a209,2021-07-07_10h23.34.512,Simcolourproject_2stim_asymm_v5,2020.2.10,MacIntel,60,60e52e7cfedb1dae636df45f,,,,,,,,,1968,-33.42126465,-77.65341187,1,0,0,response5disk,,3,0.666442871,6.012268066,1,0,0,rectangle,0.666442871,6.012268066,1,0,0,0.666442871,6.012268066,1,0,0,0,84,84,151,1,,,,,,,,
,,,,,,,,,,,,,FF,,,,,,,,0.6999,,,,,,,,,,,,,,,,,,,,,,5ea2ac2e9a49751cf0dee644,60e56421b732a63ea707a209,2021-07-07_10h23.34.512,Simcolourproject_2stim_asymm_v5,2020.2.10,MacIntel,60,60e52e7cfedb1dae636df45f,,,,,,,,,3551,-29.324646,73.76708984,1,0,0,response7disk,,0,6.390441895,1.791625977,1,0,0,rectangle,6.390441895,1.791625977,1,0,0,6.390441895,1.791625977,1,0,0,0,85,85,39,1,,,,,,,,
,,,,,,,,,,,,,FF,,,,,,,,1.6015,,,,,,,,,,,,,,,,,,,,,,5ea2ac2e9a49751cf0dee644,60e56421b732a63ea707a209,2021-07-07_10h23.34.512,Simcolourproject_2stim_asymm_v5,2020.2.10,MacIntel,60,60e52e7cfedb1dae636df45f,,,,,,,,,3839,-47.77471924,-71.45788574,1,0,0,response5disk,,3,12.04089355,9.406829834,1,0,0,rectangle,12.04089355,9.406829834,1,0,0,12.04089355,9.406829834,1,0,0,0,86,86,1,1,,,,,,,,
,,,,,,,,,,,,,FF,,,,,,,,0.8661,,,,,,,,,,,,,,,,,,,,,,5ea2ac2e9a49751cf0dee644,60e56421b732a63ea707a209,2021-07-07_10h23.34.512,Simcolourproject_2stim_asymm_v5,2020.2.10,MacIntel,60,60e52e7cfedb1dae636df45f,,,,,,,,,3248,47.22674561,-75.19360352,1,0,0,response3disk,,4,2.79699707,-2.776855469,1,0,0,rectangle,2.79699707,-2.776855469,1,0,0,2.79699707,-2.776855469,1,0,0,0,87,87,98,1,,,,,,,,
,,,,,,,,,,,,,FF,,,,,,,,1.0502,,,,,,,,,,,,,,,,,,,,,,5ea2ac2e9a49751cf0dee644,60e56421b732a63ea707a209,2021-07-07_10h23.34.512,Simcolourproject_2stim_asymm_v5,2020.2.10,MacIntel,60,60e52e7cfedb1dae636df45f,,,,,,,,,3996,61.60339355,31.87518311,1,0,0,response1disk,,6,1.044189453,-0.704498291,1,0,0,rectangle,1.044189453,-0.704498291,1,0,0,1.044189453,-0.704498291,1,0,0,0,88,88,117,1,,,,,,,,
,,,,,,,,,,,,,FF,,,,,,,,1.1328,,,,,,,,,,,,,,,,,,,,,,5ea2ac2e9a49751cf0dee644,60e56421b732a63ea707a209,2021-07-07_10h23.34.512,Simcolourproject_2stim_asymm_v5,2020.2.10,MacIntel,60,60e52e7cfedb1dae636df45f,,,,,,,,,4182,-34.10766602,-85.95935059,1,0,0,response5disk,,3,-0.234802246,4.519317627,1,0,0,rectangle,-0.234802246,4.519317627,1,0,0,-0.234802246,4.519317627,1,0,0,0,89,89,13,1,,,,,,,,
,,,,,,,,,,,,,FF,,,,,,,,0.9845,,,,,,,,,,,,,,,,,,,,,,5ea2ac2e9a49751cf0dee644,60e56421b732a63ea707a209,2021-07-07_10h23.34.512,Simcolourproject_2stim_asymm_v5,2020.2.10,MacIntel,60,60e52e7cfedb1dae636df45f,,,,,,,,,1439,43.99938965,-83.56298828,1,0,0,response3disk,,4,1.999084473,1.705200195,1,0,0,rectangle,-86.7868042,33.22827148,1,0,0,-13.91094971,-2.621429443,1,0,0,0,90,90,41,1,,response7disk_3,TRUE,1,1,"[30,150,230,280,128,264,319,91,18,293,93,197,234,134,111,287,205,264,78,141]",1.8184,rectangle
,,,,,,,,,,,,,FF,,,,,,,,0.8815,,,,,,,,,,,,,,,,,,,,,,5ea2ac2e9a49751cf0dee644,60e56421b732a63ea707a209,2021-07-07_10h23.34.512,Simcolourproject_2stim_asymm_v5,2020.2.10,MacIntel,60,60e52e7cfedb1dae636df45f,,,,,,,,,2956,49.20233154,14.63342285,1,0,0,response1disk,,6,-7.150695801,-2.385620117,1,0,0,rectangle,-7.150695801,-2.385620117,1,0,0,-7.150695801,-2.385620117,1,0,0,0,91,91,111,1,,,,,,,,
,,,,,,,,,,,,,FF,,,,,,,,0.8839,,,,,,,,,,,,,,,,,,,,,,5ea2ac2e9a49751cf0dee644,60e56421b732a63ea707a209,2021-07-07_10h23.34.512,Simcolourproject_2stim_asymm_v5,2020.2.10,MacIntel,60,60e52e7cfedb1dae636df45f,,,,,,,,,1461,-74.9119873,-48.8180542,1,0,0,response5disk,,2,3.659179688,12.20684814,1,0,0,rectangle,86.58239746,-25.78497314,1,0,0,5.462402344,3.291137695,1,0,0,0,92,92,147,1,,response3disk_3,TRUE,5,5,"[30,150,230,280,128,264,319,91,18,293,93,197,234,134,111,287,205,264,78,141]",1.2326,rectangle
,,,,,,,,,,,,,FF,,,,,,,,1.0002,,,,,,,,,,,,,,,,,,,,,,5ea2ac2e9a49751cf0dee644,60e56421b732a63ea707a209,2021-07-07_10h23.34.512,Simcolourproject_2stim_asymm_v5,2020.2.10,MacIntel,60,60e52e7cfedb1dae636df45f,,,,,,,,,2442,79.20880127,33.14086914,1,0,0,response1disk,,6,-5.172729492,-4.969421387,1,0,0,rectangle,-5.172729492,-4.969421387,1,0,0,-5.172729492,-4.969421387,1,0,0,0,93,93,11,1,,,,,,,,
,,,,,,,,,,,,,FF,,,,,,,,0.8542,,,,,,,,,,,,,,,,,,,,,,5ea2ac2e9a49751cf0dee644,60e56421b732a63ea707a209,2021-07-07_10h23.34.512,Simcolourproject_2stim_asymm_v5,2020.2.10,MacIntel,60,60e52e7cfedb1dae636df45f,,,,,,,,,1286,20.86553955,-82.98217773,1,0,0,response3disk,,4,2.916748047,-4.36416626,1,0,0,rectangle,2.916748047,-4.36416626,1,0,0,2.916748047,-4.36416626,1,0,0,0,94,94,146,1,,,,,,,,
,,,,,,,,,,,,,FF,,,,,,,,1.318,,,,,,,,,,,,,,,,,,,,,,5ea2ac2e9a49751cf0dee644,60e56421b732a63ea707a209,2021-07-07_10h23.34.512,Simcolourproject_2stim_asymm_v5,2020.2.10,MacIntel,60,60e52e7cfedb1dae636df45f,,,,,,,,,823,78.78845215,-50.03411865,1,0,0,response3disk,,5,11.04187012,-0.110595703,1,0,0,rectangle,11.04187012,-0.110595703,1,0,0,11.04187012,-0.110595703,1,0,0,0,95,95,33,1,,,,,,,,
,,,,,,,,,,,,,FF,,,,,,,,0.7671,,,,,,,,,,,,,,,,,,,,,,5ea2ac2e9a49751cf0dee644,60e56421b732a63ea707a209,2021-07-07_10h23.34.512,Simcolourproject_2stim_asymm_v5,2020.2.10,MacIntel,60,60e52e7cfedb1dae636df45f,,,,,,,,,2344,63.06939697,-33.69119263,1,0,0,response3disk,,5,22.6439209,-8.20489502,1,0,0,rectangle,22.6439209,-8.20489502,1,0,0,22.6439209,-8.20489502,1,0,0,0,96,96,4,1,,,,,,,,
,,,,,,,,,,,,,FF,,,,,,,,0.5831,,,,,,,,,,,,,,,,,,,,,,5ea2ac2e9a49751cf0dee644,60e56421b732a63ea707a209,2021-07-07_10h23.34.512,Simcolourproject_2stim_asymm_v5,2020.2.10,MacIntel,60,60e52e7cfedb1dae636df45f,,,,,,,,,1841,82.76104736,18.29498291,1,0,0,response1disk,,6,12.67834473,3.793029785,1,0,0,rectangle,12.67834473,3.793029785,1,0,0,12.67834473,3.793029785,1,0,0,0,97,97,142,1,,,,,,,,
,,,,,,,,,,,,,FF,,,,,,,,0.8825,,,,,,,,,,,,,,,,,,,,,,5ea2ac2e9a49751cf0dee644,60e56421b732a63ea707a209,2021-07-07_10h23.34.512,Simcolourproject_2stim_asymm_v5,2020.2.10,MacIntel,60,60e52e7cfedb1dae636df45f,,,,,,,,,2486,-26.75598145,-83.21881104,1,0,0,response5disk,,3,-9.893066406,0.810241699,1,0,0,rectangle,-9.893066406,0.810241699,1,0,0,-9.893066406,0.810241699,1,0,0,0,98,98,107,1,,,,,,,,
,,,,,,,,,,,,,FF,,,,,,,,1.0337,,,,,,,,,,,,,,,,,,,,,,5ea2ac2e9a49751cf0dee644,60e56421b732a63ea707a209,2021-07-07_10h23.34.512,Simcolourproject_2stim_asymm_v5,2020.2.10,MacIntel,60,60e52e7cfedb1dae636df45f,,,,,,,,,2909,60.43310547,-31.93893433,1,0,0,response3disk,,5,6.950317383,1.147216797,1,0,0,rectangle,6.950317383,1.147216797,1,0,0,6.950317383,1.147216797,1,0,0,0,99,99,140,1,,,,,,,,
,,,,,,,,,,,,,FF,,,,,,,,0.7499,,,,,,,,,,,,,,,,,,,,,,5ea2ac2e9a49751cf0dee644,60e56421b732a63ea707a209,2021-07-07_10h23.34.512,Simcolourproject_2stim_asymm_v5,2020.2.10,MacIntel,60,60e52e7cfedb1dae636df45f,,,,,,,,,1823,-89.88433838,-45.69442749,1,0,0,response5disk,,2,5.539794922,-2.718322754,1,0,0,rectangle,5.539794922,-2.718322754,1,0,0,5.539794922,-2.718322754,1,0,0,0,100,100,145,1,,,,,,,,
,,,,,,,,,,,,,FF,,,,,,,,0.9335,,,,,,,,,,,,,,,,,,,,,,5ea2ac2e9a49751cf0dee644,60e56421b732a63ea707a209,2021-07-07_10h23.34.512,Simcolourproject_2stim_asymm_v5,2020.2.10,MacIntel,60,60e52e7cfedb1dae636df45f,,,,,,,,,1107,90.53100586,40.87750244,1,0,0,response1disk,,6,-11.41827393,-10.15206909,1,0,0,rectangle,-11.41827393,-10.15206909,1,0,0,-11.41827393,-10.15206909,1,0,0,0,101,101,22,1,,,,,,,,
,,,,,,,,,,,,,FF,,,,,,,,0.7836,,,,,,,,,,,,,,,,,,,,,,5ea2ac2e9a49751cf0dee644,60e56421b732a63ea707a209,2021-07-07_10h23.34.512,Simcolourproject_2stim_asymm_v5,2020.2.10,MacIntel,60,60e52e7cfedb1dae636df45f,,,,,,,,,840,67.10113525,18.78866577,1,0,0,response1disk,,6,-0.711425781,-4.301513672,1,0,0,rectangle,-0.711425781,-4.301513672,1,0,0,-0.711425781,-4.301513672,1,0,0,0,102,102,55,1,,,,,,,,
,,,,,,,,,,,,,FF,,,,,,,,1.2839,,,,,,,,,,,,,,,,,,,,,,5ea2ac2e9a49751cf0dee644,60e56421b732a63ea707a209,2021-07-07_10h23.34.512,Simcolourproject_2stim_asymm_v5,2020.2.10,MacIntel,60,60e52e7cfedb1dae636df45f,,,,,,,,,749,105.9797974,48.53930664,1,0,0,response1disk,,6,-6.96307373,-2.260620117,1,0,0,rectangle,-6.96307373,-2.260620117,1,0,0,-6.96307373,-2.260620117,1,0,0,0,103,103,123,1,,,,,,,,
,,,,,,,,,,,,,FF,,,,,,,,0.9491,,,,,,,,,,,,,,,,,,,,,,5ea2ac2e9a49751cf0dee644,60e56421b732a63ea707a209,2021-07-07_10h23.34.512,Simcolourproject_2stim_asymm_v5,2020.2.10,MacIntel,60,60e52e7cfedb1dae636df45f,,,,,,,,,2067,61.8392334,-40.42205811,1,0,0,response3disk,,5,9.513427734,-14.80657959,1,0,0,rectangle,9.513427734,-14.80657959,1,0,0,9.513427734,-14.80657959,1,0,0,0,104,104,25,1,,,,,,,,
,,,,,,,,,,,,,FF,,,,,,,,0.5338,,,,,,,,,,,,,,,,,,,,,,5ea2ac2e9a49751cf0dee644,60e56421b732a63ea707a209,2021-07-07_10h23.34.512,Simcolourproject_2stim_asymm_v5,2020.2.10,MacIntel,60,60e52e7cfedb1dae636df45f,,,,,,,,,1105,78.01782227,-31.83108521,1,0,0,response3disk,,5,7.697265625,-2.444274902,1,0,0,rectangle,7.697265625,-2.444274902,1,0,0,7.697265625,-2.444274902,1,0,0,0,105,105,132,1,,,,,,,,
,,,,,,,,,,,,,FF,,,,,,,,2.0007,,,,,,,,,,,,,,,,,,,,,,5ea2ac2e9a49751cf0dee644,60e56421b732a63ea707a209,2021-07-07_10h23.34.512,Simcolourproject_2stim_asymm_v5,2020.2.10,MacIntel,60,60e52e7cfedb1dae636df45f,,,,,,,,,2261,30.86517334,-91.64035034,1,0,0,response3disk,,4,7.183959961,6.405029297,1,0,0,rectangle,7.183959961,6.405029297,1,0,0,7.183959961,6.405029297,1,0,0,0,106,106,104,1,,,,,,,,
,,,,,,,,,,,,,FF,,,,,,,,1.3671,,,,,,,,,,,,,,,,,,,,,,5ea2ac2e9a49751cf0dee644,60e56421b732a63ea707a209,2021-07-07_10h23.34.512,Simcolourproject_2stim_asymm_v5,2020.2.10,MacIntel,60,60e52e7cfedb1dae636df45f,,,,,,,,,3717,95.79498291,-42.96783447,1,0,0,response3disk,,5,6.57434082,8.223449707,1,0,0,rectangle,6.57434082,8.223449707,1,0,0,6.57434082,8.223449707,1,0,0,0,107,107,16,1,,,,,,,,
,,,,,,,,,,,,,FF,,,,,,,,0.7504,,,,,,,,,,,,,,,,,,,,,,5ea2ac2e9a49751cf0dee644,60e56421b732a63ea707a209,2021-07-07_10h23.34.512,Simcolourproject_2stim_asymm_v5,2020.2.10,MacIntel,60,60e52e7cfedb1dae636df45f,,,,,,,,,3956,43.00262451,80.71081543,1,0,0,response1disk,,7,17.62762451,13.07684326,1,0,0,rectangle,17.62762451,13.07684326,1,0,0,17.62762451,13.07684326,1,0,0,0,108,108,75,1,,,,,,,,
,,,,,,,,,,,,,FF,,,,,,,,1.551,,,,,,,,,,,,,,,,,,,,,,5ea2ac2e9a49751cf0dee644,60e56421b732a63ea707a209,2021-07-07_10h23.34.512,Simcolourproject_2stim_asymm_v5,2020.2.10,MacIntel,60,60e52e7cfedb1dae636df45f,,,,,,,,,3566,42.51385498,-79.2598877,1,0,0,response3disk,,4,7.557495117,-10.40997314,1,0,0,rectangle,7.557495117,-10.40997314,1,0,0,7.557495117,-10.40997314,1,0,0,0,109,109,56,1,,,,,,,,
,,,,,,,,,,,,,FF,,,,,,,,0.7511,,,,,,,,,,,,,,,,,,,,,,5ea2ac2e9a49751cf0dee644,60e56421b732a63ea707a209,2021-07-07_10h23.34.512,Simcolourproject_2stim_asymm_v5,2020.2.10,MacIntel,60,60e52e7cfedb1dae636df45f,,,,,,,,,2802,41.9296875,-83.8420105,1,0,0,response3disk,,4,11.77801514,-11.07653809,1,0,0,rectangle,-77.48193359,47.16729736,1,0,0,7.74420166,-0.027282715,1,0,0,0,110,110,159,1,,response7disk_3,TRUE,1,1,"[30,150,230,280,128,264,319,91,18,293,93,197,234,134,111,287,205,264,78,141]",1.0667,rectangle
,,,,,,,,,,,,,FF,,,,,,,,0.8668,,,,,,,,,,,,,,,,,,,,,,5ea2ac2e9a49751cf0dee644,60e56421b732a63ea707a209,2021-07-07_10h23.34.512,Simcolourproject_2stim_asymm_v5,2020.2.10,MacIntel,60,60e52e7cfedb1dae636df45f,,,,,,,,,4303,77.30932617,19.44494629,1,0,0,response1disk,,6,1.361694336,-0.657165527,1,0,0,rectangle,1.361694336,-0.657165527,1,0,0,1.361694336,-0.657165527,1,0,0,0,111,111,114,1,,,,,,,,
,,,,,,,,,,,,,FF,,,,,,,,0.8008,,,,,,,,,,,,,,,,,,,,,,5ea2ac2e9a49751cf0dee644,60e56421b732a63ea707a209,2021-07-07_10h23.34.512,Simcolourproject_2stim_asymm_v5,2020.2.10,MacIntel,60,60e52e7cfedb1dae636df45f,,,,,,,,,718,-68.69476318,-38.64123535,1,0,0,response5disk,,2,4.149536133,12.68283081,1,0,0,rectangle,4.149536133,12.68283081,1,0,0,4.149536133,12.68283081,1,0,0,0,112,112,116,1,,,,,,,,
,,,,,,,,,,,,,FF,,,,,,,,0.7507,,,,,,,,,,,,,,,,,,,,,,5ea2ac2e9a49751cf0dee644,60e56421b732a63ea707a209,2021-07-07_10h23.34.512,Simcolourproject_2stim_asymm_v5,2020.2.10,MacIntel,60,60e52e7cfedb1dae636df45f,,,,,,,,,3362,94.22094727,46.49987793,1,0,0,response1disk,,6,-14.50469971,-11.66638184,1,0,0,rectangle,-14.50469971,-11.66638184,1,0,0,-14.50469971,-11.66638184,1,0,0,0,113,113,110,1,,,,,,,,
,,,,,,,,,,,,,FF,,,,,,,,0.8502,,,,,,,,,,,,,,,,,,,,,,5ea2ac2e9a49751cf0dee644,60e56421b732a63ea707a209,2021-07-07_10h23.34.512,Simcolourproject_2stim_asymm_v5,2020.2.10,MacIntel,60,60e52e7cfedb1dae636df45f,,,,,,,,,2748,93.18762207,42.56921387,1,0,0,response1disk,,6,-7.605651855,-8.925872803,1,0,0,rectangle,-7.605651855,-8.925872803,1,0,0,-7.605651855,-8.925872803,1,0,0,0,114,114,80,1,,,,,,,,
,,,,,,,,,,,,,FF,,,,,,,,0.7856,,,,,,,,,,,,,,,,,,,,,,5ea2ac2e9a49751cf0dee644,60e56421b732a63ea707a209,2021-07-07_10h23.34.512,Simcolourproject_2stim_asymm_v5,2020.2.10,MacIntel,60,60e52e7cfedb1dae636df45f,,,,,,,,,3023,87.07849121,46.2097168,1,0,0,response1disk,,6,-8.722351074,0.685089111,1,0,0,rectangle,-8.722351074,0.685089111,1,0,0,-8.722351074,0.685089111,1,0,0,0,115,115,131,1,,,,,,,,
,,,,,,,,,,,,,FF,,,,,,,,0.718,,,,,,,,,,,,,,,,,,,,,,5ea2ac2e9a49751cf0dee644,60e56421b732a63ea707a209,2021-07-07_10h23.34.512,Simcolourproject_2stim_asymm_v5,2020.2.10,MacIntel,60,60e52e7cfedb1dae636df45f,,,,,,,,,4367,-79.26965332,36.55145264,1,0,0,response7disk,,1,-13.28399658,4.86895752,1,0,0,rectangle,-13.28399658,4.86895752,1,0,0,-13.28399658,4.86895752,1,0,0,0,116,116,155,1,,,,,,,,
,,,,,,,,,,,,,FF,,,,,,,,0.7845,,,,,,,,,,,,,,,,,,,,,,5ea2ac2e9a49751cf0dee644,60e56421b732a63ea707a209,2021-07-07_10h23.34.512,Simcolourproject_2stim_asymm_v5,2020.2.10,MacIntel,60,60e52e7cfedb1dae636df45f,,,,,,,,,2745,109.2056885,65.83035278,1,0,0,response1disk,,6,11.75927734,11.49468994,1,0,0,rectangle,11.75927734,11.49468994,1,0,0,11.75927734,11.49468994,1,0,0,0,117,117,40,1,,,,,,,,
,,,,,,,,,,,,,FF,,,,,,,,1.2502,,,,,,,,,,,,,,,,,,,,,,5ea2ac2e9a49751cf0dee644,60e56421b732a63ea707a209,2021-07-07_10h23.34.512,Simcolourproject_2stim_asymm_v5,2020.2.10,MacIntel,60,60e52e7cfedb1dae636df45f,,,,,,,,,1208,20.05541992,81.7668457,1,0,0,response1disk,,7,6.104370117,-2.265991211,1,0,0,rectangle,6.104370117,-2.265991211,1,0,0,6.104370117,-2.265991211,1,0,0,0,118,118,70,1,,,,,,,,
,,,,,,,,,,,,,FF,,,,,,,,1.0836,,,,,,,,,,,,,,,,,,,,,,5ea2ac2e9a49751cf0dee644,60e56421b732a63ea707a209,2021-07-07_10h23.34.512,Simcolourproject_2stim_asymm_v5,2020.2.10,MacIntel,60,60e52e7cfedb1dae636df45f,,,,,,,,,3386,46.28717041,-74.12878418,1,0,0,response3disk,,4,3.217346191,-8.079040527,1,0,0,rectangle,3.217346191,-8.079040527,1,0,0,3.217346191,-8.079040527,1,0,0,0,119,119,67,1,,,,,,,,
,,,,,,,,,,,,,FF,,,,,,,,0.653,,,,,,,,,,,,,,,,,,,,,,5ea2ac2e9a49751cf0dee644,60e56421b732a63ea707a209,2021-07-07_10h23.34.512,Simcolourproject_2stim_asymm_v5,2020.2.10,MacIntel,60,60e52e7cfedb1dae636df45f,,,,,,,,,1255,38.3605957,-71.32818604,1,0,0,response3disk,,4,8.223937988,-2.751220703,1,0,0,rectangle,8.223937988,-2.751220703,1,0,0,8.223937988,-2.751220703,1,0,0,0,120,120,9,1,,,,,,,,
,,,,,,,,,,,,,FF,,,,,,,,0.9494,,,,,,,,,,,,,,,,,,,,,,5ea2ac2e9a49751cf0dee644,60e56421b732a63ea707a209,2021-07-07_10h23.34.512,Simcolourproject_2stim_asymm_v5,2020.2.10,MacIntel,60,60e52e7cfedb1dae636df45f,,,,,,,,,4345,-73.36535645,39.96289063,1,0,0,response7disk,,1,-1.80871582,13.12799072,1,0,0,rectangle,-1.80871582,13.12799072,1,0,0,-1.80871582,13.12799072,1,0,0,0,121,121,77,1,,,,,,,,
,,,,,,,,,,,,,FF,,,,,,,,0.8181,,,,,,,,,,,,,,,,,,,,,,5ea2ac2e9a49751cf0dee644,60e56421b732a63ea707a209,2021-07-07_10h23.34.512,Simcolourproject_2stim_asymm_v5,2020.2.10,MacIntel,60,60e52e7cfedb1dae636df45f,,,,,,,,,2783,-70.38879395,-38.69677734,1,0,0,response5disk,,2,1.345397949,-2.820129395,1,0,0,rectangle,1.345397949,-2.820129395,1,0,0,1.345397949,-2.820129395,1,0,0,0,122,122,21,1,,,,,,,,
,,,,,,,,,,,,,FF,,,,,,,,0.8166,,,,,,,,,,,,,,,,,,,,,,5ea2ac2e9a49751cf0dee644,60e56421b732a63ea707a209,2021-07-07_10h23.34.512,Simcolourproject_2stim_asymm_v5,2020.2.10,MacIntel,60,60e52e7cfedb1dae636df45f,,,,,,,,,1924,80.8157959,-24.37786865,1,0,0,response3disk,,5,6.478759766,-0.170593262,1,0,0,rectangle,6.478759766,-0.170593262,1,0,0,6.478759766,-0.170593262,1,0,0,0,123,123,20,1,,,,,,,,
,,,,,,,,,,,,,FF,,,,,,,,0.7352,,,,,,,,,,,,,,,,,,,,,,5ea2ac2e9a49751cf0dee644,60e56421b732a63ea707a209,2021-07-07_10h23.34.512,Simcolourproject_2stim_asymm_v5,2020.2.10,MacIntel,60,60e52e7cfedb1dae636df45f,,,,,,,,,1667,82.68774414,-27.58825684,1,0,0,response3disk,,5,11.78991699,-11.16964722,1,0,0,rectangle,11.78991699,-11.16964722,1,0,0,11.78991699,-11.16964722,1,0,0,0,124,124,121,1,,,,,,,,
,,,,,,,,,,,,,FF,,,,,,,,1.0342,,,,,,,,,,,,,,,,,,,,,,5ea2ac2e9a49751cf0dee644,60e56421b732a63ea707a209,2021-07-07_10h23.34.512,Simcolourproject_2stim_asymm_v5,2020.2.10,MacIntel,60,60e52e7cfedb1dae636df45f,,,,,,,,,2466,82.81555176,-36.0055542,1,0,0,response3disk,,5,10.56921387,0.876037598,1,0,0,rectangle,10.56921387,0.876037598,1,0,0,10.56921387,0.876037598,1,0,0,0,125,125,134,1,,,,,,,,
,,,,,,,,,,,,,FF,,,,,,,,1.0681,,,,,,,,,,,,,,,,,,,,,,5ea2ac2e9a49751cf0dee644,60e56421b732a63ea707a209,2021-07-07_10h23.34.512,Simcolourproject_2stim_asymm_v5,2020.2.10,MacIntel,60,60e52e7cfedb1dae636df45f,,,,,,,,,2829,-48.17822266,-88.98596191,1,0,0,response5disk,,3,14.48303223,3.299743652,1,0,0,rectangle,14.48303223,3.299743652,1,0,0,14.48303223,3.299743652,1,0,0,0,126,126,82,1,,,,,,,,
,,,,,,,,,,,,,FF,,,,,,,,1.5003,,,,,,,,,,,,,,,,,,,,,,5ea2ac2e9a49751cf0dee644,60e56421b732a63ea707a209,2021-07-07_10h23.34.512,Simcolourproject_2stim_asymm_v5,2020.2.10,MacIntel,60,60e52e7cfedb1dae636df45f,,,,,,,,,2125,95.09631348,48.87432861,1,0,0,response1disk,,6,13.86120605,13.0770874,1,0,0,rectangle,-82.96166992,-38.07189941,1,0,0,-8.088256836,-1.257507324,1,0,0,0,127,127,19,1,,response5disk_3,TRUE,2,2,"[30,150,230,280,128,264,319,91,18,293,93,197,234,134,111,287,205,264,78,141]",1.4666,rectangle
,,,,,,,,,,,,,FF,,,,,,,,1.4168,,,,,,,,,,,,,,,,,,,,,,5ea2ac2e9a49751cf0dee644,60e56421b732a63ea707a209,2021-07-07_10h23.34.512,Simcolourproject_2stim_asymm_v5,2020.2.10,MacIntel,60,60e52e7cfedb1dae636df45f,,,,,,,,,3170,95.59686279,14.07272339,1,0,0,response1disk,,6,14.18847656,11.7930603,1,0,0,rectangle,14.18847656,11.7930603,1,0,0,14.18847656,11.7930603,1,0,0,0,128,128,139,1,,,,,,,,
,,,,,,,,,,,,,FF,,,,,,,,0.6173,,,,,,,,,,,,,,,,,,,,,,5ea2ac2e9a49751cf0dee644,60e56421b732a63ea707a209,2021-07-07_10h23.34.512,Simcolourproject_2stim_asymm_v5,2020.2.10,MacIntel,60,60e52e7cfedb1dae636df45f,,,,,,,,,1087,81.12628174,44.40661621,1,0,0,response1disk,,6,-13.63140869,-14.506073,1,0,0,rectangle,-13.63140869,-14.506073,1,0,0,-13.63140869,-14.506073,1,0,0,0,129,129,102,1,,,,,,,,
,,,,,,,,,,,,,FF,,,,,,,,1.0661,,,,,,,,,,,,,,,,,,,,,,5ea2ac2e9a49751cf0dee644,60e56421b732a63ea707a209,2021-07-07_10h23.34.512,Simcolourproject_2stim_asymm_v5,2020.2.10,MacIntel,60,60e52e7cfedb1dae636df45f,,,,,,,,,2752,96.2532959,-44.32568359,1,0,0,response3disk,,5,-1.503417969,-4.713806152,1,0,0,rectangle,-1.503417969,-4.713806152,1,0,0,-1.503417969,-4.713806152,1,0,0,0,130,130,42,1,,,,,,,,
,,,,,,,,,,,,,FF,,,,,,,,0.9296,,,,,,,,,,,,,,,,,,,,,,5ea2ac2e9a49751cf0dee644,60e56421b732a63ea707a209,2021-07-07_10h23.34.512,Simcolourproject_2stim_asymm_v5,2020.2.10,MacIntel,60,60e52e7cfedb1dae636df45f,,,,,,,,,513,109.0309448,56.6008606,1,0,0,response1disk,,6,13.10992432,-4.655456543,1,0,0,rectangle,13.10992432,-4.655456543,1,0,0,13.10992432,-4.655456543,1,0,0,0,131,131,79,1,,,,,,,,
,,,,,,,,,,,,,FF,,,,,,,,0.6676,,,,,,,,,,,,,,,,,,,,,,5ea2ac2e9a49751cf0dee644,60e56421b732a63ea707a209,2021-07-07_10h23.34.512,Simcolourproject_2stim_asymm_v5,2020.2.10,MacIntel,60,60e52e7cfedb1dae636df45f,,,,,,,,,3667,81.9017334,32.14666748,1,0,0,response1disk,,6,-7.776184082,15.50906372,1,0,0,rectangle,-7.776184082,15.50906372,1,0,0,-7.776184082,15.50906372,1,0,0,0,132,132,10,1,,,,,,,,
,,,,,,,,,,,,,FF,,,,,,,,0.8339,,,,,,,,,,,,,,,,,,,,,,5ea2ac2e9a49751cf0dee644,60e56421b732a63ea707a209,2021-07-07_10h23.34.512,Simcolourproject_2stim_asymm_v5,2020.2.10,MacIntel,60,60e52e7cfedb1dae636df45f,,,,,,,,,707,42.92614746,74.28244019,1,0,0,response1disk,,7,5.460266113,-1.512268066,1,0,0,rectangle,-30.09075928,-71.82946777,1,0,0,1.451049805,-12.86465454,1,0,0,0,133,133,71,1,,response5disk_3,TRUE,3,3,"[30,150,230,280,128,264,319,91,18,293,93,197,234,134,111,287,205,264,78,141]",1.5508,rectangle
,,,,,,,,,,,,,FF,,,,,,,,1.3991,,,,,,,,,,,,,,,,,,,,,,5ea2ac2e9a49751cf0dee644,60e56421b732a63ea707a209,2021-07-07_10h23.34.512,Simcolourproject_2stim_asymm_v5,2020.2.10,MacIntel,60,60e52e7cfedb1dae636df45f,,,,,,,,,388,92.3380127,-18.53662109,1,0,0,response3disk,,5,-10.64105225,9.082702637,1,0,0,rectangle,-10.64105225,9.082702637,1,0,0,-10.64105225,9.082702637,1,0,0,0,134,134,52,1,,,,,,,,
,,,,,,,,,,,,,FF,,,,,,,,0.9505,,,,,,,,,,,,,,,,,,,,,,5ea2ac2e9a49751cf0dee644,60e56421b732a63ea707a209,2021-07-07_10h23.34.512,Simcolourproject_2stim_asymm_v5,2020.2.10,MacIntel,60,60e52e7cfedb1dae636df45f,,,,,,,,,2722,-22.46746826,-77.98150635,1,0,0,response5disk,,3,-2.697753906,1.298400879,1,0,0,rectangle,-2.697753906,1.298400879,1,0,0,-2.697753906,1.298400879,1,0,0,0,135,135,73,1,,,,,,,,
,,,,,,,,,,,,,FF,,,,,,,,0.7005,,,,,,,,,,,,,,,,,,,,,,5ea2ac2e9a49751cf0dee644,60e56421b732a63ea707a209,2021-07-07_10h23.34.512,Simcolourproject_2stim_asymm_v5,2020.2.10,MacIntel,60,60e52e7cfedb1dae636df45f,,,,,,,,,2742,34.99017334,-91.87756348,1,0,0,response3disk,,4,4.864868164,6.74987793,1,0,0,rectangle,4.864868164,6.74987793,1,0,0,4.864868164,6.74987793,1,0,0,0,136,136,93,1,,,,,,,,
,,,,,,,,,,,,,FF,,,,,,,,0.8503,,,,,,,,,,,,,,,,,,,,,,5ea2ac2e9a49751cf0dee644,60e56421b732a63ea707a209,2021-07-07_10h23.34.512,Simcolourproject_2stim_asymm_v5,2020.2.10,MacIntel,60,60e52e7cfedb1dae636df45f,,,,,,,,,1388,29.60565186,-102.1006775,1,0,0,response3disk,,4,8.089660645,-6.679016113,1,0,0,rectangle,8.089660645,-6.679016113,1,0,0,8.089660645,-6.679016113,1,0,0,0,137,137,53,1,,,,,,,,
,,,,,,,,,,,,,FF,,,,,,,,0.834,,,,,,,,,,,,,,,,,,,,,,5ea2ac2e9a49751cf0dee644,60e56421b732a63ea707a209,2021-07-07_10h23.34.512,Simcolourproject_2stim_asymm_v5,2020.2.10,MacIntel,60,60e52e7cfedb1dae636df45f,,,,,,,,,2596,40.5145874,-73.07730103,1,0,0,response3disk,,4,9.71472168,2.006164551,1,0,0,rectangle,9.71472168,2.006164551,1,0,0,9.71472168,2.006164551,1,0,0,0,138,138,65,1,,,,,,,,
,,,,,,,,,,,,,FF,,,,,,,,1.3373,,,,,,,,,,,,,,,,,,,,,,5ea2ac2e9a49751cf0dee644,60e56421b732a63ea707a209,2021-07-07_10h23.34.512,Simcolourproject_2stim_asymm_v5,2020.2.10,MacIntel,60,60e52e7cfedb1dae636df45f,,,,,,,,,3222,67.10406494,-45.80221558,1,0,0,response3disk,,5,10.21478271,-4.689331055,1,0,0,rectangle,10.21478271,-4.689331055,1,0,0,10.21478271,-4.689331055,1,0,0,0,139,139,119,1,,,,,,,,
,,,,,,,,,,,,,FF,,,,,,,,1.0167,,,,,,,,,,,,,,,,,,,,,,5ea2ac2e9a49751cf0dee644,60e56421b732a63ea707a209,2021-07-07_10h23.34.512,Simcolourproject_2stim_asymm_v5,2020.2.10,MacIntel,60,60e52e7cfedb1dae636df45f,,,,,,,,,1563,95.79925537,33.54125977,1,0,0,response1disk,,6,11.04907227,-5.441101074,1,0,0,rectangle,-93.66778564,-53.02612305,1,0,0,-0.91204834,3.964874268,1,0,0,0,140,140,63,1,,response5disk_3,TRUE,2,2,"[30,150,230,280,128,264,319,91,18,293,93,197,234,134,111,287,205,264,78,141]",1.3165,rectangle
,,,,,,,,,,,,,FF,,,,,,,,0.7337,,,,,,,,,,,,,,,,,,,,,,5ea2ac2e9a49751cf0dee644,60e56421b732a63ea707a209,2021-07-07_10h23.34.512,Simcolourproject_2stim_asymm_v5,2020.2.10,MacIntel,60,60e52e7cfedb1dae636df45f,,,,,,,,,3853,105.1062622,51.27523804,1,0,0,response1disk,,6,10.92077637,-10.03161621,1,0,0,rectangle,10.92077637,-10.03161621,1,0,0,10.92077637,-10.03161621,1,0,0,0,141,141,124,1,,,,,,,,
,,,,,,,,,,,,,FF,,,,,,,,0.7698,,,,,,,,,,,,,,,,,,,,,,5ea2ac2e9a49751cf0dee644,60e56421b732a63ea707a209,2021-07-07_10h23.34.512,Simcolourproject_2stim_asymm_v5,2020.2.10,MacIntel,60,60e52e7cfedb1dae636df45f,,,,,,,,,3829,88.90447998,-46.49938965,1,0,0,response3disk,,5,3.397399902,-1.308166504,1,0,0,rectangle,3.397399902,-1.308166504,1,0,0,3.397399902,-1.308166504,1,0,0,0,142,142,14,1,,,,,,,,
,,,,,,,,,,,,,FF,,,,,,,,1.0513,,,,,,,,,,,,,,,,,,,,,,5ea2ac2e9a49751cf0dee644,60e56421b732a63ea707a209,2021-07-07_10h23.34.512,Simcolourproject_2stim_asymm_v5,2020.2.10,MacIntel,60,60e52e7cfedb1dae636df45f,,,,,,,,,4196,83.331604,51.49719238,1,0,0,response1disk,,6,7.386779785,-1.538146973,1,0,0,rectangle,7.386779785,-1.538146973,1,0,0,7.386779785,-1.538146973,1,0,0,0,143,143,8,1,,,,,,,,
,,,,,,,,,,,,,FF,,,,,,,,0.7989,,,,,,,,,,,,,,,,,,,,,,5ea2ac2e9a49751cf0dee644,60e56421b732a63ea707a209,2021-07-07_10h23.34.512,Simcolourproject_2stim_asymm_v5,2020.2.10,MacIntel,60,60e52e7cfedb1dae636df45f,,,,,,,,,955,96.67614746,29.57318115,1,0,0,response1disk,,6,12.2154541,0.317749023,1,0,0,rectangle,12.2154541,0.317749023,1,0,0,12.2154541,0.317749023,1,0,0,0,144,144,27,1,,,,,,,,
,,,,,,,,,,,,,FF,,,,,,,,0.9499,,,,,,,,,,,,,,,,,,,,,,5ea2ac2e9a49751cf0dee644,60e56421b732a63ea707a209,2021-07-07_10h23.34.512,Simcolourproject_2stim_asymm_v5,2020.2.10,MacIntel,60,60e52e7cfedb1dae636df45f,,,,,,,,,2372,59.22039795,-74.43920898,1,0,0,response3disk,,4,0.893554688,3.511779785,1,0,0,rectangle,0.893554688,3.511779785,1,0,0,0.893554688,3.511779785,1,0,0,0,145,145,74,1,,,,,,,,
,,,,,,,,,,,,,FF,,,,,,,,0.7178,,,,,,,,,,,,,,,,,,,,,,5ea2ac2e9a49751cf0dee644,60e56421b732a63ea707a209,2021-07-07_10h23.34.512,Simcolourproject_2stim_asymm_v5,2020.2.10,MacIntel,60,60e52e7cfedb1dae636df45f,,,,,,,,,719,-48.0067749,-29.01141357,1,0,0,response5disk,,2,13.1305542,3.616027832,1,0,0,rectangle,13.1305542,3.616027832,1,0,0,13.1305542,3.616027832,1,0,0,0,146,146,32,1,,,,,,,,
,,,,,,,,,,,,,FF,,,,,,,,0.6841,,,,,,,,,,,,,,,,,,,,,,5ea2ac2e9a49751cf0dee644,60e56421b732a63ea707a209,2021-07-07_10h23.34.512,Simcolourproject_2stim_asymm_v5,2020.2.10,MacIntel,60,60e52e7cfedb1dae636df45f,,,,,,,,,3698,70.01470947,-29.82745361,1,0,0,response3disk,,5,13.82958984,1.623962402,1,0,0,rectangle,13.82958984,1.623962402,1,0,0,13.82958984,1.623962402,1,0,0,0,147,147,149,1,,,,,,,,
,,,,,,,,,,,,,FF,,,,,,,,0.8503,,,,,,,,,,,,,,,,,,,,,,5ea2ac2e9a49751cf0dee644,60e56421b732a63ea707a209,2021-07-07_10h23.34.512,Simcolourproject_2stim_asymm_v5,2020.2.10,MacIntel,60,60e52e7cfedb1dae636df45f,,,,,,,,,1367,41.78918457,90.78845215,1,0,0,response1disk,,7,3.069274902,-7.153320313,1,0,0,rectangle,3.069274902,-7.153320313,1,0,0,3.069274902,-7.153320313,1,0,0,0,148,148,158,1,,,,,,,,
,,,,,,,,,,,,,FF,,,,,,,,0.8507,,,,,,,,,,,,,,,,,,,,,,5ea2ac2e9a49751cf0dee644,60e56421b732a63ea707a209,2021-07-07_10h23.34.512,Simcolourproject_2stim_asymm_v5,2020.2.10,MacIntel,60,60e52e7cfedb1dae636df45f,,,,,,,,,1985,92.6920166,43.86578369,1,0,0,response1disk,,6,9.731872559,0.827301025,1,0,0,rectangle,-104.6904297,-59.16503906,1,0,0,-10.80487061,-8.040893555,1,0,0,0,149,149,0,1,,response5disk_3,TRUE,2,2,"[30,150,230,280,128,264,319,91,18,293,93,197,234,134,111,287,205,264,78,141]",1.1326,rectangle
,,,,,,,,,,,,,FF,,,,,,,,0.8667,,,,,,,,,,,,,,,,,,,,,,5ea2ac2e9a49751cf0dee644,60e56421b732a63ea707a209,2021-07-07_10h23.34.512,Simcolourproject_2stim_asymm_v5,2020.2.10,MacIntel,60,60e52e7cfedb1dae636df45f,,,,,,,,,759,103.3834229,48.28823853,1,0,0,response1disk,,6,5.194335938,0.344238281,1,0,0,rectangle,5.194335938,0.344238281,1,0,0,5.194335938,0.344238281,1,0,0,0,150,150,148,1,,,,,,,,
,,,,,,,,,,,,,FF,,,,,,,,1.5513,,,,,,,,,,,,,,,,,,,,,,5ea2ac2e9a49751cf0dee644,60e56421b732a63ea707a209,2021-07-07_10h23.34.512,Simcolourproject_2stim_asymm_v5,2020.2.10,MacIntel,60,60e52e7cfedb1dae636df45f,,,,,,,,,1906,-78.65258789,-38.89846802,1,0,0,response5disk,,2,5.25769043,-1.345031738,1,0,0,rectangle,5.25769043,-1.345031738,1,0,0,5.25769043,-1.345031738,1,0,0,0,151,151,141,1,,,,,,,,
,,,,,,,,,,,,,FF,,,,,,,,0.8661,,,,,,,,,,,,,,,,,,,,,,5ea2ac2e9a49751cf0dee644,60e56421b732a63ea707a209,2021-07-07_10h23.34.512,Simcolourproject_2stim_asymm_v5,2020.2.10,MacIntel,60,60e52e7cfedb1dae636df45f,,,,,,,,,1478,21.98773193,65.59649658,1,0,0,response1disk,,7,6.729431152,0.318054199,1,0,0,rectangle,6.729431152,0.318054199,1,0,0,6.729431152,0.318054199,1,0,0,0,152,152,34,1,,,,,,,,
,,,,,,,,,,,,,FF,,,,,,,,0.6994,,,,,,,,,,,,,,,,,,,,,,5ea2ac2e9a49751cf0dee644,60e56421b732a63ea707a209,2021-07-07_10h23.34.512,Simcolourproject_2stim_asymm_v5,2020.2.10,MacIntel,60,60e52e7cfedb1dae636df45f,,,,,,,,,2083,85.67974854,26.9730835,1,0,0,response1disk,,6,10.86938477,2.254272461,1,0,0,rectangle,10.86938477,2.254272461,1,0,0,10.86938477,2.254272461,1,0,0,0,153,153,127,1,,,,,,,,
,,,,,,,,,,,,,FF,,,,,,,,0.8179,,,,,,,,,,,,,,,,,,,,,,5ea2ac2e9a49751cf0dee644,60e56421b732a63ea707a209,2021-07-07_10h23.34.512,Simcolourproject_2stim_asymm_v5,2020.2.10,MacIntel,60,60e52e7cfedb1dae636df45f,,,,,,,,,2946,-69.69519043,35.2053833,1,0,0,response7disk,,1,-16.05877686,2.872192383,1,0,0,rectangle,-16.05877686,2.872192383,1,0,0,-16.05877686,2.872192383,1,0,0,0,154,154,29,1,,,,,,,,
,,,,,,,,,,,,,FF,,,,,,,,0.7181,,,,,,,,,,,,,,,,,,,,,,5ea2ac2e9a49751cf0dee644,60e56421b732a63ea707a209,2021-07-07_10h23.34.512,Simcolourproject_2stim_asymm_v5,2020.2.10,MacIntel,60,60e52e7cfedb1dae636df45f,,,,,,,,,2831,-35.98162842,87.5567627,1,0,0,response7disk,,0,10.20697021,6.155944824,1,0,0,rectangle,10.20697021,6.155944824,1,0,0,10.20697021,6.155944824,1,0,0,0,155,155,62,1,,,,,,,,
,,,,,,,,,,,,,FF,,,,,,,,1.6668,,,,,,,,,,,,,,,,,,,,,,5ea2ac2e9a49751cf0dee644,60e56421b732a63ea707a209,2021-07-07_10h23.34.512,Simcolourproject_2stim_asymm_v5,2020.2.10,MacIntel,60,60e52e7cfedb1dae636df45f,,,,,,,,,1354,71.23675537,-24.41268921,1,0,0,response3disk,,5,4.270568848,1.971679688,1,0,0,rectangle,4.270568848,1.971679688,1,0,0,4.270568848,1.971679688,1,0,0,0,156,156,12,1,,,,,,,,
,,,,,,,,,,,,,FF,,,,,,,,1.1174,,,,,,,,,,,,,,,,,,,,,,5ea2ac2e9a49751cf0dee644,60e56421b732a63ea707a209,2021-07-07_10h23.34.512,Simcolourproject_2stim_asymm_v5,2020.2.10,MacIntel,60,60e52e7cfedb1dae636df45f,,,,,,,,,2491,21.984375,-91.73425293,1,0,0,response3disk,,4,2.685974121,-8.488250732,1,0,0,rectangle,2.685974121,-8.488250732,1,0,0,2.685974121,-8.488250732,1,0,0,0,157,157,57,1,,,,,,,,
,,,,,,,,,,,,,FF,,,,,,,,1.0174,,,,,,,,,,,,,,,,,,,,,,5ea2ac2e9a49751cf0dee644,60e56421b732a63ea707a209,2021-07-07_10h23.34.512,Simcolourproject_2stim_asymm_v5,2020.2.10,MacIntel,60,60e52e7cfedb1dae636df45f,,,,,,,,,976,31.21569824,-83.96356201,1,0,0,response3disk,,4,8.291564941,-4.78503418,1,0,0,rectangle,8.291564941,-4.78503418,1,0,0,8.291564941,-4.78503418,1,0,0,0,158,158,83,1,,,,,,,,
,,,,,,,,,,,,,FF,,,,,,,,0.9849,,,,,,,,,,,,,,,,,,,,,,5ea2ac2e9a49751cf0dee644,60e56421b732a63ea707a209,2021-07-07_10h23.34.512,Simcolourproject_2stim_asymm_v5,2020.2.10,MacIntel,60,60e52e7cfedb1dae636df45f,,,,,,,,,3349,79.20507813,32.8449707,1,0,0,response1disk,,6,-7.109436035,-6.076080322,1,0,0,rectangle,-7.109436035,-6.076080322,1,0,0,-7.109436035,-6.076080322,1,0,0,0,159,159,103,1,,,,,,,,
,,,,,,,,,,,,,FF,,,,,,,,0.7843,,,,,,,,,,,,,,,,,,,,,,5ea2ac2e9a49751cf0dee644,60e56421b732a63ea707a209,2021-07-07_10h23.34.512,Simcolourproject_2stim_asymm_v5,2020.2.10,MacIntel,60,60e52e7cfedb1dae636df45f,,,,,,,,,2958,46.15802002,74.09051514,1,0,0,response1disk,,7,6.194946289,-0.067840576,1,0,0,rectangle,6.194946289,-0.067840576,1,0,0,6.194946289,-0.067840576,1,0,0,1,0,160,54,1,,,,,,,,
,,,,,,,,,,,,,FF,,,,,,,,0.9681,,,,,,,,,,,,,,,,,,,,,,5ea2ac2e9a49751cf0dee644,60e56421b732a63ea707a209,2021-07-07_10h23.34.512,Simcolourproject_2stim_asymm_v5,2020.2.10,MacIntel,60,60e52e7cfedb1dae636df45f,,,,,,,,,3615,63.92932129,-43.58493042,1,0,0,response3disk,,5,12.6161499,2.191650391,1,0,0,rectangle,12.6161499,2.191650391,1,0,0,12.6161499,2.191650391,1,0,0,1,1,161,14,1,,,,,,,,
,,,,,,,,,,,,,FF,,,,,,,,0.7491,,,,,,,,,,,,,,,,,,,,,,5ea2ac2e9a49751cf0dee644,60e56421b732a63ea707a209,2021-07-07_10h23.34.512,Simcolourproject_2stim_asymm_v5,2020.2.10,MacIntel,60,60e52e7cfedb1dae636df45f,,,,,,,,,3388,-57.22875977,85.55453491,1,0,0,response7disk,,0,-4.96484375,2.259155273,1,0,0,rectangle,-4.96484375,2.259155273,1,0,0,-4.96484375,2.259155273,1,0,0,1,2,162,50,1,,,,,,,,
,,,,,,,,,,,,,FF,,,,,,,,1.418,,,,,,,,,,,,,,,,,,,,,,5ea2ac2e9a49751cf0dee644,60e56421b732a63ea707a209,2021-07-07_10h23.34.512,Simcolourproject_2stim_asymm_v5,2020.2.10,MacIntel,60,60e52e7cfedb1dae636df45f,,,,,,,,,2950,82.87939453,41.29144287,1,0,0,response1disk,,6,6.679992676,6.90246582,1,0,0,rectangle,6.679992676,6.90246582,1,0,0,6.679992676,6.90246582,1,0,0,1,3,163,113,1,,,,,,,,
,,,,,,,,,,,,,FF,,,,,,,,1.3169,,,,,,,,,,,,,,,,,,,,,,5ea2ac2e9a49751cf0dee644,60e56421b732a63ea707a209,2021-07-07_10h23.34.512,Simcolourproject_2stim_asymm_v5,2020.2.10,MacIntel,60,60e52e7cfedb1dae636df45f,,,,,,,,,616,-47.2010498,-76.05407715,1,0,0,response5disk,,3,0.061584473,2.017883301,1,0,0,rectangle,0.061584473,2.017883301,1,0,0,0.061584473,2.017883301,1,0,0,1,4,164,77,1,,,,,,,,
,,,,,,,,,,,,,FF,,,,,,,,0.5874,,,,,,,,,,,,,,,,,,,,,,5ea2ac2e9a49751cf0dee644,60e56421b732a63ea707a209,2021-07-07_10h23.34.512,Simcolourproject_2stim_asymm_v5,2020.2.10,MacIntel,60,60e52e7cfedb1dae636df45f,,,,,,,,,2174,-41.91497803,-78.48199463,1,0,0,response5disk,,3,-4.095153809,-2.704711914,1,0,0,rectangle,-4.095153809,-2.704711914,1,0,0,-4.095153809,-2.704711914,1,0,0,1,5,165,13,1,,,,,,,,
,,,,,,,,,,,,,FF,,,,,,,,0.7335,,,,,,,,,,,,,,,,,,,,,,5ea2ac2e9a49751cf0dee644,60e56421b732a63ea707a209,2021-07-07_10h23.34.512,Simcolourproject_2stim_asymm_v5,2020.2.10,MacIntel,60,60e52e7cfedb1dae636df45f,,,,,,,,,922,31.42401123,63.69839478,1,0,0,response1disk,,7,16.98034668,3.975463867,1,0,0,rectangle,16.98034668,3.975463867,1,0,0,16.98034668,3.975463867,1,0,0,1,6,166,78,1,,,,,,,,
,,,,,,,,,,,,,FF,,,,,,,,0.8352,,,,,,,,,,,,,,,,,,,,,,5ea2ac2e9a49751cf0dee644,60e56421b732a63ea707a209,2021-07-07_10h23.34.512,Simcolourproject_2stim_asymm_v5,2020.2.10,MacIntel,60,60e52e7cfedb1dae636df45f,,,,,,,,,1160,42.91296387,71.60882568,1,0,0,response1disk,,7,5.291015625,5.682922363,1,0,0,rectangle,5.291015625,5.682922363,1,0,0,5.291015625,5.682922363,1,0,0,1,7,167,37,1,,,,,,,,
,,,,,,,,,,,,,FF,,,,,,,,1.1676,,,,,,,,,,,,,,,,,,,,,,5ea2ac2e9a49751cf0dee644,60e56421b732a63ea707a209,2021-07-07_10h23.34.512,Simcolourproject_2stim_asymm_v5,2020.2.10,MacIntel,60,60e52e7cfedb1dae636df45f,,,,,,,,,3470,-83.89489746,30.61550903,1,0,0,response7disk,,1,-3.744567871,-5.391052246,1,0,0,rectangle,-3.744567871,-5.391052246,1,0,0,-3.744567871,-5.391052246,1,0,0,1,8,168,122,1,,,,,,,,
,,,,,,,,,,,,,FF,,,,,,,,0.7338,,,,,,,,,,,,,,,,,,,,,,5ea2ac2e9a49751cf0dee644,60e56421b732a63ea707a209,2021-07-07_10h23.34.512,Simcolourproject_2stim_asymm_v5,2020.2.10,MacIntel,60,60e52e7cfedb1dae636df45f,,,,,,,,,3425,-39.41625977,85.92712402,1,0,0,response7disk,,0,-6.310424805,14.62005615,1,0,0,rectangle,-6.310424805,14.62005615,1,0,0,-6.310424805,14.62005615,1,0,0,1,9,169,96,1,,,,,,,,
,,,,,,,,,,,,,FF,,,,,,,,1.5357,,,,,,,,,,,,,,,,,,,,,,5ea2ac2e9a49751cf0dee644,60e56421b732a63ea707a209,2021-07-07_10h23.34.512,Simcolourproject_2stim_asymm_v5,2020.2.10,MacIntel,60,60e52e7cfedb1dae636df45f,,,,,,,,,1442,-43.19439697,-77.23010254,1,0,0,response5disk,,3,2.323791504,12.54760742,1,0,0,rectangle,2.323791504,12.54760742,1,0,0,2.323791504,12.54760742,1,0,0,1,10,170,134,1,,,,,,,,
,,,,,,,,,,,,,FF,,,,,,,,0.7007,,,,,,,,,,,,,,,,,,,,,,5ea2ac2e9a49751cf0dee644,60e56421b732a63ea707a209,2021-07-07_10h23.34.512,Simcolourproject_2stim_asymm_v5,2020.2.10,MacIntel,60,60e52e7cfedb1dae636df45f,,,,,,,,,980,-50.70709229,-69.46850586,1,0,0,response5disk,,3,-1.00769043,-8.137817383,1,0,0,rectangle,-1.00769043,-8.137817383,1,0,0,-1.00769043,-8.137817383,1,0,0,1,11,171,159,1,,,,,,,,
,,,,,,,,,,,,,FF,,,,,,,,0.8002,,,,,,,,,,,,,,,,,,,,,,5ea2ac2e9a49751cf0dee644,60e56421b732a63ea707a209,2021-07-07_10h23.34.512,Simcolourproject_2stim_asymm_v5,2020.2.10,MacIntel,60,60e52e7cfedb1dae636df45f,,,,,,,,,4346,-83.5614624,-45.78701782,1,0,0,response5disk,,2,-21.73773193,-1.83795166,1,0,0,rectangle,-21.73773193,-1.83795166,1,0,0,-21.73773193,-1.83795166,1,0,0,1,12,172,128,1,,,,,,,,
,,,,,,,,,,,,,FF,,,,,,,,1.0323,,,,,,,,,,,,,,,,,,,,,,5ea2ac2e9a49751cf0dee644,60e56421b732a63ea707a209,2021-07-07_10h23.34.512,Simcolourproject_2stim_asymm_v5,2020.2.10,MacIntel,60,60e52e7cfedb1dae636df45f,,,,,,,,,712,-16.40844727,-77.54367065,1,0,0,response5disk,,3,6.645263672,5.757049561,1,0,0,rectangle,6.645263672,5.757049561,1,0,0,6.645263672,5.757049561,1,0,0,1,13,173,153,1,,,,,,,,
,,,,,,,,,,,,,FF,,,,,,,,1.3334,,,,,,,,,,,,,,,,,,,,,,5ea2ac2e9a49751cf0dee644,60e56421b732a63ea707a209,2021-07-07_10h23.34.512,Simcolourproject_2stim_asymm_v5,2020.2.10,MacIntel,60,60e52e7cfedb1dae636df45f,,,,,,,,,2597,75.64801025,-41.23529053,1,0,0,response3disk,,5,-16.23718262,5.255706787,1,0,0,rectangle,-16.23718262,5.255706787,1,0,0,-16.23718262,5.255706787,1,0,0,1,14,174,149,1,,,,,,,,
,,,,,,,,,,,,,FF,,,,,,,,0.8178,,,,,,,,,,,,,,,,,,,,,,5ea2ac2e9a49751cf0dee644,60e56421b732a63ea707a209,2021-07-07_10h23.34.512,Simcolourproject_2stim_asymm_v5,2020.2.10,MacIntel,60,60e52e7cfedb1dae636df45f,,,,,,,,,1220,-38.88433838,-78.7038269,1,0,0,response5disk,,3,-7.181945801,-12.97399902,1,0,0,rectangle,-7.181945801,-12.97399902,1,0,0,-7.181945801,-12.97399902,1,0,0,1,15,175,83,1,,,,,,,,
,,,,,,,,,,,,,FF,,,,,,,,1.1672,,,,,,,,,,,,,,,,,,,,,,5ea2ac2e9a49751cf0dee644,60e56421b732a63ea707a209,2021-07-07_10h23.34.512,Simcolourproject_2stim_asymm_v5,2020.2.10,MacIntel,60,60e52e7cfedb1dae636df45f,,,,,,,,,3458,55.67657471,89.06784058,1,0,0,response1disk,,7,2.073913574,2.818481445,1,0,0,rectangle,2.073913574,2.818481445,1,0,0,2.073913574,2.818481445,1,0,0,1,16,176,4,1,,,,,,,,
,,,,,,,,,,,,,FF,,,,,,,,1.4515,,,,,,,,,,,,,,,,,,,,,,5ea2ac2e9a49751cf0dee644,60e56421b732a63ea707a209,2021-07-07_10h23.34.512,Simcolourproject_2stim_asymm_v5,2020.2.10,MacIntel,60,60e52e7cfedb1dae636df45f,,,,,,,,,883,58.12799072,-47.47167969,1,0,0,response3disk,,5,-3.002563477,8.066833496,1,0,0,rectangle,-3.002563477,8.066833496,1,0,0,-3.002563477,8.066833496,1,0,0,1,17,177,93,1,,,,,,,,
,,,,,,,,,,,,,FF,,,,,,,,0.8335,,,,,,,,,,,,,,,,,,,,,,5ea2ac2e9a49751cf0dee644,60e56421b732a63ea707a209,2021-07-07_10h23.34.512,Simcolourproject_2stim_asymm_v5,2020.2.10,MacIntel,60,60e52e7cfedb1dae636df45f,,,,,,,,,316,58.54394531,53.38641357,1,0,0,response1disk,,6,-3.342041016,-11.50164795,1,0,0,rectangle,-3.342041016,-11.50164795,1,0,0,-3.342041016,-11.50164795,1,0,0,1,18,178,45,1,,,,,,,,
,,,,,,,,,,,,,FF,,,,,,,,1.0334,,,,,,,,,,,,,,,,,,,,,,5ea2ac2e9a49751cf0dee644,60e56421b732a63ea707a209,2021-07-07_10h23.34.512,Simcolourproject_2stim_asymm_v5,2020.2.10,MacIntel,60,60e52e7cfedb1dae636df45f,,,,,,,,,3860,74.840271,-46.76766968,1,0,0,response3disk,,5,11.6204834,-8.645111084,1,0,0,rectangle,11.6204834,-8.645111084,1,0,0,11.6204834,-8.645111084,1,0,0,1,19,179,69,1,,,,,,,,
,,,,,,,,,,,,,FF,,,,,,,,0.7506,,,,,,,,,,,,,,,,,,,,,,5ea2ac2e9a49751cf0dee644,60e56421b732a63ea707a209,2021-07-07_10h23.34.512,Simcolourproject_2stim_asymm_v5,2020.2.10,MacIntel,60,60e52e7cfedb1dae636df45f,,,,,,,,,4254,-33.07495117,-79.64596558,1,0,0,response5disk,,3,0.647888184,6.003234863,1,0,0,rectangle,0.647888184,6.003234863,1,0,0,0.647888184,6.003234863,1,0,0,1,20,180,91,1,,,,,,,,
,,,,,,,,,,,,,FF,,,,,,,,0.8325,,,,,,,,,,,,,,,,,,,,,,5ea2ac2e9a49751cf0dee644,60e56421b732a63ea707a209,2021-07-07_10h23.34.512,Simcolourproject_2stim_asymm_v5,2020.2.10,MacIntel,60,60e52e7cfedb1dae636df45f,,,,,,,,,492,70.32769775,42.04626465,1,0,0,response1disk,,6,-10.75317383,3.579711914,1,0,0,rectangle,-10.75317383,3.579711914,1,0,0,-10.75317383,3.579711914,1,0,0,1,21,181,20,1,,,,,,,,
,,,,,,,,,,,,,FF,,,,,,,,1.5166,,,,,,,,,,,,,,,,,,,,,,5ea2ac2e9a49751cf0dee644,60e56421b732a63ea707a209,2021-07-07_10h23.34.512,Simcolourproject_2stim_asymm_v5,2020.2.10,MacIntel,60,60e52e7cfedb1dae636df45f,,,,,,,,,490,67.46923828,-60.35040283,1,0,0,response3disk,,5,18.77520752,-12.64648438,1,0,0,rectangle,18.77520752,-12.64648438,1,0,0,18.77520752,-12.64648438,1,0,0,1,22,182,19,1,,,,,,,,
,,,,,,,,,,,,,FF,,,,,,,,0.9002,,,,,,,,,,,,,,,,,,,,,,5ea2ac2e9a49751cf0dee644,60e56421b732a63ea707a209,2021-07-07_10h23.34.512,Simcolourproject_2stim_asymm_v5,2020.2.10,MacIntel,60,60e52e7cfedb1dae636df45f,,,,,,,,,2631,80.78814697,37.26965332,1,0,0,response1disk,,6,14.74859619,-9.86517334,1,0,0,rectangle,14.74859619,-9.86517334,1,0,0,14.74859619,-9.86517334,1,0,0,1,23,183,121,1,,,,,,,,
,,,,,,,,,,,,,FF,,,,,,,,1.2336,,,,,,,,,,,,,,,,,,,,,,5ea2ac2e9a49751cf0dee644,60e56421b732a63ea707a209,2021-07-07_10h23.34.512,Simcolourproject_2stim_asymm_v5,2020.2.10,MacIntel,60,60e52e7cfedb1dae636df45f,,,,,,,,,1790,52.01806641,-89.57666016,1,0,0,response3disk,,4,0.282287598,-12.42962646,1,0,0,rectangle,0.282287598,-12.42962646,1,0,0,0.282287598,-12.42962646,1,0,0,1,24,184,73,1,,,,,,,,
,,,,,,,,,,,,,FF,,,,,,,,0.951,,,,,,,,,,,,,,,,,,,,,,5ea2ac2e9a49751cf0dee644,60e56421b732a63ea707a209,2021-07-07_10h23.34.512,Simcolourproject_2stim_asymm_v5,2020.2.10,MacIntel,60,60e52e7cfedb1dae636df45f,,,,,,,,,58,50.91375732,-82.68121338,1,0,0,response3disk,,4,6.149658203,-2.06439209,1,0,0,rectangle,6.149658203,-2.06439209,1,0,0,6.149658203,-2.06439209,1,0,0,1,25,185,152,1,,,,,,,,
,,,,,,,,,,,,,FF,,,,,,,,1.1508,,,,,,,,,,,,,,,,,,,,,,5ea2ac2e9a49751cf0dee644,60e56421b732a63ea707a209,2021-07-07_10h23.34.512,Simcolourproject_2stim_asymm_v5,2020.2.10,MacIntel,60,60e52e7cfedb1dae636df45f,,,,,,,,,910,61.47247314,59.52160645,1,0,0,response1disk,,6,3.333496094,7.281219482,1,0,0,rectangle,3.333496094,7.281219482,1,0,0,3.333496094,7.281219482,1,0,0,1,26,186,88,1,,,,,,,,
,,,,,,,,,,,,,FF,,,,,,,,1.1673,,,,,,,,,,,,,,,,,,,,,,5ea2ac2e9a49751cf0dee644,60e56421b732a63ea707a209,2021-07-07_10h23.34.512,Simcolourproject_2stim_asymm_v5,2020.2.10,MacIntel,60,60e52e7cfedb1dae636df45f,,,,,,,,,3377,-25.47418213,-78.03063965,1,0,0,response5disk,,3,-1.881408691,-2.259521484,1,0,0,rectangle,-1.881408691,-2.259521484,1,0,0,-1.881408691,-2.259521484,1,0,0,1,27,187,97,1,,,,,,,,
,,,,,,,,,,,,,FF,,,,,,,,0.8197,,,,,,,,,,,,,,,,,,,,,,5ea2ac2e9a49751cf0dee644,60e56421b732a63ea707a209,2021-07-07_10h23.34.512,Simcolourproject_2stim_asymm_v5,2020.2.10,MacIntel,60,60e52e7cfedb1dae636df45f,,,,,,,,,3957,77.92346191,32.36154175,1,0,0,response1disk,,6,22.69702148,5.055053711,1,0,0,rectangle,22.69702148,5.055053711,1,0,0,22.69702148,5.055053711,1,0,0,1,28,188,39,1,,,,,,,,
,,,,,,,,,,,,,FF,,,,,,,,1.1518,,,,,,,,,,,,,,,,,,,,,,5ea2ac2e9a49751cf0dee644,60e56421b732a63ea707a209,2021-07-07_10h23.34.512,Simcolourproject_2stim_asymm_v5,2020.2.10,MacIntel,60,60e52e7cfedb1dae636df45f,,,,,,,,,2406,73.89422607,-54.35620117,1,0,0,response3disk,,5,4.028686523,4.790527344,1,0,0,rectangle,4.028686523,4.790527344,1,0,0,4.028686523,4.790527344,1,0,0,1,29,189,44,1,,,,,,,,
,,,,,,,,,,,,,FF,,,,,,,,0.8335,,,,,,,,,,,,,,,,,,,,,,5ea2ac2e9a49751cf0dee644,60e56421b732a63ea707a209,2021-07-07_10h23.34.512,Simcolourproject_2stim_asymm_v5,2020.2.10,MacIntel,60,60e52e7cfedb1dae636df45f,,,,,,,,,3866,54.31982422,80.1640625,1,0,0,response1disk,,7,13.3394165,-9.332611084,1,0,0,rectangle,13.3394165,-9.332611084,1,0,0,13.3394165,-9.332611084,1,0,0,1,30,190,99,1,,,,,,,,
,,,,,,,,,,,,,FF,,,,,,,,1.217,,,,,,,,,,,,,,,,,,,,,,5ea2ac2e9a49751cf0dee644,60e56421b732a63ea707a209,2021-07-07_10h23.34.512,Simcolourproject_2stim_asymm_v5,2020.2.10,MacIntel,60,60e52e7cfedb1dae636df45f,,,,,,,,,2108,60.50927734,-75.51907349,1,0,0,response3disk,,4,5.350891113,-1.968597412,1,0,0,rectangle,5.350891113,-1.968597412,1,0,0,5.350891113,-1.968597412,1,0,0,1,31,191,59,1,,,,,,,,
,,,,,,,,,,,,,FF,,,,,,,,0.7833,,,,,,,,,,,,,,,,,,,,,,5ea2ac2e9a49751cf0dee644,60e56421b732a63ea707a209,2021-07-07_10h23.34.512,Simcolourproject_2stim_asymm_v5,2020.2.10,MacIntel,60,60e52e7cfedb1dae636df45f,,,,,,,,,816,34.5625,-82.31964111,1,0,0,response3disk,,4,8.627685547,1.50378418,1,0,0,rectangle,8.627685547,1.50378418,1,0,0,8.627685547,1.50378418,1,0,0,1,32,192,53,1,,,,,,,,
,,,,,,,,,,,,,FF,,,,,,,,0.918,,,,,,,,,,,,,,,,,,,,,,5ea2ac2e9a49751cf0dee644,60e56421b732a63ea707a209,2021-07-07_10h23.34.512,Simcolourproject_2stim_asymm_v5,2020.2.10,MacIntel,60,60e52e7cfedb1dae636df45f,,,,,,,,,1134,-58.50335693,-36.70666504,1,0,0,response5disk,,2,-12.42053223,-3.524902344,1,0,0,rectangle,-12.42053223,-3.524902344,1,0,0,-12.42053223,-3.524902344,1,0,0,1,33,193,127,1,,,,,,,,
,,,,,,,,,,,,,FF,,,,,,,,1.0171,,,,,,,,,,,,,,,,,,,,,,5ea2ac2e9a49751cf0dee644,60e56421b732a63ea707a209,2021-07-07_10h23.34.512,Simcolourproject_2stim_asymm_v5,2020.2.10,MacIntel,60,60e52e7cfedb1dae636df45f,,,,,,,,,3239,-22.08581543,-58.88018799,1,0,0,response5disk,,3,-1.573730469,-0.976989746,1,0,0,rectangle,-1.573730469,-0.976989746,1,0,0,-1.573730469,-0.976989746,1,0,0,1,34,194,139,1,,,,,,,,
,,,,,,,,,,,,,FF,,,,,,,,0.8504,,,,,,,,,,,,,,,,,,,,,,5ea2ac2e9a49751cf0dee644,60e56421b732a63ea707a209,2021-07-07_10h23.34.512,Simcolourproject_2stim_asymm_v5,2020.2.10,MacIntel,60,60e52e7cfedb1dae636df45f,,,,,,,,,1335,73.24932861,-34.40390015,1,0,0,response3disk,,5,7.636535645,7.044830322,1,0,0,rectangle,7.636535645,7.044830322,1,0,0,7.636535645,7.044830322,1,0,0,1,35,195,63,1,,,,,,,,
,,,,,,,,,,,,,FF,,,,,,,,0.6173,,,,,,,,,,,,,,,,,,,,,,5ea2ac2e9a49751cf0dee644,60e56421b732a63ea707a209,2021-07-07_10h23.34.512,Simcolourproject_2stim_asymm_v5,2020.2.10,MacIntel,60,60e52e7cfedb1dae636df45f,,,,,,,,,1407,63.99578857,-32.79641724,1,0,0,response3disk,,5,23.27490234,-0.666381836,1,0,0,rectangle,58.77032471,-44.32946777,1,0,0,-8.185791016,-0.398132324,1,0,0,1,36,196,146,1,,response3disk_3,TRUE,5,5,"[30,150,230,280,128,264,319,91,18,293,93,197,234,134,111,287,205,264,78,141]",1.301,rectangle
,,,,,,,,,,,,,FF,,,,,,,,1.7839,,,,,,,,,,,,,,,,,,,,,,5ea2ac2e9a49751cf0dee644,60e56421b732a63ea707a209,2021-07-07_10h23.34.512,Simcolourproject_2stim_asymm_v5,2020.2.10,MacIntel,60,60e52e7cfedb1dae636df45f,,,,,,,,,2498,34.09503174,101.2824097,1,0,0,response1disk,,7,8.331665039,11.03308105,1,0,0,rectangle,8.331665039,11.03308105,1,0,0,8.331665039,11.03308105,1,0,0,1,37,197,143,1,,,,,,,,
,,,,,,,,,,,,,FF,,,,,,,,0.8177,,,,,,,,,,,,,,,,,,,,,,5ea2ac2e9a49751cf0dee644,60e56421b732a63ea707a209,2021-07-07_10h23.34.512,Simcolourproject_2stim_asymm_v5,2020.2.10,MacIntel,60,60e52e7cfedb1dae636df45f,,,,,,,,,231,78.80487061,36.12097168,1,0,0,response1disk,,6,-3.897216797,2.900695801,1,0,0,rectangle,-3.897216797,2.900695801,1,0,0,-3.897216797,2.900695801,1,0,0,1,38,198,57,1,,,,,,,,
,,,,,,,,,,,,,FF,,,,,,,,1.8181,,,,,,,,,,,,,,,,,,,,,,5ea2ac2e9a49751cf0dee644,60e56421b732a63ea707a209,2021-07-07_10h23.34.512,Simcolourproject_2stim_asymm_v5,2020.2.10,MacIntel,60,60e52e7cfedb1dae636df45f,,,,,,,,,110,-28.35119629,-92.34259033,1,0,0,response5disk,,3,3.260925293,6.800109863,1,0,0,rectangle,3.260925293,6.800109863,1,0,0,3.260925293,6.800109863,1,0,0,1,39,199,40,1,,,,,,,,
,,,,,,,,,,,,,FF,,,,,,,,0.8676,,,,,,,,,,,,,,,,,,,,,,5ea2ac2e9a49751cf0dee644,60e56421b732a63ea707a209,2021-07-07_10h23.34.512,Simcolourproject_2stim_asymm_v5,2020.2.10,MacIntel,60,60e52e7cfedb1dae636df45f,,,,,,,,,60,41.97265625,-79.08084106,1,0,0,response3disk,,4,17.31469727,-7.703613281,1,0,0,rectangle,17.31469727,-7.703613281,1,0,0,17.31469727,-7.703613281,1,0,0,1,40,200,35,1,,,,,,,,
,,,,,,,,,,,,,FF,,,,,,,,0.8498,,,,,,,,,,,,,,,,,,,,,,5ea2ac2e9a49751cf0dee644,60e56421b732a63ea707a209,2021-07-07_10h23.34.512,Simcolourproject_2stim_asymm_v5,2020.2.10,MacIntel,60,60e52e7cfedb1dae636df45f,,,,,,,,,278,-72.58123779,-54.275177,1,0,0,response5disk,,2,8.694030762,3.494262695,1,0,0,rectangle,8.694030762,3.494262695,1,0,0,8.694030762,3.494262695,1,0,0,1,41,201,71,1,,,,,,,,
,,,,,,,,,,,,,FF,,,,,,,,0.8503,,,,,,,,,,,,,,,,,,,,,,5ea2ac2e9a49751cf0dee644,60e56421b732a63ea707a209,2021-07-07_10h23.34.512,Simcolourproject_2stim_asymm_v5,2020.2.10,MacIntel,60,60e52e7cfedb1dae636df45f,,,,,,,,,627,63.12298584,-34.06143188,1,0,0,response3disk,,5,22.58874512,-9.832244873,1,0,0,rectangle,22.58874512,-9.832244873,1,0,0,22.58874512,-9.832244873,1,0,0,1,42,202,17,1,,,,,,,,
,,,,,,,,,,,,,FF,,,,,,,,1.1509,,,,,,,,,,,,,,,,,,,,,,5ea2ac2e9a49751cf0dee644,60e56421b732a63ea707a209,2021-07-07_10h23.34.512,Simcolourproject_2stim_asymm_v5,2020.2.10,MacIntel,60,60e52e7cfedb1dae636df45f,,,,,,,,,1140,-38.04431152,-80.73608398,1,0,0,response5disk,,3,-8.71496582,-7.381835938,1,0,0,rectangle,-8.71496582,-7.381835938,1,0,0,-8.71496582,-7.381835938,1,0,0,1,43,203,32,1,,,,,,,,
,,,,,,,,,,,,,FF,,,,,,,,0.8669,,,,,,,,,,,,,,,,,,,,,,5ea2ac2e9a49751cf0dee644,60e56421b732a63ea707a209,2021-07-07_10h23.34.512,Simcolourproject_2stim_asymm_v5,2020.2.10,MacIntel,60,60e52e7cfedb1dae636df45f,,,,,,,,,4276,31.16278076,-75.85598755,1,0,0,response3disk,,4,-12.50976563,15.17617798,1,0,0,rectangle,43.96057129,108.177063,1,0,0,-5.631225586,-5.30871582,1,0,0,1,44,204,15,1,,response1disk_3,TRUE,7,7,"[30,150,230,280,128,264,319,91,18,293,93,197,234,134,111,287,205,264,78,141]",1.3163,rectangle
,,,,,,,,,,,,,FF,,,,,,,,1.434,,,,,,,,,,,,,,,,,,,,,,5ea2ac2e9a49751cf0dee644,60e56421b732a63ea707a209,2021-07-07_10h23.34.512,Simcolourproject_2stim_asymm_v5,2020.2.10,MacIntel,60,60e52e7cfedb1dae636df45f,,,,,,,,,1619,58.60516357,-90.94348145,1,0,0,response3disk,,4,-1.895385742,14.03778076,1,0,0,rectangle,-1.895385742,14.03778076,1,0,0,-1.895385742,14.03778076,1,0,0,1,45,205,42,1,,,,,,,,
,,,,,,,,,,,,,FF,,,,,,,,0.6507,,,,,,,,,,,,,,,,,,,,,,5ea2ac2e9a49751cf0dee644,60e56421b732a63ea707a209,2021-07-07_10h23.34.512,Simcolourproject_2stim_asymm_v5,2020.2.10,MacIntel,60,60e52e7cfedb1dae636df45f,,,,,,,,,3914,-50.79669189,-85.73278809,1,0,0,response5disk,,3,-9.152770996,-10.046875,1,0,0,rectangle,-9.152770996,-10.046875,1,0,0,-9.152770996,-10.046875,1,0,0,1,46,206,86,1,,,,,,,,
,,,,,,,,,,,,,FF,,,,,,,,1.0325,,,,,,,,,,,,,,,,,,,,,,5ea2ac2e9a49751cf0dee644,60e56421b732a63ea707a209,2021-07-07_10h23.34.512,Simcolourproject_2stim_asymm_v5,2020.2.10,MacIntel,60,60e52e7cfedb1dae636df45f,,,,,,,,,2563,24.09735107,-66.12695313,1,0,0,response3disk,,4,3.718994141,1.446166992,1,0,0,rectangle,3.718994141,1.446166992,1,0,0,3.718994141,1.446166992,1,0,0,1,47,207,48,1,,,,,,,,
,,,,,,,,,,,,,FF,,,,,,,,0.9173,,,,,,,,,,,,,,,,,,,,,,5ea2ac2e9a49751cf0dee644,60e56421b732a63ea707a209,2021-07-07_10h23.34.512,Simcolourproject_2stim_asymm_v5,2020.2.10,MacIntel,60,60e52e7cfedb1dae636df45f,,,,,,,,,312,58.50543213,-29.71047974,1,0,0,response3disk,,5,12.61328125,1.207763672,1,0,0,rectangle,12.61328125,1.207763672,1,0,0,12.61328125,1.207763672,1,0,0,1,48,208,133,1,,,,,,,,
,,,,,,,,,,,,,FF,,,,,,,,0.601,,,,,,,,,,,,,,,,,,,,,,5ea2ac2e9a49751cf0dee644,60e56421b732a63ea707a209,2021-07-07_10h23.34.512,Simcolourproject_2stim_asymm_v5,2020.2.10,MacIntel,60,60e52e7cfedb1dae636df45f,,,,,,,,,1167,92.34356689,32.96496582,1,0,0,response1disk,,6,-2.308898926,-2.107635498,1,0,0,rectangle,-2.308898926,-2.107635498,1,0,0,-2.308898926,-2.107635498,1,0,0,1,49,209,76,1,,,,,,,,
,,,,,,,,,,,,,FF,,,,,,,,0.8338,,,,,,,,,,,,,,,,,,,,,,5ea2ac2e9a49751cf0dee644,60e56421b732a63ea707a209,2021-07-07_10h23.34.512,Simcolourproject_2stim_asymm_v5,2020.2.10,MacIntel,60,60e52e7cfedb1dae636df45f,,,,,,,,,501,86.64770508,33.61273193,1,0,0,response1disk,,6,0.745239258,3.208618164,1,0,0,rectangle,0.745239258,3.208618164,1,0,0,0.745239258,3.208618164,1,0,0,1,50,210,129,1,,,,,,,,
,,,,,,,,,,,,,FF,,,,,,,,1.9027,,,,,,,,,,,,,,,,,,,,,,5ea2ac2e9a49751cf0dee644,60e56421b732a63ea707a209,2021-07-07_10h23.34.512,Simcolourproject_2stim_asymm_v5,2020.2.10,MacIntel,60,60e52e7cfedb1dae636df45f,,,,,,,,,2301,84.81225586,-42.7288208,1,0,0,response3disk,,5,17.23266602,-11.11108398,1,0,0,rectangle,17.23266602,-11.11108398,1,0,0,17.23266602,-11.11108398,1,0,0,1,51,211,70,1,,,,,,,,
,,,,,,,,,,,,,FF,,,,,,,,0.7497,,,,,,,,,,,,,,,,,,,,,,5ea2ac2e9a49751cf0dee644,60e56421b732a63ea707a209,2021-07-07_10h23.34.512,Simcolourproject_2stim_asymm_v5,2020.2.10,MacIntel,60,60e52e7cfedb1dae636df45f,,,,,,,,,721,-63.22332764,-37.47216797,1,0,0,response5disk,,2,-5.575378418,-7.237670898,1,0,0,rectangle,-5.575378418,-7.237670898,1,0,0,-5.575378418,-7.237670898,1,0,0,1,52,212,132,1,,,,,,,,
,,,,,,,,,,,,,FF,,,,,,,,0.9,,,,,,,,,,,,,,,,,,,,,,5ea2ac2e9a49751cf0dee644,60e56421b732a63ea707a209,2021-07-07_10h23.34.512,Simcolourproject_2stim_asymm_v5,2020.2.10,MacIntel,60,60e52e7cfedb1dae636df45f,,,,,,,,,1651,71.32562256,-48.47338867,1,0,0,response3disk,,5,14.09277344,-1.724761963,1,0,0,rectangle,14.09277344,-1.724761963,1,0,0,14.09277344,-1.724761963,1,0,0,1,53,213,124,1,,,,,,,,
,,,,,,,,,,,,,FF,,,,,,,,0.8822,,,,,,,,,,,,,,,,,,,,,,5ea2ac2e9a49751cf0dee644,60e56421b732a63ea707a209,2021-07-07_10h23.34.512,Simcolourproject_2stim_asymm_v5,2020.2.10,MacIntel,60,60e52e7cfedb1dae636df45f,,,,,,,,,136,65.02459717,-48.75512695,1,0,0,response3disk,,5,8.558105469,-5.753967285,1,0,0,rectangle,8.558105469,-5.753967285,1,0,0,8.558105469,-5.753967285,1,0,0,1,54,214,144,1,,,,,,,,
,,,,,,,,,,,,,FF,,,,,,,,1.2174,,,,,,,,,,,,,,,,,,,,,,5ea2ac2e9a49751cf0dee644,60e56421b732a63ea707a209,2021-07-07_10h23.34.512,Simcolourproject_2stim_asymm_v5,2020.2.10,MacIntel,60,60e52e7cfedb1dae636df45f,,,,,,,,,614,-86.64068604,-39.59255981,1,0,0,response5disk,,2,0.03717041,-5.788330078,1,0,0,rectangle,0.03717041,-5.788330078,1,0,0,0.03717041,-5.788330078,1,0,0,1,55,215,79,1,,,,,,,,
,,,,,,,,,,,,,FF,,,,,,,,1.0175,,,,,,,,,,,,,,,,,,,,,,5ea2ac2e9a49751cf0dee644,60e56421b732a63ea707a209,2021-07-07_10h23.34.512,Simcolourproject_2stim_asymm_v5,2020.2.10,MacIntel,60,60e52e7cfedb1dae636df45f,,,,,,,,,4330,46.78918457,77.84130859,1,0,0,response1disk,,7,12.58825684,2.811767578,1,0,0,rectangle,12.58825684,2.811767578,1,0,0,12.58825684,2.811767578,1,0,0,1,56,216,101,1,,,,,,,,
,,,,,,,,,,,,,FF,,,,,,,,0.7488,,,,,,,,,,,,,,,,,,,,,,5ea2ac2e9a49751cf0dee644,60e56421b732a63ea707a209,2021-07-07_10h23.34.512,Simcolourproject_2stim_asymm_v5,2020.2.10,MacIntel,60,60e52e7cfedb1dae636df45f,,,,,,,,,7,-22.85339355,-57.33407593,1,0,0,response5disk,,3,-20.34313965,0.696533203,1,0,0,rectangle,-20.34313965,0.696533203,1,0,0,-20.34313965,0.696533203,1,0,0,1,57,217,131,1,,,,,,,,
,,,,,,,,,,,,,FF,,,,,,,,0.8009,,,,,,,,,,,,,,,,,,,,,,5ea2ac2e9a49751cf0dee644,60e56421b732a63ea707a209,2021-07-07_10h23.34.512,Simcolourproject_2stim_asymm_v5,2020.2.10,MacIntel,60,60e52e7cfedb1dae636df45f,,,,,,,,,2687,37.3371582,-88.99609375,1,0,0,response3disk,,4,1.735229492,-7.458129883,1,0,0,rectangle,1.735229492,-7.458129883,1,0,0,1.735229492,-7.458129883,1,0,0,1,58,218,68,1,,,,,,,,
,,,,,,,,,,,,,FF,,,,,,,,0.7343,,,,,,,,,,,,,,,,,,,,,,5ea2ac2e9a49751cf0dee644,60e56421b732a63ea707a209,2021-07-07_10h23.34.512,Simcolourproject_2stim_asymm_v5,2020.2.10,MacIntel,60,60e52e7cfedb1dae636df45f,,,,,,,,,3807,38.18804932,-66.92498779,1,0,0,response3disk,,4,-4.228515625,9.929626465,1,0,0,rectangle,-4.228515625,9.929626465,1,0,0,-4.228515625,9.929626465,1,0,0,1,59,219,94,1,,,,,,,,
,,,,,,,,,,,,,FF,,,,,,,,0.6172,,,,,,,,,,,,,,,,,,,,,,5ea2ac2e9a49751cf0dee644,60e56421b732a63ea707a209,2021-07-07_10h23.34.512,Simcolourproject_2stim_asymm_v5,2020.2.10,MacIntel,60,60e52e7cfedb1dae636df45f,,,,,,,,,502,56.98608398,-49.42175293,1,0,0,response3disk,,5,5.453979492,-3.077575684,1,0,0,rectangle,5.453979492,-3.077575684,1,0,0,5.453979492,-3.077575684,1,0,0,1,60,220,1,1,,,,,,,,
,,,,,,,,,,,,,FF,,,,,,,,1.0674,,,,,,,,,,,,,,,,,,,,,,5ea2ac2e9a49751cf0dee644,60e56421b732a63ea707a209,2021-07-07_10h23.34.512,Simcolourproject_2stim_asymm_v5,2020.2.10,MacIntel,60,60e52e7cfedb1dae636df45f,,,,,,,,,3894,96.15515137,-42.90264893,1,0,0,response3disk,,5,22.25872803,-7.858337402,1,0,0,rectangle,22.25872803,-7.858337402,1,0,0,22.25872803,-7.858337402,1,0,0,1,61,221,87,1,,,,,,,,
,,,,,,,,,,,,,FF,,,,,,,,0.9511,,,,,,,,,,,,,,,,,,,,,,5ea2ac2e9a49751cf0dee644,60e56421b732a63ea707a209,2021-07-07_10h23.34.512,Simcolourproject_2stim_asymm_v5,2020.2.10,MacIntel,60,60e52e7cfedb1dae636df45f,,,,,,,,,886,-68.56152344,19.6998291,1,0,0,response7disk,,1,11.17779541,-5.127166748,1,0,0,rectangle,11.17779541,-5.127166748,1,0,0,11.17779541,-5.127166748,1,0,0,1,62,222,60,1,,,,,,,,
,,,,,,,,,,,,,FF,,,,,,,,0.7829,,,,,,,,,,,,,,,,,,,,,,5ea2ac2e9a49751cf0dee644,60e56421b732a63ea707a209,2021-07-07_10h23.34.512,Simcolourproject_2stim_asymm_v5,2020.2.10,MacIntel,60,60e52e7cfedb1dae636df45f,,,,,,,,,1961,-66.71575928,26.43377686,1,0,0,response7disk,,1,-7.314147949,11.58416748,1,0,0,rectangle,-7.314147949,11.58416748,1,0,0,-7.314147949,11.58416748,1,0,0,1,63,223,58,1,,,,,,,,
,,,,,,,,,,,,,FF,,,,,,,,1.1501,,,,,,,,,,,,,,,,,,,,,,5ea2ac2e9a49751cf0dee644,60e56421b732a63ea707a209,2021-07-07_10h23.34.512,Simcolourproject_2stim_asymm_v5,2020.2.10,MacIntel,60,60e52e7cfedb1dae636df45f,,,,,,,,,1799,-30.38873291,-70.91864014,1,0,0,response5disk,,3,-6.438598633,0.51385498,1,0,0,rectangle,-6.438598633,0.51385498,1,0,0,-6.438598633,0.51385498,1,0,0,1,64,224,84,1,,,,,,,,
,,,,,,,,,,,,,FF,,,,,,,,0.6837,,,,,,,,,,,,,,,,,,,,,,5ea2ac2e9a49751cf0dee644,60e56421b732a63ea707a209,2021-07-07_10h23.34.512,Simcolourproject_2stim_asymm_v5,2020.2.10,MacIntel,60,60e52e7cfedb1dae636df45f,,,,,,,,,3283,-89.95526123,-39.96707153,1,0,0,response5disk,,2,-7.270324707,-6.684967041,1,0,0,rectangle,-7.270324707,-6.684967041,1,0,0,-7.270324707,-6.684967041,1,0,0,1,65,225,141,1,,,,,,,,
,,,,,,,,,,,,,FF,,,,,,,,0.8494,,,,,,,,,,,,,,,,,,,,,,5ea2ac2e9a49751cf0dee644,60e56421b732a63ea707a209,2021-07-07_10h23.34.512,Simcolourproject_2stim_asymm_v5,2020.2.10,MacIntel,60,60e52e7cfedb1dae636df45f,,,,,,,,,636,-22.25512695,-46.48327637,1,0,0,response5disk,,3,11.01519775,-7.417602539,1,0,0,rectangle,11.01519775,-7.417602539,1,0,0,11.01519775,-7.417602539,1,0,0,1,66,226,85,1,,,,,,,,
,,,,,,,,,,,,,FF,,,,,,,,0.9004,,,,,,,,,,,,,,,,,,,,,,5ea2ac2e9a49751cf0dee644,60e56421b732a63ea707a209,2021-07-07_10h23.34.512,Simcolourproject_2stim_asymm_v5,2020.2.10,MacIntel,60,60e52e7cfedb1dae636df45f,,,,,,,,,437,-28.92779541,-70.27566528,1,0,0,response5disk,,3,2.094360352,3.099975586,1,0,0,rectangle,2.094360352,3.099975586,1,0,0,2.094360352,3.099975586,1,0,0,1,67,227,18,1,,,,,,,,
,,,,,,,,,,,,,FF,,,,,,,,1.2325,,,,,,,,,,,,,,,,,,,,,,5ea2ac2e9a49751cf0dee644,60e56421b732a63ea707a209,2021-07-07_10h23.34.512,Simcolourproject_2stim_asymm_v5,2020.2.10,MacIntel,60,60e52e7cfedb1dae636df45f,,,,,,,,,3936,-36.54248047,62.88696289,1,0,0,response7disk,,0,-3.913085938,4.009765625,1,0,0,rectangle,-3.913085938,4.009765625,1,0,0,-3.913085938,4.009765625,1,0,0,1,68,228,112,1,,,,,,,,
,,,,,,,,,,,,,FF,,,,,,,,0.7166,,,,,,,,,,,,,,,,,,,,,,5ea2ac2e9a49751cf0dee644,60e56421b732a63ea707a209,2021-07-07_10h23.34.512,Simcolourproject_2stim_asymm_v5,2020.2.10,MacIntel,60,60e52e7cfedb1dae636df45f,,,,,,,,,2691,45.31207275,-63.47994995,1,0,0,response3disk,,4,4.245544434,5.498779297,1,0,0,rectangle,-46.33331299,-84.5838623,1,0,0,11.05773926,-1.677978516,1,0,0,1,69,229,0,1,,response5disk_3,TRUE,3,3,"[30,150,230,280,128,264,319,91,18,293,93,197,234,134,111,287,205,264,78,141]",1.4839,rectangle
,,,,,,,,,,,,,FF,,,,,,,,0.967,,,,,,,,,,,,,,,,,,,,,,5ea2ac2e9a49751cf0dee644,60e56421b732a63ea707a209,2021-07-07_10h23.34.512,Simcolourproject_2stim_asymm_v5,2020.2.10,MacIntel,60,60e52e7cfedb1dae636df45f,,,,,,,,,3908,-74.55230713,35.91815186,1,0,0,response7disk,,1,-12.90234375,5.168945313,1,0,0,rectangle,-12.90234375,5.168945313,1,0,0,-12.90234375,5.168945313,1,0,0,1,70,230,52,1,,,,,,,,
,,,,,,,,,,,,,FF,,,,,,,,0.8331,,,,,,,,,,,,,,,,,,,,,,5ea2ac2e9a49751cf0dee644,60e56421b732a63ea707a209,2021-07-07_10h23.34.512,Simcolourproject_2stim_asymm_v5,2020.2.10,MacIntel,60,60e52e7cfedb1dae636df45f,,,,,,,,,3189,-92.29772949,-48.06848145,1,0,0,response5disk,,2,-4.655151367,1.487854004,1,0,0,rectangle,-4.655151367,1.487854004,1,0,0,-4.655151367,1.487854004,1,0,0,1,71,231,136,1,,,,,,,,
,,,,,,,,,,,,,FF,,,,,,,,0.7168,,,,,,,,,,,,,,,,,,,,,,5ea2ac2e9a49751cf0dee644,60e56421b732a63ea707a209,2021-07-07_10h23.34.512,Simcolourproject_2stim_asymm_v5,2020.2.10,MacIntel,60,60e52e7cfedb1dae636df45f,,,,,,,,,1871,70.20770264,-30.90942383,1,0,0,response3disk,,5,22.86364746,-3.834442139,1,0,0,rectangle,22.86364746,-3.834442139,1,0,0,22.86364746,-3.834442139,1,0,0,1,72,232,81,1,,,,,,,,
,,,,,,,,,,,,,FF,,,,,,,,0.9839,,,,,,,,,,,,,,,,,,,,,,5ea2ac2e9a49751cf0dee644,60e56421b732a63ea707a209,2021-07-07_10h23.34.512,Simcolourproject_2stim_asymm_v5,2020.2.10,MacIntel,60,60e52e7cfedb1dae636df45f,,,,,,,,,3568,78.37359619,-32.1192627,1,0,0,response3disk,,5,16.67987061,-3.377838135,1,0,0,rectangle,-85.73779297,53.00799561,1,0,0,-16.9128418,10.28521729,1,0,0,1,73,233,107,1,,response7disk_3,TRUE,1,1,"[30,150,230,280,128,264,319,91,18,293,93,197,234,134,111,287,205,264,78,141]",1.2031,rectangle
,,,,,,,,,,,,,FF,,,,,,,,0.8334,,,,,,,,,,,,,,,,,,,,,,5ea2ac2e9a49751cf0dee644,60e56421b732a63ea707a209,2021-07-07_10h23.34.512,Simcolourproject_2stim_asymm_v5,2020.2.10,MacIntel,60,60e52e7cfedb1dae636df45f,,,,,,,,,2977,80.92840576,31.62689209,1,0,0,response1disk,,6,-6.165344238,-2.210510254,1,0,0,rectangle,-6.165344238,-2.210510254,1,0,0,-6.165344238,-2.210510254,1,0,0,1,74,234,34,1,,,,,,,,
,,,,,,,,,,,,,FF,,,,,,,,1.9668,,,,,,,,,,,,,,,,,,,,,,5ea2ac2e9a49751cf0dee644,60e56421b732a63ea707a209,2021-07-07_10h23.34.512,Simcolourproject_2stim_asymm_v5,2020.2.10,MacIntel,60,60e52e7cfedb1dae636df45f,,,,,,,,,4317,-37.79901123,-91.18054199,1,0,0,response5disk,,3,13.35211182,2.381744385,1,0,0,rectangle,13.35211182,2.381744385,1,0,0,13.35211182,2.381744385,1,0,0,1,75,235,108,1,,,,,,,,
,,,,,,,,,,,,,FF,,,,,,,,0.9005,,,,,,,,,,,,,,,,,,,,,,5ea2ac2e9a49751cf0dee644,60e56421b732a63ea707a209,2021-07-07_10h23.34.512,Simcolourproject_2stim_asymm_v5,2020.2.10,MacIntel,60,60e52e7cfedb1dae636df45f,,,,,,,,,3896,73.28601074,-41.71679688,1,0,0,response3disk,,5,4.071289063,3.137084961,1,0,0,rectangle,4.071289063,3.137084961,1,0,0,4.071289063,3.137084961,1,0,0,1,76,236,28,1,,,,,,,,
,,,,,,,,,,,,,FF,,,,,,,,0.5669,,,,,,,,,,,,,,,,,,,,,,5ea2ac2e9a49751cf0dee644,60e56421b732a63ea707a209,2021-07-07_10h23.34.512,Simcolourproject_2stim_asymm_v5,2020.2.10,MacIntel,60,60e52e7cfedb1dae636df45f,,,,,,,,,915,56.36431885,-30.18267822,1,0,0,response3disk,,5,5.469665527,-2.414489746,1,0,0,rectangle,5.469665527,-2.414489746,1,0,0,5.469665527,-2.414489746,1,0,0,1,77,237,118,1,,,,,,,,
,,,,,,,,,,,,,FF,,,,,,,,0.5843,,,,,,,,,,,,,,,,,,,,,,5ea2ac2e9a49751cf0dee644,60e56421b732a63ea707a209,2021-07-07_10h23.34.512,Simcolourproject_2stim_asymm_v5,2020.2.10,MacIntel,60,60e52e7cfedb1dae636df45f,,,,,,,,,3629,74.15148926,29.8147583,1,0,0,response1disk,,6,16.72491455,2.416442871,1,0,0,rectangle,16.72491455,2.416442871,1,0,0,16.72491455,2.416442871,1,0,0,1,78,238,16,1,,,,,,,,
,,,,,,,,,,,,,FF,,,,,,,,0.8003,,,,,,,,,,,,,,,,,,,,,,5ea2ac2e9a49751cf0dee644,60e56421b732a63ea707a209,2021-07-07_10h23.34.512,Simcolourproject_2stim_asymm_v5,2020.2.10,MacIntel,60,60e52e7cfedb1dae636df45f,,,,,,,,,1374,-13.4197998,-55.41558838,1,0,0,response5disk,,3,4.876586914,3.445831299,1,0,0,rectangle,4.876586914,3.445831299,1,0,0,4.876586914,3.445831299,1,0,0,1,79,239,6,1,,,,,,,,
,,,,,,,,,,,,,FF,,,,,,,,0.9989,,,,,,,,,,,,,,,,,,,,,,5ea2ac2e9a49751cf0dee644,60e56421b732a63ea707a209,2021-07-07_10h23.34.512,Simcolourproject_2stim_asymm_v5,2020.2.10,MacIntel,60,60e52e7cfedb1dae636df45f,,,,,,,,,633,-85.12432861,-48.67440796,1,0,0,response5disk,,2,-11.66552734,-11.23968506,1,0,0,rectangle,-11.66552734,-11.23968506,1,0,0,-11.66552734,-11.23968506,1,0,0,1,80,240,74,1,,,,,,,,
,,,,,,,,,,,,,FF,,,,,,,,1.533,,,,,,,,,,,,,,,,,,,,,,5ea2ac2e9a49751cf0dee644,60e56421b732a63ea707a209,2021-07-07_10h23.34.512,Simcolourproject_2stim_asymm_v5,2020.2.10,MacIntel,60,60e52e7cfedb1dae636df45f,,,,,,,,,875,91.31451416,-31.86328125,1,0,0,response3disk,,5,5.862609863,-0.747375488,1,0,0,rectangle,5.862609863,-0.747375488,1,0,0,5.862609863,-0.747375488,1,0,0,1,81,241,150,1,,,,,,,,
