key_resp.keys,key_resp.rt,key_resp_14.keys,key_resp_14.rt,key_resp_15.keys,key_resp_15.rt,key_resp_17.keys,key_resp_17.rt,key_resp_9.keys,key_resp_9.rt,key_resp_10.keys,key_resp_10.rt,practice_comparison,Ecc,mouse_5.x,mouse_5.y,mouse_5.leftButton,mouse_5.midButton,mouse_5.rightButton,mouse_5.clicked_name,pracsimilarity,response_time,mouse_10.x,mouse_10.y,mouse_10.leftButton,mouse_10.midButton,mouse_10.rightButton,mouse_10.clicked_name,mouse_7.x,mouse_7.y,mouse_7.leftButton,mouse_7.midButton,mouse_7.rightButton,mouse_6.x,mouse_6.y,mouse_6.leftButton,mouse_6.midButton,mouse_6.rightButton,duringprac.thisRepN,duringprac.thisTrialN,duringprac.thisN,duringprac.thisIndex,duringprac.ran,participant,session,date,expName,psychopyVersion,OS,frameRate,study_id,mouse_7.clicked_name,catchpracsimilarity,catch_response_time,catchnumberprac,catchtrialorderprac,mouse_6.clicked_name,key_resp_22.keys,key_resp_22.rt,realcomparison,mouse.x,mouse.y,mouse.leftButton,mouse.midButton,mouse.rightButton,mouse.clicked_name,Colour2,similarity,mouse_2.x,mouse_2.y,mouse_2.leftButton,mouse_2.midButton,mouse_2.rightButton,mouse_2.clicked_name,mouse_3.x,mouse_3.y,mouse_3.leftButton,mouse_3.midButton,mouse_3.rightButton,mouse_11.x,mouse_11.y,mouse_11.leftButton,mouse_11.midButton,mouse_11.rightButton,trials_2.thisRepN,trials_2.thisTrialN,trials_2.thisN,trials_2.thisIndex,trials_2.ran,Colour1,mouse_3.clicked_name,catchornah,catchsimilarity,catchnumber,catchtrialorder,catchRT,mouse_11.clicked_name
space,3.2641,space,18.8742,space,21.4619,space,10.5972,space,1.7438,space,4.037,155,PF,-93.86366421,-39.90907192,1,0,0,response5disk_5,2,5.9074,23.40905887,-3.090891421,1,0,0,rectangle_8,23.40905887,-3.090891421,1,0,0,23.40905887,-3.090891421,1,0,0,0,0,0,6,1,5ea85f905036240a7979d0bd,60e561b69d574c6f31f82600,2021-07-07_10h12.09.112,Simcolourproject_2stim_asymm_v5,2020.2.10,Win32,60,60e52e7cfedb1dae636df45f,,,,,,,,,,,,,,,,,,,,,,,,,,,,,,,,,,,,,,,,,,,,,,
,,,,,,,,,,,,131,FF,-68.40911967,105.5454683,1,0,0,response7disk_5,0,1.3014,9.318150282,-6.727254927,1,0,0,rectangle_8,120.6817827,56.454561,1,0,0,-7.500086421,-1.272709668,1,0,0,0,1,1,3,1,5ea85f905036240a7979d0bd,60e561b69d574c6f31f82600,2021-07-07_10h12.09.112,Simcolourproject_2stim_asymm_v5,2020.2.10,Win32,60,60e52e7cfedb1dae636df45f,response1disk_7,6,4.6885,6,"[2,5]",rectangle_4,,,,,,,,,,,,,,,,,,,,,,,,,,,,,,,,,,,,,,,,
,,,,,,,,,,,,4,PF,-51.1364485,-108.9999785,1,0,0,response5disk_5,3,1.585,-4.318268353,1.454562962,1,0,0,rectangle_8,-4.318268353,1.454562962,1,0,0,-4.318268353,1.454562962,1,0,0,0,2,2,4,1,5ea85f905036240a7979d0bd,60e561b69d574c6f31f82600,2021-07-07_10h12.09.112,Simcolourproject_2stim_asymm_v5,2020.2.10,Win32,60,60e52e7cfedb1dae636df45f,,,,,,,,,,,,,,,,,,,,,,,,,,,,,,,,,,,,,,,,,,,,,,
,,,,,,,,,,,,24,FF,54.77269411,-108.9999785,1,0,0,response3disk_5,4,2.3359,-8.86366725,1.000017524,1,0,0,rectangle_8,-8.86366725,1.000017524,1,0,0,-8.86366725,1.000017524,1,0,0,0,3,3,5,1,5ea85f905036240a7979d0bd,60e561b69d574c6f31f82600,2021-07-07_10h12.09.112,Simcolourproject_2stim_asymm_v5,2020.2.10,Win32,60,60e52e7cfedb1dae636df45f,,,,,,,,,,,,,,,,,,,,,,,,,,,,,,,,,,,,,,,,,,,,,,
,,,,,,,,,,,,157,PF,115.2272374,-49.90907156,1,0,0,response3disk_5,5,3.8206,3.863549536,0.545472085,1,0,0,rectangle_8,121.5908735,46.00004366,1,0,0,8.409059405,1.000017524,1,0,0,0,4,4,2,1,5ea85f905036240a7979d0bd,60e561b69d574c6f31f82600,2021-07-07_10h12.09.112,Simcolourproject_2stim_asymm_v5,2020.2.10,Win32,60,60e52e7cfedb1dae636df45f,response1disk_7,6,2.0353,6,"[2,5]",rectangle_4,,,,,,,,,,,,,,,,,,,,,,,,,,,,,,,,,,,,,,,,
,,,,,,,,,,,,24,FF,46.13633078,-118.9999782,1,0,0,response3disk_5,4,2.085,-2.5000866,4.181835592,1,0,0,rectangle_8,-2.5000866,4.181835592,1,0,0,-2.5000866,4.181835592,1,0,0,0,5,5,0,1,5ea85f905036240a7979d0bd,60e561b69d574c6f31f82600,2021-07-07_10h12.09.112,Simcolourproject_2stim_asymm_v5,2020.2.10,Win32,60,60e52e7cfedb1dae636df45f,,,,,,,,,,,,,,,,,,,,,,,,,,,,,,,,,,,,,,,,,,,,,,
,,,,,,,,,,,,11,PF,-101.5909367,-58.09088945,1,0,0,response5disk_5,2,1.5183,14.3181501,-0.818164229,1,0,0,rectangle_8,14.3181501,-0.818164229,1,0,0,14.3181501,-0.818164229,1,0,0,0,6,6,1,1,5ea85f905036240a7979d0bd,60e561b69d574c6f31f82600,2021-07-07_10h12.09.112,Simcolourproject_2stim_asymm_v5,2020.2.10,Win32,60,60e52e7cfedb1dae636df45f,,,,,,,,,,,,,,,,,,,,,,,,,,,,,,,,,,,,,,,,,,,,,,
,,,,,,,,,,,,,FF,,,,,,,,1.2515,,,,,,,,,,,,,,,,,,,,,,5ea85f905036240a7979d0bd,60e561b69d574c6f31f82600,2021-07-07_10h12.09.112,Simcolourproject_2stim_asymm_v5,2020.2.10,Win32,60,60e52e7cfedb1dae636df45f,,,,,,,space,4.1109,1281,92.04542005,-43.99998087,1,0,0,response3disk,,5,-7.500086421,5.545471907,1,0,0,rectangle,-7.500086421,5.545471907,1,0,0,-7.500086421,5.545471907,1,0,0,0,0,0,55,1,,,,,,,,
,,,,,,,,,,,,,FF,,,,,,,,1.8354,,,,,,,,,,,,,,,,,,,,,,5ea85f905036240a7979d0bd,60e561b69d574c6f31f82600,2021-07-07_10h12.09.112,Simcolourproject_2stim_asymm_v5,2020.2.10,Win32,60,60e52e7cfedb1dae636df45f,,,,,,,,,2002,60.68178481,-108.5453776,1,0,0,response3disk,,4,-2.954576552,-4.454527736,1,0,0,rectangle,-2.954576552,-4.454527736,1,0,0,-2.954576552,-4.454527736,1,0,0,0,1,1,71,1,,,,,,,,
,,,,,,,,,,,,,FF,,,,,,,,1.2846,,,,,,,,,,,,,,,,,,,,,,5ea85f905036240a7979d0bd,60e561b69d574c6f31f82600,2021-07-07_10h12.09.112,Simcolourproject_2stim_asymm_v5,2020.2.10,Win32,60,60e52e7cfedb1dae636df45f,,,,,,,,,4160,111.1363285,64.63637888,1,0,0,response1disk,,6,-2.954576552,-2.636345983,1,0,0,rectangle,-2.954576552,-2.636345983,1,0,0,-2.954576552,-2.636345983,1,0,0,0,2,2,17,1,,,,,,,,
,,,,,,,,,,,,,FF,,,,,,,,1.5681,,,,,,,,,,,,,,,,,,,,,,5ea85f905036240a7979d0bd,60e561b69d574c6f31f82600,2021-07-07_10h12.09.112,Simcolourproject_2stim_asymm_v5,2020.2.10,Win32,60,60e52e7cfedb1dae636df45f,,,,,,,,,2602,106.5908741,-67.63634366,1,0,0,response3disk,,5,-2.045485675,0.545472085,1,0,0,rectangle,-2.045485675,0.545472085,1,0,0,-2.045485675,0.545472085,1,0,0,0,3,3,63,1,,,,,,,,
,,,,,,,,,,,,,FF,,,,,,,,2.2356,,,,,,,,,,,,,,,,,,,,,,5ea85f905036240a7979d0bd,60e561b69d574c6f31f82600,2021-07-07_10h12.09.112,Simcolourproject_2stim_asymm_v5,2020.2.10,Win32,60,60e52e7cfedb1dae636df45f,,,,,,,,,1221,42.95451272,-107.6363422,1,0,0,response3disk,,4,-16.13644975,-12.63634562,1,0,0,rectangle,-16.13644975,-12.63634562,1,0,0,-16.13644975,-12.63634562,1,0,0,0,4,4,84,1,,,,,,,,
,,,,,,,,,,,,,FF,,,,,,,,1.4513,,,,,,,,,,,,,,,,,,,,,,5ea85f905036240a7979d0bd,60e561b69d574c6f31f82600,2021-07-07_10h12.09.112,Simcolourproject_2stim_asymm_v5,2020.2.10,Win32,60,60e52e7cfedb1dae636df45f,,,,,,,,,947,120.2272372,50.5454703,1,0,0,response1disk,,6,9.318150282,0.545472085,1,0,0,rectangle,9.318150282,0.545472085,1,0,0,9.318150282,0.545472085,1,0,0,0,5,5,81,1,,,,,,,,
,,,,,,,,,,,,,FF,,,,,,,,1.7185,,,,,,,,,,,,,,,,,,,,,,5ea85f905036240a7979d0bd,60e561b69d574c6f31f82600,2021-07-07_10h12.09.112,Simcolourproject_2stim_asymm_v5,2020.2.10,Win32,60,60e52e7cfedb1dae636df45f,,,,,,,,,2584,107.499965,69.63637871,1,0,0,response1disk,,6,-27.95457566,-2.181800544,1,0,0,rectangle,-27.95457566,-2.181800544,1,0,0,-27.95457566,-2.181800544,1,0,0,0,6,6,14,1,,,,,,,,
,,,,,,,,,,,,,FF,,,,,,,,0.8675,,,,,,,,,,,,,,,,,,,,,,5ea85f905036240a7979d0bd,60e561b69d574c6f31f82600,2021-07-07_10h12.09.112,Simcolourproject_2stim_asymm_v5,2020.2.10,Win32,60,60e52e7cfedb1dae636df45f,,,,,,,,,2208,33.40905851,96.45455956,1,0,0,response1disk,,7,2.499913221,0.545472085,1,0,0,rectangle,2.499913221,0.545472085,1,0,0,2.499913221,0.545472085,1,0,0,0,7,7,65,1,,,,,,,,
,,,,,,,,,,,,,FF,,,,,,,,1.3182,,,,,,,,,,,,,,,,,,,,,,5ea85f905036240a7979d0bd,60e561b69d574c6f31f82600,2021-07-07_10h12.09.112,Simcolourproject_2stim_asymm_v5,2020.2.10,Win32,60,60e52e7cfedb1dae636df45f,,,,,,,,,3719,-66.13644796,-95.81816083,1,0,0,response5disk,,3,7.04542309,-0.818164229,1,0,0,rectangle,7.04542309,-0.818164229,1,0,0,7.04542309,-0.818164229,1,0,0,0,8,8,30,1,,,,,,,,
,,,,,,,,,,,,,FF,,,,,,,,1.1678,,,,,,,,,,,,,,,,,,,,,,5ea85f905036240a7979d0bd,60e561b69d574c6f31f82600,2021-07-07_10h12.09.112,Simcolourproject_2stim_asymm_v5,2020.2.10,Win32,60,60e52e7cfedb1dae636df45f,,,,,,,,,3459,74.31814796,99.18183219,1,0,0,response1disk,,7,9.77269572,4.181835592,1,0,0,rectangle,9.77269572,4.181835592,1,0,0,9.77269572,4.181835592,1,0,0,0,9,9,131,1,,,,,,,,
,,,,,,,,,,,,,FF,,,,,,,,2.3189,,,,,,,,,,,,,,,,,,,,,,5ea85f905036240a7979d0bd,60e561b69d574c6f31f82600,2021-07-07_10h12.09.112,Simcolourproject_2stim_asymm_v5,2020.2.10,Win32,60,60e52e7cfedb1dae636df45f,,,,,,,,,3094,87.04542023,-27.63634509,1,0,0,response3disk,,5,15.22724098,-5.818164051,1,0,0,rectangle,15.22724098,-5.818164051,1,0,0,15.22724098,-5.818164051,1,0,0,0,10,10,139,1,,,,,,,,
,,,,,,,,,,,,,FF,,,,,,,,1.3846,,,,,,,,,,,,,,,,,,,,,,5ea85f905036240a7979d0bd,60e561b69d574c6f31f82600,2021-07-07_10h12.09.112,Simcolourproject_2stim_asymm_v5,2020.2.10,Win32,60,60e52e7cfedb1dae636df45f,,,,,,,,,632,-103.4091184,38.27274346,1,0,0,response7disk,,1,13.40905923,-5.363618612,1,0,0,rectangle,49.77269429,107.8182233,1,0,0,0.681731468,-4.909073174,1,0,0,0,11,11,24,1,,response1disk_3,TRUE,7,7,"[38,81,260,263,291,12,242,135,99,219,312,115,51,186,235,78,144,216,96,226]",2.7195,rectangle
,,,,,,,,,,,,,FF,,,,,,,,1.7856,,,,,,,,,,,,,,,,,,,,,,5ea85f905036240a7979d0bd,60e561b69d574c6f31f82600,2021-07-07_10h12.09.112,Simcolourproject_2stim_asymm_v5,2020.2.10,Win32,60,60e52e7cfedb1dae636df45f,,,,,,,,,3979,-74.31826585,-111.2727057,1,0,0,response5disk,,3,11.13633204,-6.272709489,1,0,0,rectangle,11.13633204,-6.272709489,1,0,0,11.13633204,-6.272709489,1,0,0,0,12,12,27,1,,,,,,,,
,,,,,,,,,,,,,FF,,,,,,,,1.3848,,,,,,,,,,,,,,,,,,,,,,5ea85f905036240a7979d0bd,60e561b69d574c6f31f82600,2021-07-07_10h12.09.112,Simcolourproject_2stim_asymm_v5,2020.2.10,Win32,60,60e52e7cfedb1dae636df45f,,,,,,,,,3586,-102.954573,-59.45452577,1,0,0,response5disk,,2,20.68173075,6.000017345,1,0,0,rectangle,20.68173075,6.000017345,1,0,0,20.68173075,6.000017345,1,0,0,0,13,13,57,1,,,,,,,,
,,,,,,,,,,,,,FF,,,,,,,,1.0843,,,,,,,,,,,,,,,,,,,,,,5ea85f905036240a7979d0bd,60e561b69d574c6f31f82600,2021-07-07_10h12.09.112,Simcolourproject_2stim_asymm_v5,2020.2.10,Win32,60,60e52e7cfedb1dae636df45f,,,,,,,,,2544,57.49991125,-95.81816083,1,0,0,response3disk,,4,15.68173093,1.9091084,1,0,0,rectangle,15.68173093,1.9091084,1,0,0,15.68173093,1.9091084,1,0,0,0,14,14,133,1,,,,,,,,
,,,,,,,,,,,,,FF,,,,,,,,1.5683,,,,,,,,,,,,,,,,,,,,,,5ea85f905036240a7979d0bd,60e561b69d574c6f31f82600,2021-07-07_10h12.09.112,Simcolourproject_2stim_asymm_v5,2020.2.10,Win32,60,60e52e7cfedb1dae636df45f,,,,,,,,,1509,136.590873,55.09092468,1,0,0,response1disk,,6,3.863549536,1.454562962,1,0,0,rectangle,3.863549536,1.454562962,1,0,0,3.863549536,1.454562962,1,0,0,0,15,15,56,1,,,,,,,,
,,,,,,,,,,,,,FF,,,,,,,,0.9345,,,,,,,,,,,,,,,,,,,,,,5ea85f905036240a7979d0bd,60e561b69d574c6f31f82600,2021-07-07_10h12.09.112,Simcolourproject_2stim_asymm_v5,2020.2.10,Win32,60,60e52e7cfedb1dae636df45f,,,,,,,,,2888,51.59087604,111.454559,1,0,0,response1disk,,7,17.49991268,-3.999982297,1,0,0,rectangle,17.49991268,-3.999982297,1,0,0,17.49991268,-3.999982297,1,0,0,0,16,16,40,1,,,,,,,,
,,,,,,,,,,,,,FF,,,,,,,,1.2179,,,,,,,,,,,,,,,,,,,,,,5ea85f905036240a7979d0bd,60e561b69d574c6f31f82600,2021-07-07_10h12.09.112,Simcolourproject_2stim_asymm_v5,2020.2.10,Win32,60,60e52e7cfedb1dae636df45f,,,,,,,,,438,-102.954573,52.36365205,1,0,0,response7disk,,1,7.04542309,4.181835592,1,0,0,rectangle,7.04542309,4.181835592,1,0,0,7.04542309,4.181835592,1,0,0,0,17,17,31,1,,,,,,,,
,,,,,,,,,,,,,FF,,,,,,,,1.4847,,,,,,,,,,,,,,,,,,,,,,5ea85f905036240a7979d0bd,60e561b69d574c6f31f82600,2021-07-07_10h12.09.112,Simcolourproject_2stim_asymm_v5,2020.2.10,Win32,60,60e52e7cfedb1dae636df45f,,,,,,,,,3225,96.59087443,-76.27270699,1,0,0,response3disk,,5,0.681731468,-8.090891242,1,0,0,rectangle,0.681731468,-8.090891242,1,0,0,0.681731468,-8.090891242,1,0,0,0,18,18,34,1,,,,,,,,
,,,,,,,,,,,,,FF,,,,,,,,1.6017,,,,,,,,,,,,,,,,,,,,,,5ea85f905036240a7979d0bd,60e561b69d574c6f31f82600,2021-07-07_10h12.09.112,Simcolourproject_2stim_asymm_v5,2020.2.10,Win32,60,60e52e7cfedb1dae636df45f,,,,,,,,,218,102.4999651,-53.99998051,1,0,0,response3disk,,5,-1.590940237,-3.999982297,1,0,0,rectangle,-1.590940237,-3.999982297,1,0,0,-1.590940237,-3.999982297,1,0,0,0,19,19,15,1,,,,,,,,
,,,,,,,,,,,,,FF,,,,,,,,1.2678,,,,,,,,,,,,,,,,,,,,,,5ea85f905036240a7979d0bd,60e561b69d574c6f31f82600,2021-07-07_10h12.09.112,Simcolourproject_2stim_asymm_v5,2020.2.10,Win32,60,60e52e7cfedb1dae636df45f,,,,,,,,,667,90.68178374,32.36365277,1,0,0,response1disk,,6,24.31814975,6.000017345,1,0,0,rectangle,24.31814975,6.000017345,1,0,0,24.31814975,6.000017345,1,0,0,0,20,20,124,1,,,,,,,,
,,,,,,,,,,,,,FF,,,,,,,,1.1341,,,,,,,,,,,,,,,,,,,,,,5ea85f905036240a7979d0bd,60e561b69d574c6f31f82600,2021-07-07_10h12.09.112,Simcolourproject_2stim_asymm_v5,2020.2.10,Win32,60,60e52e7cfedb1dae636df45f,,,,,,,,,2145,105.2272378,46.00004366,1,0,0,response1disk,,6,-0.227303922,-5.363618612,1,0,0,rectangle,-0.227303922,-5.363618612,1,0,0,-0.227303922,-5.363618612,1,0,0,0,21,21,52,1,,,,,,,,
,,,,,,,,,,,,,FF,,,,,,,,1.0345,,,,,,,,,,,,,,,,,,,,,,5ea85f905036240a7979d0bd,60e561b69d574c6f31f82600,2021-07-07_10h12.09.112,Simcolourproject_2stim_asymm_v5,2020.2.10,Win32,60,60e52e7cfedb1dae636df45f,,,,,,,,,1893,-113.8636635,-54.90907139,1,0,0,response5disk,,2,8.863549357,7.818199098,1,0,0,rectangle,8.863549357,7.818199098,1,0,0,8.863549357,7.818199098,1,0,0,0,22,22,103,1,,,,,,,,
,,,,,,,,,,,,,FF,,,,,,,,1.0172,,,,,,,,,,,,,,,,,,,,,,5ea85f905036240a7979d0bd,60e561b69d574c6f31f82600,2021-07-07_10h12.09.112,Simcolourproject_2stim_asymm_v5,2020.2.10,Win32,60,60e52e7cfedb1dae636df45f,,,,,,,,,2578,106.1363286,39.18183434,1,0,0,response1disk,,6,7.04542309,-5.363618612,1,0,0,rectangle,7.04542309,-5.363618612,1,0,0,7.04542309,-5.363618612,1,0,0,0,23,23,114,1,,,,,,,,
,,,,,,,,,,,,,FF,,,,,,,,3.9876,,,,,,,,,,,,,,,,,,,,,,5ea85f905036240a7979d0bd,60e561b69d574c6f31f82600,2021-07-07_10h12.09.112,Simcolourproject_2stim_asymm_v5,2020.2.10,Win32,60,60e52e7cfedb1dae636df45f,,,,,,,,,468,78.4090569,44.18183416,1,0,0,response1disk,,6,10.68173111,-4.909073174,1,0,0,rectangle,10.68173111,-4.909073174,1,0,0,10.68173111,-4.909073174,1,0,0,0,24,24,28,1,,,,,,,,
,,,,,,,,,,,,,FF,,,,,,,,3.0195,,,,,,,,,,,,,,,,,,,,,,5ea85f905036240a7979d0bd,60e561b69d574c6f31f82600,2021-07-07_10h12.09.112,Simcolourproject_2stim_asymm_v5,2020.2.10,Win32,60,60e52e7cfedb1dae636df45f,,,,,,,,,1386,123.8636007,-38.54538012,1,0,0,response3disk,,5,-3.40912199,-13.99998194,1,0,0,rectangle,-3.40912199,-13.99998194,1,0,0,-3.40912199,-13.99998194,1,0,0,0,25,25,148,1,,,,,,,,
,,,,,,,,,,,,,FF,,,,,,,,1.0843,,,,,,,,,,,,,,,,,,,,,,5ea85f905036240a7979d0bd,60e561b69d574c6f31f82600,2021-07-07_10h12.09.112,Simcolourproject_2stim_asymm_v5,2020.2.10,Win32,60,60e52e7cfedb1dae636df45f,,,,,,,,,1370,47.04542166,-119.4545236,1,0,0,response3disk,,4,-16.5909397,-3.545436859,1,0,0,rectangle,-16.5909397,-3.545436859,1,0,0,-16.5909397,-3.545436859,1,0,0,0,26,26,16,1,,,,,,,,
,,,,,,,,,,,,,FF,,,,,,,,1.0178,,,,,,,,,,,,,,,,,,,,,,5ea85f905036240a7979d0bd,60e561b69d574c6f31f82600,2021-07-07_10h12.09.112,Simcolourproject_2stim_asymm_v5,2020.2.10,Win32,60,60e52e7cfedb1dae636df45f,,,,,,,,,104,97.04541987,41.90913471,1,0,0,response1disk,,6,5.227241337,-3.999982297,1,0,0,rectangle,5.227241337,-3.999982297,1,0,0,5.227241337,-3.999982297,1,0,0,0,27,27,156,1,,,,,,,,
,,,,,,,,,,,,,FF,,,,,,,,0.8343,,,,,,,,,,,,,,,,,,,,,,5ea85f905036240a7979d0bd,60e561b69d574c6f31f82600,2021-07-07_10h12.09.112,Simcolourproject_2stim_asymm_v5,2020.2.10,Win32,60,60e52e7cfedb1dae636df45f,,,,,,,,,1163,36.13633114,102.8182234,1,0,0,response1disk,,7,-1.136450285,-1.272709668,1,0,0,rectangle,-1.136450285,-1.272709668,1,0,0,-1.136450285,-1.272709668,1,0,0,0,28,28,109,1,,,,,,,,
,,,,,,,,,,,,,FF,,,,,,,,0.9837,,,,,,,,,,,,,,,,,,,,,,5ea85f905036240a7979d0bd,60e561b69d574c6f31f82600,2021-07-07_10h12.09.112,Simcolourproject_2stim_asymm_v5,2020.2.10,Win32,60,60e52e7cfedb1dae636df45f,,,,,,,,,725,55.6817295,-106.7272514,1,0,0,response3disk,,4,9.318150282,-8.090891242,1,0,0,rectangle,9.318150282,-8.090891242,1,0,0,9.318150282,-8.090891242,1,0,0,0,29,29,12,1,,,,,,,,
,,,,,,,,,,,,,FF,,,,,,,,2.7864,,,,,,,,,,,,,,,,,,,,,,5ea85f905036240a7979d0bd,60e561b69d574c6f31f82600,2021-07-07_10h12.09.112,Simcolourproject_2stim_asymm_v5,2020.2.10,Win32,60,60e52e7cfedb1dae636df45f,,,,,,,,,3921,42.49991179,-89.4545247,1,0,0,response3disk,,4,0.681731468,12.36365348,1,0,0,rectangle,0.681731468,12.36365348,1,0,0,0.681731468,12.36365348,1,0,0,0,30,30,3,1,,,,,,,,
,,,,,,,,,,,,,FF,,,,,,,,1.7021,,,,,,,,,,,,,,,,,,,,,,5ea85f905036240a7979d0bd,60e561b69d574c6f31f82600,2021-07-07_10h12.09.112,Simcolourproject_2stim_asymm_v5,2020.2.10,Win32,60,60e52e7cfedb1dae636df45f,,,,,,,,,4046,-69.31826603,90.54546887,1,0,0,response7disk,,0,-12.04548532,-6.272709489,1,0,0,rectangle,-12.04548532,-6.272709489,1,0,0,-12.04548532,-6.272709489,1,0,0,0,31,31,26,1,,,,,,,,
,,,,,,,,,,,,,FF,,,,,,,,1.3848,,,,,,,,,,,,,,,,,,,,,,5ea85f905036240a7979d0bd,60e561b69d574c6f31f82600,2021-07-07_10h12.09.112,Simcolourproject_2stim_asymm_v5,2020.2.10,Win32,60,60e52e7cfedb1dae636df45f,,,,,,,,,2454,108.4090558,-55.36356134,1,0,0,response3disk,,5,2.045423269,2.818199277,1,0,0,rectangle,2.045423269,2.818199277,1,0,0,2.045423269,2.818199277,1,0,0,0,32,32,132,1,,,,,,,,
,,,,,,,,,,,,,FF,,,,,,,,1.1846,,,,,,,,,,,,,,,,,,,,,,5ea85f905036240a7979d0bd,60e561b69d574c6f31f82600,2021-07-07_10h12.09.112,Simcolourproject_2stim_asymm_v5,2020.2.10,Win32,60,60e52e7cfedb1dae636df45f,,,,,,,,,1581,116.5908737,37.36365259,1,0,0,response1disk,,6,3.409059584,-6.272709489,1,0,0,rectangle,3.409059584,-6.272709489,1,0,0,3.409059584,-6.272709489,1,0,0,0,33,33,125,1,,,,,,,,
,,,,,,,,,,,,,FF,,,,,,,,1.0176,,,,,,,,,,,,,,,,,,,,,,5ea85f905036240a7979d0bd,60e561b69d574c6f31f82600,2021-07-07_10h12.09.112,Simcolourproject_2stim_asymm_v5,2020.2.10,Win32,60,60e52e7cfedb1dae636df45f,,,,,,,,,454,40.22724009,87.81822398,1,0,0,response1disk,,7,-1.136450285,-7.181800365,1,0,0,rectangle,-1.136450285,-7.181800365,1,0,0,-1.136450285,-7.181800365,1,0,0,0,34,34,141,1,,,,,,,,
,,,,,,,,,,,,,FF,,,,,,,,0.6841,,,,,,,,,,,,,,,,,,,,,,5ea85f905036240a7979d0bd,60e561b69d574c6f31f82600,2021-07-07_10h12.09.112,Simcolourproject_2stim_asymm_v5,2020.2.10,Win32,60,60e52e7cfedb1dae636df45f,,,,,,,,,1049,43.86354811,81.4545601,1,0,0,response1disk,,7,9.77269572,6.454562783,1,0,0,rectangle,9.77269572,6.454562783,1,0,0,9.77269572,6.454562783,1,0,0,0,35,35,120,1,,,,,,,,
,,,,,,,,,,,,,FF,,,,,,,,1.001,,,,,,,,,,,,,,,,,,,,,,5ea85f905036240a7979d0bd,60e561b69d574c6f31f82600,2021-07-07_10h12.09.112,Simcolourproject_2stim_asymm_v5,2020.2.10,Win32,60,60e52e7cfedb1dae636df45f,,,,,,,,,2157,95.68178356,39.63637978,1,0,0,response1disk,,6,14.3181501,6.909108222,1,0,0,rectangle,14.3181501,6.909108222,1,0,0,14.3181501,6.909108222,1,0,0,0,36,36,2,1,,,,,,,,
,,,,,,,,,,,,,FF,,,,,,,,1.4515,,,,,,,,,,,,,,,,,,,,,,5ea85f905036240a7979d0bd,60e561b69d574c6f31f82600,2021-07-07_10h12.09.112,Simcolourproject_2stim_asymm_v5,2020.2.10,Win32,60,60e52e7cfedb1dae636df45f,,,,,,,,,2986,-82.95457369,-45.81816262,1,0,0,response5disk,,2,-11.59093988,-1.272709668,1,0,0,rectangle,42.49991179,-121.2727054,1,0,0,9.77269572,-2.636345983,1,0,0,0,37,37,97,1,,response3disk_3,TRUE,4,4,"[38,81,260,263,291,12,242,135,99,219,312,115,51,186,235,78,144,216,96,226]",2.2184,rectangle
,,,,,,,,,,,,,FF,,,,,,,,1.034,,,,,,,,,,,,,,,,,,,,,,5ea85f905036240a7979d0bd,60e561b69d574c6f31f82600,2021-07-07_10h12.09.112,Simcolourproject_2stim_asymm_v5,2020.2.10,Win32,60,60e52e7cfedb1dae636df45f,,,,,,,,,652,47.04542166,-112.1817966,1,0,0,response3disk,,4,3.409059584,-6.272709489,1,0,0,rectangle,3.409059584,-6.272709489,1,0,0,3.409059584,-6.272709489,1,0,0,0,38,38,74,1,,,,,,,,
,,,,,,,,,,,,,FF,,,,,,,,1.7184,,,,,,,,,,,,,,,,,,,,,,5ea85f905036240a7979d0bd,60e561b69d574c6f31f82600,2021-07-07_10h12.09.112,Simcolourproject_2stim_asymm_v5,2020.2.10,Win32,60,60e52e7cfedb1dae636df45f,,,,,,,,,747,119.7726918,34.18183452,1,0,0,response1disk,,6,5.227241337,-4.909073174,1,0,0,rectangle,5.227241337,-4.909073174,1,0,0,5.227241337,-4.909073174,1,0,0,0,39,39,58,1,,,,,,,,
,,,,,,,,,,,,,FF,,,,,,,,0.9343,,,,,,,,,,,,,,,,,,,,,,5ea85f905036240a7979d0bd,60e561b69d574c6f31f82600,2021-07-07_10h12.09.112,Simcolourproject_2stim_asymm_v5,2020.2.10,Win32,60,60e52e7cfedb1dae636df45f,,,,,,,,,4091,107.499965,40.09092522,1,0,0,response1disk,,6,21.59087712,-2.636345983,1,0,0,rectangle,21.59087712,-2.636345983,1,0,0,21.59087712,-2.636345983,1,0,0,0,40,40,128,1,,,,,,,,
,,,,,,,,,,,,,FF,,,,,,,,1.685,,,,,,,,,,,,,,,,,,,,,,5ea85f905036240a7979d0bd,60e561b69d574c6f31f82600,2021-07-07_10h12.09.112,Simcolourproject_2stim_asymm_v5,2020.2.10,Win32,60,60e52e7cfedb1dae636df45f,,,,,,,,,3038,103.409056,45.09092504,1,0,0,response1disk,,6,23.86354882,-8.090891242,1,0,0,rectangle,23.86354882,-8.090891242,1,0,0,23.86354882,-8.090891242,1,0,0,0,41,41,50,1,,,,,,,,
,,,,,,,,,,,,,FF,,,,,,,,1.2346,,,,,,,,,,,,,,,,,,,,,,5ea85f905036240a7979d0bd,60e561b69d574c6f31f82600,2021-07-07_10h12.09.112,Simcolourproject_2stim_asymm_v5,2020.2.10,Win32,60,60e52e7cfedb1dae636df45f,,,,,,,,,1441,102.9545106,46.90913453,1,0,0,response1disk,,6,5.227241337,5.545471907,1,0,0,rectangle,5.227241337,5.545471907,1,0,0,5.227241337,5.545471907,1,0,0,0,42,42,154,1,,,,,,,,
,,,,,,,,,,,,,FF,,,,,,,,1.0345,,,,,,,,,,,,,,,,,,,,,,5ea85f905036240a7979d0bd,60e561b69d574c6f31f82600,2021-07-07_10h12.09.112,Simcolourproject_2stim_asymm_v5,2020.2.10,Win32,60,60e52e7cfedb1dae636df45f,,,,,,,,,3088,51.1363306,90.09092343,1,0,0,response1disk,,7,12.49991286,1.000017524,1,0,0,rectangle,12.49991286,1.000017524,1,0,0,12.49991286,1.000017524,1,0,0,0,43,43,7,1,,,,,,,,
,,,,,,,,,,,,,FF,,,,,,,,1.6517,,,,,,,,,,,,,,,,,,,,,,5ea85f905036240a7979d0bd,60e561b69d574c6f31f82600,2021-07-07_10h12.09.112,Simcolourproject_2stim_asymm_v5,2020.2.10,Win32,60,60e52e7cfedb1dae636df45f,,,,,,,,,3405,100.2272379,54.1818338,1,0,0,response1disk,,6,3.409059584,5.545471907,1,0,0,rectangle,3.409059584,5.545471907,1,0,0,3.409059584,5.545471907,1,0,0,0,44,44,123,1,,,,,,,,
,,,,,,,,,,,,,FF,,,,,,,,1.885,,,,,,,,,,,,,,,,,,,,,,5ea85f905036240a7979d0bd,60e561b69d574c6f31f82600,2021-07-07_10h12.09.112,Simcolourproject_2stim_asymm_v5,2020.2.10,Win32,60,60e52e7cfedb1dae636df45f,,,,,,,,,1811,92.49996549,-36.27270842,1,0,0,response3disk,,5,22.04542255,2.363653839,1,0,0,rectangle,22.04542255,2.363653839,1,0,0,22.04542255,2.363653839,1,0,0,0,45,45,10,1,,,,,,,,
,,,,,,,,,,,,,FF,,,,,,,,1.1007,,,,,,,,,,,,,,,,,,,,,,5ea85f905036240a7979d0bd,60e561b69d574c6f31f82600,2021-07-07_10h12.09.112,Simcolourproject_2stim_asymm_v5,2020.2.10,Win32,60,60e52e7cfedb1dae636df45f,,,,,,,,,2866,72.4999662,117.8182229,1,0,0,response1disk,,7,-2.5000866,0.545472085,1,0,0,rectangle,-2.5000866,0.545472085,1,0,0,-2.5000866,0.545472085,1,0,0,0,46,46,25,1,,,,,,,,
,,,,,,,,,,,,,FF,,,,,,,,0.9342,,,,,,,,,,,,,,,,,,,,,,5ea85f905036240a7979d0bd,60e561b69d574c6f31f82600,2021-07-07_10h12.09.112,Simcolourproject_2stim_asymm_v5,2020.2.10,Win32,60,60e52e7cfedb1dae636df45f,,,,,,,,,2695,122.4999644,62.36365169,1,0,0,response1disk,,6,-10.681849,-8.999982119,1,0,0,rectangle,-10.681849,-8.999982119,1,0,0,-10.681849,-8.999982119,1,0,0,0,47,47,66,1,,,,,,,,
,,,,,,,,,,,,,FF,,,,,,,,1.1341,,,,,,,,,,,,,,,,,,,,,,5ea85f905036240a7979d0bd,60e561b69d574c6f31f82600,2021-07-07_10h12.09.112,Simcolourproject_2stim_asymm_v5,2020.2.10,Win32,60,60e52e7cfedb1dae636df45f,,,,,,,,,2816,92.49996549,47.36365223,1,0,0,response1disk,,6,8.409059405,4.181835592,1,0,0,rectangle,8.409059405,4.181835592,1,0,0,8.409059405,4.181835592,1,0,0,0,48,48,70,1,,,,,,,,
,,,,,,,,,,,,,FF,,,,,,,,1.1178,,,,,,,,,,,,,,,,,,,,,,5ea85f905036240a7979d0bd,60e561b69d574c6f31f82600,2021-07-07_10h12.09.112,Simcolourproject_2stim_asymm_v5,2020.2.10,Win32,60,60e52e7cfedb1dae636df45f,,,,,,,,,2293,-96.59093684,-121.7272508,1,0,0,response5disk,,3,-17.50008606,-7.636345804,1,0,0,rectangle,-17.50008606,-7.636345804,1,0,0,-17.50008606,-7.636345804,1,0,0,0,49,49,72,1,,,,,,,,
,,,,,,,,,,,,,FF,,,,,,,,1.2007,,,,,,,,,,,,,,,,,,,,,,5ea85f905036240a7979d0bd,60e561b69d574c6f31f82600,2021-07-07_10h12.09.112,Simcolourproject_2stim_asymm_v5,2020.2.10,Win32,60,60e52e7cfedb1dae636df45f,,,,,,,,,402,99.7726925,-58.99998033,1,0,0,response3disk,,5,19.77269536,1.454562962,1,0,0,rectangle,68.8636027,121.4545587,1,0,0,15.22724098,-1.727255106,1,0,0,0,50,50,8,1,,response1disk_3,TRUE,7,7,"[38,81,260,263,291,12,242,135,99,219,312,115,51,186,235,78,144,216,96,226]",2.2193,rectangle
,,,,,,,,,,,,,FF,,,,,,,,1.802,,,,,,,,,,,,,,,,,,,,,,5ea85f905036240a7979d0bd,60e561b69d574c6f31f82600,2021-07-07_10h12.09.112,Simcolourproject_2stim_asymm_v5,2020.2.10,Win32,60,60e52e7cfedb1dae636df45f,,,,,,,,,2288,86.59087479,-63.54537923,1,0,0,response3disk,,5,4.772695899,6.000017345,1,0,0,rectangle,4.772695899,6.000017345,1,0,0,4.772695899,6.000017345,1,0,0,0,51,51,126,1,,,,,,,,
,,,,,,,,,,,,,FF,,,,,,,,1.4174,,,,,,,,,,,,,,,,,,,,,,5ea85f905036240a7979d0bd,60e561b69d574c6f31f82600,2021-07-07_10h12.09.112,Simcolourproject_2stim_asymm_v5,2020.2.10,Win32,60,60e52e7cfedb1dae636df45f,,,,,,,,,34,110.681783,53.72728837,1,0,0,response1disk,,6,-2.5000866,3.272744715,1,0,0,rectangle,-2.5000866,3.272744715,1,0,0,-2.5000866,3.272744715,1,0,0,0,52,52,122,1,,,,,,,,
,,,,,,,,,,,,,FF,,,,,,,,1.0012,,,,,,,,,,,,,,,,,,,,,,5ea85f905036240a7979d0bd,60e561b69d574c6f31f82600,2021-07-07_10h12.09.112,Simcolourproject_2stim_asymm_v5,2020.2.10,Win32,60,60e52e7cfedb1dae636df45f,,,,,,,,,709,92.04542005,41.00004384,1,0,0,response1disk,,6,15.22724098,-0.363618791,1,0,0,rectangle,15.22724098,-0.363618791,1,0,0,15.22724098,-0.363618791,1,0,0,0,53,53,135,1,,,,,,,,
,,,,,,,,,,,,,FF,,,,,,,,0.8676,,,,,,,,,,,,,,,,,,,,,,5ea85f905036240a7979d0bd,60e561b69d574c6f31f82600,2021-07-07_10h12.09.112,Simcolourproject_2stim_asymm_v5,2020.2.10,Win32,60,60e52e7cfedb1dae636df45f,,,,,,,,,2581,105.6817832,46.90913453,1,0,0,response1disk,,6,20.68173075,1.000017524,1,0,0,rectangle,20.68173075,1.000017524,1,0,0,20.68173075,1.000017524,1,0,0,0,54,54,43,1,,,,,,,,
,,,,,,,,,,,,,FF,,,,,,,,1.8517,,,,,,,,,,,,,,,,,,,,,,5ea85f905036240a7979d0bd,60e561b69d574c6f31f82600,2021-07-07_10h12.09.112,Simcolourproject_2stim_asymm_v5,2020.2.10,Win32,60,60e52e7cfedb1dae636df45f,,,,,,,,,2672,47.95451254,-107.1817968,1,0,0,response3disk,,4,-17.04548514,-6.272709489,1,0,0,rectangle,-17.04548514,-6.272709489,1,0,0,-17.04548514,-6.272709489,1,0,0,0,55,55,90,1,,,,,,,,
,,,,,,,,,,,,,FF,,,,,,,,1.0009,,,,,,,,,,,,,,,,,,,,,,5ea85f905036240a7979d0bd,60e561b69d574c6f31f82600,2021-07-07_10h12.09.112,Simcolourproject_2stim_asymm_v5,2020.2.10,Win32,60,60e52e7cfedb1dae636df45f,,,,,,,,,2222,102.9545106,42.36365241,1,0,0,response1disk,,6,3.409059584,8.272744536,1,0,0,rectangle,3.409059584,8.272744536,1,0,0,3.409059584,8.272744536,1,0,0,0,56,56,35,1,,,,,,,,
,,,,,,,,,,,,,FF,,,,,,,,1.3347,,,,,,,,,,,,,,,,,,,,,,5ea85f905036240a7979d0bd,60e561b69d574c6f31f82600,2021-07-07_10h12.09.112,Simcolourproject_2stim_asymm_v5,2020.2.10,Win32,60,60e52e7cfedb1dae636df45f,,,,,,,,,4276,117.4999646,49.18183398,1,0,0,response1disk,,6,-5.681849182,1.9091084,1,0,0,rectangle,-5.681849182,1.9091084,1,0,0,-5.681849182,1.9091084,1,0,0,0,57,57,159,1,,,,,,,,
,,,,,,,,,,,,,FF,,,,,,,,1.4844,,,,,,,,,,,,,,,,,,,,,,5ea85f905036240a7979d0bd,60e561b69d574c6f31f82600,2021-07-07_10h12.09.112,Simcolourproject_2stim_asymm_v5,2020.2.10,Win32,60,60e52e7cfedb1dae636df45f,,,,,,,,,653,95.68178356,-43.09088999,1,0,0,response3disk,,5,18.863549,-6.727254927,1,0,0,rectangle,18.863549,-6.727254927,1,0,0,18.863549,-6.727254927,1,0,0,0,58,58,85,1,,,,,,,,
,,,,,,,,,,,,,FF,,,,,,,,2.369,,,,,,,,,,,,,,,,,,,,,,5ea85f905036240a7979d0bd,60e561b69d574c6f31f82600,2021-07-07_10h12.09.112,Simcolourproject_2stim_asymm_v5,2020.2.10,Win32,60,60e52e7cfedb1dae636df45f,,,,,,,,,3678,-42.50002968,-128.5453769,1,0,0,response5disk,,3,0.227241516,-0.818164229,1,0,0,rectangle,0.227241516,-0.818164229,1,0,0,0.227241516,-0.818164229,1,0,0,0,59,59,108,1,,,,,,,,
,,,,,,,,,,,,,FF,,,,,,,,1.0509,,,,,,,,,,,,,,,,,,,,,,5ea85f905036240a7979d0bd,60e561b69d574c6f31f82600,2021-07-07_10h12.09.112,Simcolourproject_2stim_asymm_v5,2020.2.10,Win32,60,60e52e7cfedb1dae636df45f,,,,,,,,,3335,97.95451075,109.6363773,1,0,0,response1disk,,7,18.40905905,-4.454527736,1,0,0,rectangle,18.40905905,-4.454527736,1,0,0,18.40905905,-4.454527736,1,0,0,0,60,60,158,1,,,,,,,,
,,,,,,,,,,,,,FF,,,,,,,,0.7843,,,,,,,,,,,,,,,,,,,,,,5ea85f905036240a7979d0bd,60e561b69d574c6f31f82600,2021-07-07_10h12.09.112,Simcolourproject_2stim_asymm_v5,2020.2.10,Win32,60,60e52e7cfedb1dae636df45f,,,,,,,,,4153,40.68173004,82.81822416,1,0,0,response1disk,,7,-9.318268174,-7.636345804,1,0,0,rectangle,-9.318268174,-7.636345804,1,0,0,-9.318268174,-7.636345804,1,0,0,0,61,61,78,1,,,,,,,,
,,,,,,,,,,,,,FF,,,,,,,,1.2682,,,,,,,,,,,,,,,,,,,,,,5ea85f905036240a7979d0bd,60e561b69d574c6f31f82600,2021-07-07_10h12.09.112,Simcolourproject_2stim_asymm_v5,2020.2.10,Win32,60,60e52e7cfedb1dae636df45f,,,,,,,,,4350,-55.22730196,100.0909231,1,0,0,response7disk,,0,-12.50008624,-2.181800544,1,0,0,rectangle,-12.50008624,-2.181800544,1,0,0,-12.50008624,-2.181800544,1,0,0,0,62,62,155,1,,,,,,,,
,,,,,,,,,,,,,FF,,,,,,,,1.3013,,,,,,,,,,,,,,,,,,,,,,5ea85f905036240a7979d0bd,60e561b69d574c6f31f82600,2021-07-07_10h12.09.112,Simcolourproject_2stim_asymm_v5,2020.2.10,Win32,60,60e52e7cfedb1dae636df45f,,,,,,,,,2103,-41.13644885,-108.0908877,1,0,0,response5disk,,3,-19.31826782,-6.727254927,1,0,0,rectangle,-19.31826782,-6.727254927,1,0,0,-19.31826782,-6.727254927,1,0,0,0,63,63,51,1,,,,,,,,
,,,,,,,,,,,,,FF,,,,,,,,2.4358,,,,,,,,,,,,,,,,,,,,,,5ea85f905036240a7979d0bd,60e561b69d574c6f31f82600,2021-07-07_10h12.09.112,Simcolourproject_2stim_asymm_v5,2020.2.10,Win32,60,60e52e7cfedb1dae636df45f,,,,,,,,,848,128.8636006,36.00004402,1,0,0,response1disk,,6,22.49991251,-2.636345983,1,0,0,rectangle,22.49991251,-2.636345983,1,0,0,22.49991251,-2.636345983,1,0,0,0,64,64,99,1,,,,,,,,
,,,,,,,,,,,,,FF,,,,,,,,1.1509,,,,,,,,,,,,,,,,,,,,,,5ea85f905036240a7979d0bd,60e561b69d574c6f31f82600,2021-07-07_10h12.09.112,Simcolourproject_2stim_asymm_v5,2020.2.10,Win32,60,60e52e7cfedb1dae636df45f,,,,,,,,,7,43.40905815,-126.2727052,1,0,0,response3disk,,4,24.77269518,8.272744536,1,0,0,rectangle,24.77269518,8.272744536,1,0,0,24.77269518,8.272744536,1,0,0,0,65,65,117,1,,,,,,,,
,,,,,,,,,,,,,FF,,,,,,,,1.6018,,,,,,,,,,,,,,,,,,,,,,5ea85f905036240a7979d0bd,60e561b69d574c6f31f82600,2021-07-07_10h12.09.112,Simcolourproject_2stim_asymm_v5,2020.2.10,Win32,60,60e52e7cfedb1dae636df45f,,,,,,,,,517,104.7726923,-62.63634384,1,0,0,response3disk,,5,-25.22730303,-16.72725457,1,0,0,rectangle,-25.22730303,-16.72725457,1,0,0,-25.22730303,-16.72725457,1,0,0,0,66,66,127,1,,,,,,,,
,,,,,,,,,,,,,FF,,,,,,,,1.0344,,,,,,,,,,,,,,,,,,,,,,5ea85f905036240a7979d0bd,60e561b69d574c6f31f82600,2021-07-07_10h12.09.112,Simcolourproject_2stim_asymm_v5,2020.2.10,Win32,60,60e52e7cfedb1dae636df45f,,,,,,,,,2390,79.77269322,-37.18179929,1,0,0,response3disk,,5,18.863549,-6.727254927,1,0,0,rectangle,18.863549,-6.727254927,1,0,0,18.863549,-6.727254927,1,0,0,0,67,67,76,1,,,,,,,,
,,,,,,,,,,,,,FF,,,,,,,,0.901,,,,,,,,,,,,,,,,,,,,,,5ea85f905036240a7979d0bd,60e561b69d574c6f31f82600,2021-07-07_10h12.09.112,Simcolourproject_2stim_asymm_v5,2020.2.10,Win32,60,60e52e7cfedb1dae636df45f,,,,,,,,,1841,53.4090578,82.81822416,1,0,0,response1disk,,7,7.499913042,-6.272709489,1,0,0,rectangle,7.499913042,-6.272709489,1,0,0,7.499913042,-6.272709489,1,0,0,0,68,68,96,1,,,,,,,,
,,,,,,,,,,,,,FF,,,,,,,,0.9509,,,,,,,,,,,,,,,,,,,,,,5ea85f905036240a7979d0bd,60e561b69d574c6f31f82600,2021-07-07_10h12.09.112,Simcolourproject_2stim_asymm_v5,2020.2.10,Win32,60,60e52e7cfedb1dae636df45f,,,,,,,,,3325,32.0454222,89.18183255,1,0,0,response1disk,,7,-18.86366689,0.090926647,1,0,0,rectangle,-18.86366689,0.090926647,1,0,0,-18.86366689,0.090926647,1,0,0,0,69,69,111,1,,,,,,,,
,,,,,,,,,,,,,FF,,,,,,,,1.1344,,,,,,,,,,,,,,,,,,,,,,5ea85f905036240a7979d0bd,60e561b69d574c6f31f82600,2021-07-07_10h12.09.112,Simcolourproject_2stim_asymm_v5,2020.2.10,Win32,60,60e52e7cfedb1dae636df45f,,,,,,,,,4001,83.86360216,-38.99998105,1,0,0,response3disk,,5,20.68173075,-8.54543668,1,0,0,rectangle,20.68173075,-8.54543668,1,0,0,20.68173075,-8.54543668,1,0,0,0,70,70,75,1,,,,,,,,
,,,,,,,,,,,,,FF,,,,,,,,1.0508,,,,,,,,,,,,,,,,,,,,,,5ea85f905036240a7979d0bd,60e561b69d574c6f31f82600,2021-07-07_10h12.09.112,Simcolourproject_2stim_asymm_v5,2020.2.10,Win32,60,60e52e7cfedb1dae636df45f,,,,,,,,,3851,87.49996567,51.00004348,1,0,0,response1disk,,6,-2.954576552,1.9091084,1,0,0,rectangle,-2.954576552,1.9091084,1,0,0,-2.954576552,1.9091084,1,0,0,0,71,71,87,1,,,,,,,,
,,,,,,,,,,,,,FF,,,,,,,,1.3347,,,,,,,,,,,,,,,,,,,,,,5ea85f905036240a7979d0bd,60e561b69d574c6f31f82600,2021-07-07_10h12.09.112,Simcolourproject_2stim_asymm_v5,2020.2.10,Win32,60,60e52e7cfedb1dae636df45f,,,,,,,,,3474,-93.86366421,-75.81816155,1,0,0,response5disk,,2,-27.04548478,-11.27270931,1,0,0,rectangle,-27.04548478,-11.27270931,1,0,0,-27.04548478,-11.27270931,1,0,0,0,72,72,86,1,,,,,,,,
,,,,,,,,,,,,,FF,,,,,,,,1.051,,,,,,,,,,,,,,,,,,,,,,5ea85f905036240a7979d0bd,60e561b69d574c6f31f82600,2021-07-07_10h12.09.112,Simcolourproject_2stim_asymm_v5,2020.2.10,Win32,60,60e52e7cfedb1dae636df45f,,,,,,,,,2505,113.8636011,42.36365241,1,0,0,response1disk,,6,22.49991251,-0.363618791,1,0,0,rectangle,22.49991251,-0.363618791,1,0,0,22.49991251,-0.363618791,1,0,0,0,73,73,101,1,,,,,,,,
,,,,,,,,,,,,,FF,,,,,,,,0.8345,,,,,,,,,,,,,,,,,,,,,,5ea85f905036240a7979d0bd,60e561b69d574c6f31f82600,2021-07-07_10h12.09.112,Simcolourproject_2stim_asymm_v5,2020.2.10,Win32,60,60e52e7cfedb1dae636df45f,,,,,,,,,1159,-47.5000295,110.5454682,1,0,0,response7disk,,0,-15.68184882,-3.090891421,1,0,0,rectangle,-15.68184882,-3.090891421,1,0,0,-15.68184882,-3.090891421,1,0,0,0,74,74,39,1,,,,,,,,
,,,,,,,,,,,,,FF,,,,,,,,1.3011,,,,,,,,,,,,,,,,,,,,,,5ea85f905036240a7979d0bd,60e561b69d574c6f31f82600,2021-07-07_10h12.09.112,Simcolourproject_2stim_asymm_v5,2020.2.10,Win32,60,60e52e7cfedb1dae636df45f,,,,,,,,,1960,-50.22730213,-120.363559,1,0,0,response5disk,,3,-17.04548514,-5.363618612,1,0,0,rectangle,-17.04548514,-5.363618612,1,0,0,-17.04548514,-5.363618612,1,0,0,0,75,75,116,1,,,,,,,,
,,,,,,,,,,,,,FF,,,,,,,,1.3175,,,,,,,,,,,,,,,,,,,,,,5ea85f905036240a7979d0bd,60e561b69d574c6f31f82600,2021-07-07_10h12.09.112,Simcolourproject_2stim_asymm_v5,2020.2.10,Win32,60,60e52e7cfedb1dae636df45f,,,,,,,,,2347,96.136329,51.45456117,1,0,0,response1disk,,6,22.04542255,-3.090891421,1,0,0,rectangle,22.04542255,-3.090891421,1,0,0,22.04542255,-3.090891421,1,0,0,0,76,76,112,1,,,,,,,,
,,,,,,,,,,,,,FF,,,,,,,,1.1512,,,,,,,,,,,,,,,,,,,,,,5ea85f905036240a7979d0bd,60e561b69d574c6f31f82600,2021-07-07_10h12.09.112,Simcolourproject_2stim_asymm_v5,2020.2.10,Win32,60,60e52e7cfedb1dae636df45f,,,,,,,,,3970,-102.0454821,-69.90907085,1,0,0,response5disk,,2,5.681731289,-2.636345983,1,0,0,rectangle,114.772692,41.00004384,1,0,0,5.227241337,2.363653839,1,0,0,0,77,77,110,1,,response1disk_3,TRUE,6,6,"[38,81,260,263,291,12,242,135,99,219,312,115,51,186,235,78,144,216,96,226]",2.0687,rectangle
,,,,,,,,,,,,,FF,,,,,,,,1.7683,,,,,,,,,,,,,,,,,,,,,,5ea85f905036240a7979d0bd,60e561b69d574c6f31f82600,2021-07-07_10h12.09.112,Simcolourproject_2stim_asymm_v5,2020.2.10,Win32,60,60e52e7cfedb1dae636df45f,,,,,,,,,380,62.04542112,-107.1817968,1,0,0,response3disk,,4,-2.5000866,-1.727255106,1,0,0,rectangle,-2.5000866,-1.727255106,1,0,0,-2.5000866,-1.727255106,1,0,0,0,78,78,142,1,,,,,,,,
,,,,,,,,,,,,,FF,,,,,,,,1.5682,,,,,,,,,,,,,,,,,,,,,,5ea85f905036240a7979d0bd,60e561b69d574c6f31f82600,2021-07-07_10h12.09.112,Simcolourproject_2stim_asymm_v5,2020.2.10,Win32,60,60e52e7cfedb1dae636df45f,,,,,,,,,186,-69.77275598,29.1818347,1,0,0,response7disk,,1,-32.50003004,-12.18180019,1,0,0,rectangle,-32.50003004,-12.18180019,1,0,0,-32.50003004,-12.18180019,1,0,0,0,79,79,129,1,,,,,,,,
,,,,,,,,,,,,,FF,,,,,,,,1.7685,,,,,,,,,,,,,,,,,,,,,,5ea85f905036240a7979d0bd,60e561b69d574c6f31f82600,2021-07-07_10h12.09.112,Simcolourproject_2stim_asymm_v5,2020.2.10,Win32,60,60e52e7cfedb1dae636df45f,,,,,,,,,2185,65.68178463,100.0909231,1,0,0,response1disk,,7,12.04542291,-3.999982297,1,0,0,rectangle,102.0454197,-65.8181619,1,0,0,7.954513967,7.36365366,1,0,0,0,80,80,69,1,,response3disk_3,TRUE,5,7,"[38,81,260,263,291,12,242,135,99,219,312,115,51,186,235,78,144,216,96,226]",2.6198,rectangle
,,,,,,,,,,,,,FF,,,,,,,,1.5852,,,,,,,,,,,,,,,,,,,,,,5ea85f905036240a7979d0bd,60e561b69d574c6f31f82600,2021-07-07_10h12.09.112,Simcolourproject_2stim_asymm_v5,2020.2.10,Win32,60,60e52e7cfedb1dae636df45f,,,,,,,,,1519,104.3181469,62.36365169,1,0,0,response1disk,,6,-0.227303922,3.727290154,1,0,0,rectangle,-0.227303922,3.727290154,1,0,0,-0.227303922,3.727290154,1,0,0,0,81,81,100,1,,,,,,,,
,,,,,,,,,,,,,FF,,,,,,,,1.4015,,,,,,,,,,,,,,,,,,,,,,5ea85f905036240a7979d0bd,60e561b69d574c6f31f82600,2021-07-07_10h12.09.112,Simcolourproject_2stim_asymm_v5,2020.2.10,Win32,60,60e52e7cfedb1dae636df45f,,,,,,,,,1258,80.68178409,-41.72725368,1,0,0,response3disk,,5,6.136332214,2.818199277,1,0,0,rectangle,6.136332214,2.818199277,1,0,0,6.136332214,2.818199277,1,0,0,0,82,82,138,1,,,,,,,,
,,,,,,,,,,,,,FF,,,,,,,,0.917,,,,,,,,,,,,,,,,,,,,,,5ea85f905036240a7979d0bd,60e561b69d574c6f31f82600,2021-07-07_10h12.09.112,Simcolourproject_2stim_asymm_v5,2020.2.10,Win32,60,60e52e7cfedb1dae636df45f,,,,,,,,,1191,66.13633007,96.45455956,1,0,0,response1disk,,7,16.13633186,6.909108222,1,0,0,rectangle,16.13633186,6.909108222,1,0,0,16.13633186,6.909108222,1,0,0,0,83,83,134,1,,,,,,,,
,,,,,,,,,,,,,FF,,,,,,,,1.9519,,,,,,,,,,,,,,,,,,,,,,5ea85f905036240a7979d0bd,60e561b69d574c6f31f82600,2021-07-07_10h12.09.112,Simcolourproject_2stim_asymm_v5,2020.2.10,Win32,60,60e52e7cfedb1dae636df45f,,,,,,,,,2402,105.6817832,42.36365241,1,0,0,response1disk,,6,7.499913042,4.63638103,1,0,0,rectangle,7.499913042,4.63638103,1,0,0,7.499913042,4.63638103,1,0,0,0,84,84,11,1,,,,,,,,
,,,,,,,,,,,,,FF,,,,,,,,1.8352,,,,,,,,,,,,,,,,,,,,,,5ea85f905036240a7979d0bd,60e561b69d574c6f31f82600,2021-07-07_10h12.09.112,Simcolourproject_2stim_asymm_v5,2020.2.10,Win32,60,60e52e7cfedb1dae636df45f,,,,,,,,,4015,92.49996549,-64.90907103,1,0,0,response3disk,,5,20.2272408,-11.72725475,1,0,0,rectangle,20.2272408,-11.72725475,1,0,0,20.2272408,-11.72725475,1,0,0,0,85,85,0,1,,,,,,,,
,,,,,,,,,,,,,FF,,,,,,,,1.2011,,,,,,,,,,,,,,,,,,,,,,5ea85f905036240a7979d0bd,60e561b69d574c6f31f82600,2021-07-07_10h12.09.112,Simcolourproject_2stim_asymm_v5,2020.2.10,Win32,60,60e52e7cfedb1dae636df45f,,,,,,,,,3855,111.1363285,-59.45452577,1,0,0,response3disk,,5,12.04542291,-12.63634562,1,0,0,rectangle,12.04542291,-12.63634562,1,0,0,12.04542291,-12.63634562,1,0,0,0,86,86,98,1,,,,,,,,
,,,,,,,,,,,,,FF,,,,,,,,1.3515,,,,,,,,,,,,,,,,,,,,,,5ea85f905036240a7979d0bd,60e561b69d574c6f31f82600,2021-07-07_10h12.09.112,Simcolourproject_2stim_asymm_v5,2020.2.10,Win32,60,60e52e7cfedb1dae636df45f,,,,,,,,,639,31.13633132,-123.5453771,1,0,0,response3disk,,4,-6.136450106,0.545472085,1,0,0,rectangle,-6.136450106,0.545472085,1,0,0,-6.136450106,0.545472085,1,0,0,0,87,87,22,1,,,,,,,,
,,,,,,,,,,,,,FF,,,,,,,,1.5014,,,,,,,,,,,,,,,,,,,,,,5ea85f905036240a7979d0bd,60e561b69d574c6f31f82600,2021-07-07_10h12.09.112,Simcolourproject_2stim_asymm_v5,2020.2.10,Win32,60,60e52e7cfedb1dae636df45f,,,,,,,,,252,138.8636002,49.18183398,1,0,0,response1disk,,6,14.77269554,-0.363618791,1,0,0,rectangle,14.77269554,-0.363618791,1,0,0,14.77269554,-0.363618791,1,0,0,0,88,88,77,1,,,,,,,,
,,,,,,,,,,,,,FF,,,,,,,,1.6679,,,,,,,,,,,,,,,,,,,,,,5ea85f905036240a7979d0bd,60e561b69d574c6f31f82600,2021-07-07_10h12.09.112,Simcolourproject_2stim_asymm_v5,2020.2.10,Win32,60,60e52e7cfedb1dae636df45f,,,,,,,,,4143,46.13633078,-115.8181601,1,0,0,response3disk,,4,-11.59093988,-6.727254927,1,0,0,rectangle,-11.59093988,-6.727254927,1,0,0,-11.59093988,-6.727254927,1,0,0,0,89,89,94,1,,,,,,,,
,,,,,,,,,,,,,FF,,,,,,,,0.9337,,,,,,,,,,,,,,,,,,,,,,5ea85f905036240a7979d0bd,60e561b69d574c6f31f82600,2021-07-07_10h12.09.112,Simcolourproject_2stim_asymm_v5,2020.2.10,Win32,60,60e52e7cfedb1dae636df45f,,,,,,,,,470,129.318146,66.90913382,1,0,0,response1disk,,6,20.2272408,3.727290154,1,0,0,rectangle,20.2272408,3.727290154,1,0,0,20.2272408,3.727290154,1,0,0,0,90,90,147,1,,,,,,,,
,,,,,,,,,,,,,FF,,,,,,,,1.7686,,,,,,,,,,,,,,,,,,,,,,5ea85f905036240a7979d0bd,60e561b69d574c6f31f82600,2021-07-07_10h12.09.112,Simcolourproject_2stim_asymm_v5,2020.2.10,Win32,60,60e52e7cfedb1dae636df45f,,,,,,,,,2870,92.49996549,53.27274293,1,0,0,response1disk,,6,17.49991268,1.454562962,1,0,0,rectangle,17.49991268,1.454562962,1,0,0,17.49991268,1.454562962,1,0,0,0,91,91,18,1,,,,,,,,
,,,,,,,,,,,,,FF,,,,,,,,1.4848,,,,,,,,,,,,,,,,,,,,,,5ea85f905036240a7979d0bd,60e561b69d574c6f31f82600,2021-07-07_10h12.09.112,Simcolourproject_2stim_asymm_v5,2020.2.10,Win32,60,60e52e7cfedb1dae636df45f,,,,,,,,,3779,85.22723848,-46.27270806,1,0,0,response3disk,,5,14.77269554,2.363653839,1,0,0,rectangle,14.77269554,2.363653839,1,0,0,14.77269554,2.363653839,1,0,0,0,92,92,54,1,,,,,,,,
,,,,,,,,,,,,,FF,,,,,,,,1.5514,,,,,,,,,,,,,,,,,,,,,,5ea85f905036240a7979d0bd,60e561b69d574c6f31f82600,2021-07-07_10h12.09.112,Simcolourproject_2stim_asymm_v5,2020.2.10,Win32,60,60e52e7cfedb1dae636df45f,,,,,,,,,3246,80.68178409,-106.2727059,1,0,0,response3disk,,4,17.04542273,11.4545626,1,0,0,rectangle,17.04542273,11.4545626,1,0,0,17.04542273,11.4545626,1,0,0,0,93,93,115,1,,,,,,,,
,,,,,,,,,,,,,FF,,,,,,,,1.5017,,,,,,,,,,,,,,,,,,,,,,5ea85f905036240a7979d0bd,60e561b69d574c6f31f82600,2021-07-07_10h12.09.112,Simcolourproject_2stim_asymm_v5,2020.2.10,Win32,60,60e52e7cfedb1dae636df45f,,,,,,,,,2648,87.95451111,69.18183327,1,0,0,response1disk,,6,2.954514146,5.090926468,1,0,0,rectangle,2.954514146,5.090926468,1,0,0,2.954514146,5.090926468,1,0,0,0,94,94,45,1,,,,,,,,
,,,,,,,,,,,,,FF,,,,,,,,1.1182,,,,,,,,,,,,,,,,,,,,,,5ea85f905036240a7979d0bd,60e561b69d574c6f31f82600,2021-07-07_10h12.09.112,Simcolourproject_2stim_asymm_v5,2020.2.10,Win32,60,60e52e7cfedb1dae636df45f,,,,,,,,,3059,91.59087461,-57.63634402,1,0,0,response3disk,,5,10.22724116,-8.54543668,1,0,0,rectangle,-51.1364485,97.81822362,1,0,0,-8.86366725,-0.363618791,1,0,0,0,95,95,19,1,,response7disk_3,TRUE,0,0,"[38,81,260,263,291,12,242,135,99,219,312,115,51,186,235,78,144,216,96,226]",1.9186,rectangle
,,,,,,,,,,,,,FF,,,,,,,,1.0673,,,,,,,,,,,,,,,,,,,,,,5ea85f905036240a7979d0bd,60e561b69d574c6f31f82600,2021-07-07_10h12.09.112,Simcolourproject_2stim_asymm_v5,2020.2.10,Win32,60,60e52e7cfedb1dae636df45f,,,,,,,,,1259,59.31814849,-99.45452434,1,0,0,response3disk,,4,17.95451361,7.818199098,1,0,0,rectangle,17.95451361,7.818199098,1,0,0,17.95451361,7.818199098,1,0,0,0,96,96,102,1,,,,,,,,
,,,,,,,,,,,,,FF,,,,,,,,1.0177,,,,,,,,,,,,,,,,,,,,,,5ea85f905036240a7979d0bd,60e561b69d574c6f31f82600,2021-07-07_10h12.09.112,Simcolourproject_2stim_asymm_v5,2020.2.10,Win32,60,60e52e7cfedb1dae636df45f,,,,,,,,,96,-52.95457476,-102.6363424,1,0,0,response5disk,,3,7.04542309,4.63638103,1,0,0,rectangle,7.04542309,4.63638103,1,0,0,7.04542309,4.63638103,1,0,0,0,97,97,144,1,,,,,,,,
,,,,,,,,,,,,,FF,,,,,,,,1.1673,,,,,,,,,,,,,,,,,,,,,,5ea85f905036240a7979d0bd,60e561b69d574c6f31f82600,2021-07-07_10h12.09.112,Simcolourproject_2stim_asymm_v5,2020.2.10,Win32,60,60e52e7cfedb1dae636df45f,,,,,,,,,83,60.68178481,-111.7272512,1,0,0,response3disk,,4,12.95451379,-10.81816387,1,0,0,rectangle,-95.68184596,-66.72725278,1,0,0,2.499913221,6.000017345,1,0,0,0,98,98,143,1,,response5disk_3,TRUE,2,2,"[38,81,260,263,291,12,242,135,99,219,312,115,51,186,235,78,144,216,96,226]",1.8518,rectangle
,,,,,,,,,,,,,FF,,,,,,,,1.5515,,,,,,,,,,,,,,,,,,,,,,5ea85f905036240a7979d0bd,60e561b69d574c6f31f82600,2021-07-07_10h12.09.112,Simcolourproject_2stim_asymm_v5,2020.2.10,Win32,60,60e52e7cfedb1dae636df45f,,,,,,,,,3014,109.3181467,80.09092379,1,0,0,response1disk,,6,-18.40912145,6.909108222,1,0,0,rectangle,-18.40912145,6.909108222,1,0,0,-18.40912145,6.909108222,1,0,0,0,99,99,37,1,,,,,,,,
,,,,,,,,,,,,,FF,,,,,,,,1.0673,,,,,,,,,,,,,,,,,,,,,,5ea85f905036240a7979d0bd,60e561b69d574c6f31f82600,2021-07-07_10h12.09.112,Simcolourproject_2stim_asymm_v5,2020.2.10,Win32,60,60e52e7cfedb1dae636df45f,,,,,,,,,2261,107.0454195,-79.90907049,1,0,0,response3disk,,5,8.863549357,-15.81816369,1,0,0,rectangle,8.863549357,-15.81816369,1,0,0,8.863549357,-15.81816369,1,0,0,0,100,100,130,1,,,,,,,,
,,,,,,,,,,,,,FF,,,,,,,,1.8854,,,,,,,,,,,,,,,,,,,,,,5ea85f905036240a7979d0bd,60e561b69d574c6f31f82600,2021-07-07_10h12.09.112,Simcolourproject_2stim_asymm_v5,2020.2.10,Win32,60,60e52e7cfedb1dae636df45f,,,,,,,,,3378,121.5908735,-49.90907156,1,0,0,response3disk,,5,7.499913042,1.9091084,1,0,0,rectangle,7.499913042,1.9091084,1,0,0,7.499913042,1.9091084,1,0,0,0,101,101,146,1,,,,,,,,
,,,,,,,,,,,,,FF,,,,,,,,1.2012,,,,,,,,,,,,,,,,,,,,,,5ea85f905036240a7979d0bd,60e561b69d574c6f31f82600,2021-07-07_10h12.09.112,Simcolourproject_2stim_asymm_v5,2020.2.10,Win32,60,60e52e7cfedb1dae636df45f,,,,,,,,,2918,57.95451218,99.63637763,1,0,0,response1disk,,7,7.04542309,5.090926468,1,0,0,rectangle,7.04542309,5.090926468,1,0,0,7.04542309,5.090926468,1,0,0,0,102,102,44,1,,,,,,,,
,,,,,,,,,,,,,FF,,,,,,,,1.8521,,,,,,,,,,,,,,,,,,,,,,5ea85f905036240a7979d0bd,60e561b69d574c6f31f82600,2021-07-07_10h12.09.112,Simcolourproject_2stim_asymm_v5,2020.2.10,Win32,60,60e52e7cfedb1dae636df45f,,,,,,,,,1124,107.0454195,56.454561,1,0,0,response1disk,,6,-1.590940237,1.000017524,1,0,0,rectangle,-1.590940237,1.000017524,1,0,0,-1.590940237,1.000017524,1,0,0,0,103,103,80,1,,,,,,,,
,,,,,,,,,,,,,FF,,,,,,,,1.0345,,,,,,,,,,,,,,,,,,,,,,5ea85f905036240a7979d0bd,60e561b69d574c6f31f82600,2021-07-07_10h12.09.112,Simcolourproject_2stim_asymm_v5,2020.2.10,Win32,60,60e52e7cfedb1dae636df45f,,,,,,,,,3489,92.04542005,38.27274346,1,0,0,response1disk,,6,-11.13644993,1.000017524,1,0,0,rectangle,-11.13644993,1.000017524,1,0,0,-11.13644993,1.000017524,1,0,0,0,104,104,23,1,,,,,,,,
,,,,,,,,,,,,,FF,,,,,,,,1.5683,,,,,,,,,,,,,,,,,,,,,,5ea85f905036240a7979d0bd,60e561b69d574c6f31f82600,2021-07-07_10h12.09.112,Simcolourproject_2stim_asymm_v5,2020.2.10,Win32,60,60e52e7cfedb1dae636df45f,,,,,,,,,2940,-62.95457441,106.4545592,1,0,0,response7disk,,0,1.590877831,-10.36361843,1,0,0,rectangle,1.590877831,-10.36361843,1,0,0,1.590877831,-10.36361843,1,0,0,0,105,105,137,1,,,,,,,,
,,,,,,,,,,,,,FF,,,,,,,,1.1346,,,,,,,,,,,,,,,,,,,,,,5ea85f905036240a7979d0bd,60e561b69d574c6f31f82600,2021-07-07_10h12.09.112,Simcolourproject_2stim_asymm_v5,2020.2.10,Win32,60,60e52e7cfedb1dae636df45f,,,,,,,,,4282,-105.6818456,-77.18179786,1,0,0,response5disk,,2,-0.68184936,10.09092629,1,0,0,rectangle,-0.68184936,10.09092629,1,0,0,-0.68184936,10.09092629,1,0,0,0,106,106,21,1,,,,,,,,
,,,,,,,,,,,,,FF,,,,,,,,1.3681,,,,,,,,,,,,,,,,,,,,,,5ea85f905036240a7979d0bd,60e561b69d574c6f31f82600,2021-07-07_10h12.09.112,Simcolourproject_2stim_asymm_v5,2020.2.10,Win32,60,60e52e7cfedb1dae636df45f,,,,,,,,,1765,57.0454213,-125.8181598,1,0,0,response3disk,,4,1.590877831,9.636380851,1,0,0,rectangle,1.590877831,9.636380851,1,0,0,1.590877831,9.636380851,1,0,0,0,107,107,104,1,,,,,,,,
,,,,,,,,,,,,,FF,,,,,,,,0.9843,,,,,,,,,,,,,,,,,,,,,,5ea85f905036240a7979d0bd,60e561b69d574c6f31f82600,2021-07-07_10h12.09.112,Simcolourproject_2stim_asymm_v5,2020.2.10,Win32,60,60e52e7cfedb1dae636df45f,,,,,,,,,2834,106.1363286,-37.18179929,1,0,0,response3disk,,5,15.22724098,9.181835413,1,0,0,rectangle,15.22724098,9.181835413,1,0,0,15.22724098,9.181835413,1,0,0,0,108,108,91,1,,,,,,,,
,,,,,,,,,,,,,FF,,,,,,,,1.3847,,,,,,,,,,,,,,,,,,,,,,5ea85f905036240a7979d0bd,60e561b69d574c6f31f82600,2021-07-07_10h12.09.112,Simcolourproject_2stim_asymm_v5,2020.2.10,Win32,60,60e52e7cfedb1dae636df45f,,,,,,,,,1397,109.3181467,-47.18179893,1,0,0,response3disk,,5,2.954514146,-2.181800544,1,0,0,rectangle,2.954514146,-2.181800544,1,0,0,2.954514146,-2.181800544,1,0,0,0,109,109,121,1,,,,,,,,
,,,,,,,,,,,,,FF,,,,,,,,2.1851,,,,,,,,,,,,,,,,,,,,,,5ea85f905036240a7979d0bd,60e561b69d574c6f31f82600,2021-07-07_10h12.09.112,Simcolourproject_2stim_asymm_v5,2020.2.10,Win32,60,60e52e7cfedb1dae636df45f,,,,,,,,,1058,57.49991125,-127.6363415,1,0,0,response3disk,,4,-10.22730356,-9.909072995,1,0,0,rectangle,-10.22730356,-9.909072995,1,0,0,-10.22730356,-9.909072995,1,0,0,0,110,110,6,1,,,,,,,,
,,,,,,,,,,,,,FF,,,,,,,,1.0845,,,,,,,,,,,,,,,,,,,,,,5ea85f905036240a7979d0bd,60e561b69d574c6f31f82600,2021-07-07_10h12.09.112,Simcolourproject_2stim_asymm_v5,2020.2.10,Win32,60,60e52e7cfedb1dae636df45f,,,,,,,,,758,112.0454193,61.909134,1,0,0,response1disk,,6,4.318150461,5.545471907,1,0,0,rectangle,4.318150461,5.545471907,1,0,0,4.318150461,5.545471907,1,0,0,0,111,111,79,1,,,,,,,,
,,,,,,,,,,,,,FF,,,,,,,,4.4379,,,,,,,,,,,,,,,,,,,,,,5ea85f905036240a7979d0bd,60e561b69d574c6f31f82600,2021-07-07_10h12.09.112,Simcolourproject_2stim_asymm_v5,2020.2.10,Win32,60,60e52e7cfedb1dae636df45f,,,,,,,,,1544,91.13632917,52.81822523,1,0,0,response1disk,,6,28.40905869,-10.36361843,1,0,0,rectangle,28.40905869,-10.36361843,1,0,0,28.40905869,-10.36361843,1,0,0,0,112,112,47,1,,,,,,,,
,,,,,,,,,,,,,FF,,,,,,,,1.9187,,,,,,,,,,,,,,,,,,,,,,5ea85f905036240a7979d0bd,60e561b69d574c6f31f82600,2021-07-07_10h12.09.112,Simcolourproject_2stim_asymm_v5,2020.2.10,Win32,60,60e52e7cfedb1dae636df45f,,,,,,,,,298,90.2272383,-54.45452595,1,0,0,response3disk,,5,-13.86366707,11.90910804,1,0,0,rectangle,-13.86366707,11.90910804,1,0,0,-13.86366707,11.90910804,1,0,0,0,113,113,83,1,,,,,,,,
,,,,,,,,,,,,,FF,,,,,,,,2.2858,,,,,,,,,,,,,,,,,,,,,,5ea85f905036240a7979d0bd,60e561b69d574c6f31f82600,2021-07-07_10h12.09.112,Simcolourproject_2stim_asymm_v5,2020.2.10,Win32,60,60e52e7cfedb1dae636df45f,,,,,,,,,1842,62.49996656,111.454559,1,0,0,response1disk,,7,6.590877652,6.000017345,1,0,0,rectangle,-87.04548264,-36.72725385,1,0,0,-13.86366707,6.909108222,1,0,0,0,114,114,46,1,,response5disk_3,TRUE,2,2,"[38,81,260,263,291,12,242,135,99,219,312,115,51,186,235,78,144,216,96,226]",2.1352,rectangle
,,,,,,,,,,,,,FF,,,,,,,,1.3346,,,,,,,,,,,,,,,,,,,,,,5ea85f905036240a7979d0bd,60e561b69d574c6f31f82600,2021-07-07_10h12.09.112,Simcolourproject_2stim_asymm_v5,2020.2.10,Win32,60,60e52e7cfedb1dae636df45f,,,,,,,,,2752,98.86360162,-64.90907103,1,0,0,response3disk,,5,8.409059405,-5.818164051,1,0,0,rectangle,8.409059405,-5.818164051,1,0,0,8.409059405,-5.818164051,1,0,0,0,115,115,49,1,,,,,,,,
,,,,,,,,,,,,,FF,,,,,,,,1.2847,,,,,,,,,,,,,,,,,,,,,,5ea85f905036240a7979d0bd,60e561b69d574c6f31f82600,2021-07-07_10h12.09.112,Simcolourproject_2stim_asymm_v5,2020.2.10,Win32,60,60e52e7cfedb1dae636df45f,,,,,,,,,1588,94.31814724,32.81822595,1,0,0,response1disk,,6,-5.681849182,-11.27270931,1,0,0,rectangle,-5.681849182,-11.27270931,1,0,0,-5.681849182,-11.27270931,1,0,0,0,116,116,5,1,,,,,,,,
,,,,,,,,,,,,,FF,,,,,,,,0.8509,,,,,,,,,,,,,,,,,,,,,,5ea85f905036240a7979d0bd,60e561b69d574c6f31f82600,2021-07-07_10h12.09.112,Simcolourproject_2stim_asymm_v5,2020.2.10,Win32,60,60e52e7cfedb1dae636df45f,,,,,,,,,3451,93.8636018,38.27274346,1,0,0,response1disk,,6,-22.04548496,10.54547173,1,0,0,rectangle,-22.04548496,10.54547173,1,0,0,-22.04548496,10.54547173,1,0,0,0,117,117,106,1,,,,,,,,
,,,,,,,,,,,,,FF,,,,,,,,1.1011,,,,,,,,,,,,,,,,,,,,,,5ea85f905036240a7979d0bd,60e561b69d574c6f31f82600,2021-07-07_10h12.09.112,Simcolourproject_2stim_asymm_v5,2020.2.10,Win32,60,60e52e7cfedb1dae636df45f,,,,,,,,,1845,99.7726925,46.00004366,1,0,0,response1disk,,6,-20.68184865,4.181835592,1,0,0,rectangle,-20.68184865,4.181835592,1,0,0,-20.68184865,4.181835592,1,0,0,0,118,118,62,1,,,,,,,,
,,,,,,,,,,,,,FF,,,,,,,,2.352,,,,,,,,,,,,,,,,,,,,,,5ea85f905036240a7979d0bd,60e561b69d574c6f31f82600,2021-07-07_10h12.09.112,Simcolourproject_2stim_asymm_v5,2020.2.10,Win32,60,60e52e7cfedb1dae636df45f,,,,,,,,,2321,74.7726934,-40.36361736,1,0,0,response3disk,,5,6.136332214,-8.999982119,1,0,0,rectangle,6.136332214,-8.999982119,1,0,0,6.136332214,-8.999982119,1,0,0,0,119,119,89,1,,,,,,,,
,,,,,,,,,,,,,FF,,,,,,,,1.268,,,,,,,,,,,,,,,,,,,,,,5ea85f905036240a7979d0bd,60e561b69d574c6f31f82600,2021-07-07_10h12.09.112,Simcolourproject_2stim_asymm_v5,2020.2.10,Win32,60,60e52e7cfedb1dae636df45f,,,,,,,,,710,123.8636007,48.72728854,1,0,0,response1disk,,6,-2.045485675,1.9091084,1,0,0,rectangle,-2.045485675,1.9091084,1,0,0,-2.045485675,1.9091084,1,0,0,0,120,120,82,1,,,,,,,,
,,,,,,,,,,,,,FF,,,,,,,,1.6015,,,,,,,,,,,,,,,,,,,,,,5ea85f905036240a7979d0bd,60e561b69d574c6f31f82600,2021-07-07_10h12.09.112,Simcolourproject_2stim_asymm_v5,2020.2.10,Win32,60,60e52e7cfedb1dae636df45f,,,,,,,,,821,44.31814903,-123.999978,1,0,0,response3disk,,4,-2.045485675,-0.818164229,1,0,0,rectangle,-2.045485675,-0.818164229,1,0,0,-2.045485675,-0.818164229,1,0,0,0,121,121,1,1,,,,,,,,
,,,,,,,,,,,,,FF,,,,,,,,1.2181,,,,,,,,,,,,,,,,,,,,,,5ea85f905036240a7979d0bd,60e561b69d574c6f31f82600,2021-07-07_10h12.09.112,Simcolourproject_2stim_asymm_v5,2020.2.10,Win32,60,60e52e7cfedb1dae636df45f,,,,,,,,,2391,128.8636006,35.0909254,1,0,0,response1disk,,6,20.68173075,-3.545436859,1,0,0,rectangle,20.68173075,-3.545436859,1,0,0,20.68173075,-3.545436859,1,0,0,0,122,122,60,1,,,,,,,,
,,,,,,,,,,,,,FF,,,,,,,,1.3848,,,,,,,,,,,,,,,,,,,,,,5ea85f905036240a7979d0bd,60e561b69d574c6f31f82600,2021-07-07_10h12.09.112,Simcolourproject_2stim_asymm_v5,2020.2.10,Win32,60,60e52e7cfedb1dae636df45f,,,,,,,,,621,64.77269375,-42.18179911,1,0,0,response3disk,,5,11.59087747,0.090926647,1,0,0,rectangle,11.59087747,0.090926647,1,0,0,11.59087747,0.090926647,1,0,0,0,123,123,107,1,,,,,,,,
,,,,,,,,,,,,,FF,,,,,,,,3.7034,,,,,,,,,,,,,,,,,,,,,,5ea85f905036240a7979d0bd,60e561b69d574c6f31f82600,2021-07-07_10h12.09.112,Simcolourproject_2stim_asymm_v5,2020.2.10,Win32,60,60e52e7cfedb1dae636df45f,,,,,,,,,3116,97.95451075,-43.99998087,1,0,0,response3disk,,5,14.3181501,-13.09089106,1,0,0,rectangle,14.3181501,-13.09089106,1,0,0,14.3181501,-13.09089106,1,0,0,0,124,124,93,1,,,,,,,,
,,,,,,,,,,,,,FF,,,,,,,,1.1847,,,,,,,,,,,,,,,,,,,,,,5ea85f905036240a7979d0bd,60e561b69d574c6f31f82600,2021-07-07_10h12.09.112,Simcolourproject_2stim_asymm_v5,2020.2.10,Win32,60,60e52e7cfedb1dae636df45f,,,,,,,,,3627,-84.31826549,-106.2727059,1,0,0,response5disk,,3,-19.31826782,-4.454527736,1,0,0,rectangle,-19.31826782,-4.454527736,1,0,0,-19.31826782,-4.454527736,1,0,0,0,125,125,32,1,,,,,,,,
,,,,,,,,,,,,,FF,,,,,,,,0.9845,,,,,,,,,,,,,,,,,,,,,,5ea85f905036240a7979d0bd,60e561b69d574c6f31f82600,2021-07-07_10h12.09.112,Simcolourproject_2stim_asymm_v5,2020.2.10,Win32,60,60e52e7cfedb1dae636df45f,,,,,,,,,137,110.681783,-46.7272535,1,0,0,response3disk,,5,16.59087729,-4.909073174,1,0,0,rectangle,16.59087729,-4.909073174,1,0,0,16.59087729,-4.909073174,1,0,0,0,126,126,140,1,,,,,,,,
,,,,,,,,,,,,,FF,,,,,,,,3.8708,,,,,,,,,,,,,,,,,,,,,,5ea85f905036240a7979d0bd,60e561b69d574c6f31f82600,2021-07-07_10h12.09.112,Simcolourproject_2stim_asymm_v5,2020.2.10,Win32,60,60e52e7cfedb1dae636df45f,,,,,,,,,2050,50.68172968,58.27274275,1,0,0,response1disk,,7,-14.77275795,-8.090891242,1,0,0,rectangle,-14.77275795,-8.090891242,1,0,0,-14.77275795,-8.090891242,1,0,0,0,127,127,149,1,,,,,,,,
,,,,,,,,,,,,,FF,,,,,,,,1.7687,,,,,,,,,,,,,,,,,,,,,,5ea85f905036240a7979d0bd,60e561b69d574c6f31f82600,2021-07-07_10h12.09.112,Simcolourproject_2stim_asymm_v5,2020.2.10,Win32,60,60e52e7cfedb1dae636df45f,,,,,,,,,3050,-97.95457315,-84.45452487,1,0,0,response5disk,,2,12.04542291,-19.4545272,1,0,0,rectangle,12.04542291,-19.4545272,1,0,0,12.04542291,-19.4545272,1,0,0,0,128,128,68,1,,,,,,,,
,,,,,,,,,,,,,FF,,,,,,,,0.9844,,,,,,,,,,,,,,,,,,,,,,5ea85f905036240a7979d0bd,60e561b69d574c6f31f82600,2021-07-07_10h12.09.112,Simcolourproject_2stim_asymm_v5,2020.2.10,Win32,60,60e52e7cfedb1dae636df45f,,,,,,,,,335,124.3181462,-38.99998105,1,0,0,response3disk,,5,32.49991215,10.54547173,1,0,0,rectangle,32.49991215,10.54547173,1,0,0,32.49991215,10.54547173,1,0,0,0,129,129,20,1,,,,,,,,
,,,,,,,,,,,,,FF,,,,,,,,1.2012,,,,,,,,,,,,,,,,,,,,,,5ea85f905036240a7979d0bd,60e561b69d574c6f31f82600,2021-07-07_10h12.09.112,Simcolourproject_2stim_asymm_v5,2020.2.10,Win32,60,60e52e7cfedb1dae636df45f,,,,,,,,,1929,109.3181467,-33.09089035,1,0,0,response3disk,,5,14.77269554,8.727289975,1,0,0,rectangle,14.77269554,8.727289975,1,0,0,14.77269554,8.727289975,1,0,0,0,130,130,152,1,,,,,,,,
,,,,,,,,,,,,,FF,,,,,,,,1.0179,,,,,,,,,,,,,,,,,,,,,,5ea85f905036240a7979d0bd,60e561b69d574c6f31f82600,2021-07-07_10h12.09.112,Simcolourproject_2stim_asymm_v5,2020.2.10,Win32,60,60e52e7cfedb1dae636df45f,,,,,,,,,3336,-86.13644725,38.27274346,1,0,0,response7disk,,1,1.136332393,3.272744715,1,0,0,rectangle,1.136332393,3.272744715,1,0,0,1.136332393,3.272744715,1,0,0,0,131,131,95,1,,,,,,,,
,,,,,,,,,,,,,FF,,,,,,,,1.2347,,,,,,,,,,,,,,,,,,,,,,5ea85f905036240a7979d0bd,60e561b69d574c6f31f82600,2021-07-07_10h12.09.112,Simcolourproject_2stim_asymm_v5,2020.2.10,Win32,60,60e52e7cfedb1dae636df45f,,,,,,,,,657,88.40905654,-116.2727056,1,0,0,response3disk,,4,-0.68184936,-2.181800544,1,0,0,rectangle,-0.68184936,-2.181800544,1,0,0,-0.68184936,-2.181800544,1,0,0,0,132,132,38,1,,,,,,,,
,,,,,,,,,,,,,FF,,,,,,,,2.6021,,,,,,,,,,,,,,,,,,,,,,5ea85f905036240a7979d0bd,60e561b69d574c6f31f82600,2021-07-07_10h12.09.112,Simcolourproject_2stim_asymm_v5,2020.2.10,Win32,60,60e52e7cfedb1dae636df45f,,,,,,,,,3280,92.04542005,36.90913489,1,0,0,response1disk,,6,-2.5000866,-3.090891421,1,0,0,rectangle,-2.5000866,-3.090891421,1,0,0,-2.5000866,-3.090891421,1,0,0,0,133,133,4,1,,,,,,,,
,,,,,,,,,,,,,FF,,,,,,,,1.0838,,,,,,,,,,,,,,,,,,,,,,5ea85f905036240a7979d0bd,60e561b69d574c6f31f82600,2021-07-07_10h12.09.112,Simcolourproject_2stim_asymm_v5,2020.2.10,Win32,60,60e52e7cfedb1dae636df45f,,,,,,,,,4087,102.4999651,38.27274346,1,0,0,response1disk,,6,-3.863667428,3.272744715,1,0,0,rectangle,112.0454193,-51.27270788,1,0,0,-1.590940237,3.727290154,1,0,0,0,134,134,119,1,,response3disk_3,TRUE,5,5,"[38,81,260,263,291,12,242,135,99,219,312,115,51,186,235,78,144,216,96,226]",1.8184,rectangle
,,,,,,,,,,,,,FF,,,,,,,,1.0678,,,,,,,,,,,,,,,,,,,,,,5ea85f905036240a7979d0bd,60e561b69d574c6f31f82600,2021-07-07_10h12.09.112,Simcolourproject_2stim_asymm_v5,2020.2.10,Win32,60,60e52e7cfedb1dae636df45f,,,,,,,,,3283,-116.1364462,-55.81816226,1,0,0,response5disk,,2,4.318150461,12.36365348,1,0,0,rectangle,4.318150461,12.36365348,1,0,0,4.318150461,12.36365348,1,0,0,0,135,135,151,1,,,,,,,,
,,,,,,,,,,,,,FF,,,,,,,,1.4854,,,,,,,,,,,,,,,,,,,,,,5ea85f905036240a7979d0bd,60e561b69d574c6f31f82600,2021-07-07_10h12.09.112,Simcolourproject_2stim_asymm_v5,2020.2.10,Win32,60,60e52e7cfedb1dae636df45f,,,,,,,,,2712,-53.86366564,-85.36356026,1,0,0,response5disk,,3,-3.863667428,2.363653839,1,0,0,rectangle,-3.863667428,2.363653839,1,0,0,-3.863667428,2.363653839,1,0,0,0,136,136,153,1,,,,,,,,
,,,,,,,,,,,,,FF,,,,,,,,1.168,,,,,,,,,,,,,,,,,,,,,,5ea85f905036240a7979d0bd,60e561b69d574c6f31f82600,2021-07-07_10h12.09.112,Simcolourproject_2stim_asymm_v5,2020.2.10,Win32,60,60e52e7cfedb1dae636df45f,,,,,,,,,1383,-90.2273007,-43.09088999,1,0,0,response5disk,,2,-30.68184829,-3.545436859,1,0,0,rectangle,-30.68184829,-3.545436859,1,0,0,-30.68184829,-3.545436859,1,0,0,0,137,137,13,1,,,,,,,,
,,,,,,,,,,,,,FF,,,,,,,,1.1345,,,,,,,,,,,,,,,,,,,,,,5ea85f905036240a7979d0bd,60e561b69d574c6f31f82600,2021-07-07_10h12.09.112,Simcolourproject_2stim_asymm_v5,2020.2.10,Win32,60,60e52e7cfedb1dae636df45f,,,,,,,,,3147,-80.22730106,31.45456189,1,0,0,response7disk,,1,-20.22730321,-0.363618791,1,0,0,rectangle,-20.22730321,-0.363618791,1,0,0,-20.22730321,-0.363618791,1,0,0,0,138,138,73,1,,,,,,,,
,,,,,,,,,,,,,FF,,,,,,,,0.7676,,,,,,,,,,,,,,,,,,,,,,5ea85f905036240a7979d0bd,60e561b69d574c6f31f82600,2021-07-07_10h12.09.112,Simcolourproject_2stim_asymm_v5,2020.2.10,Win32,60,60e52e7cfedb1dae636df45f,,,,,,,,,3654,97.04541987,-51.72725332,1,0,0,response3disk,,5,14.3181501,-1.272709668,1,0,0,rectangle,14.3181501,-1.272709668,1,0,0,14.3181501,-1.272709668,1,0,0,0,139,139,157,1,,,,,,,,
,,,,,,,,,,,,,FF,,,,,,,,1.3346,,,,,,,,,,,,,,,,,,,,,,5ea85f905036240a7979d0bd,60e561b69d574c6f31f82600,2021-07-07_10h12.09.112,Simcolourproject_2stim_asymm_v5,2020.2.10,Win32,60,60e52e7cfedb1dae636df45f,,,,,,,,,3412,35.68173022,-88.99997926,1,0,0,response3disk,,4,-17.50008606,1.9091084,1,0,0,rectangle,-17.50008606,1.9091084,1,0,0,-17.50008606,1.9091084,1,0,0,0,140,140,29,1,,,,,,,,
,,,,,,,,,,,,,FF,,,,,,,,0.951,,,,,,,,,,,,,,,,,,,,,,5ea85f905036240a7979d0bd,60e561b69d574c6f31f82600,2021-07-07_10h12.09.112,Simcolourproject_2stim_asymm_v5,2020.2.10,Win32,60,60e52e7cfedb1dae636df45f,,,,,,,,,1854,112.9545102,42.81822559,1,0,0,response1disk,,6,17.95451361,8.727289975,1,0,0,rectangle,17.95451361,8.727289975,1,0,0,17.95451361,8.727289975,1,0,0,0,141,141,61,1,,,,,,,,
,,,,,,,,,,,,,FF,,,,,,,,4.3886,,,,,,,,,,,,,,,,,,,,,,5ea85f905036240a7979d0bd,60e561b69d574c6f31f82600,2021-07-07_10h12.09.112,Simcolourproject_2stim_asymm_v5,2020.2.10,Win32,60,60e52e7cfedb1dae636df45f,,,,,,,,,3417,66.59087551,28.72728926,1,0,0,response1disk,,6,10.22724116,-2.181800544,1,0,0,rectangle,10.22724116,-2.181800544,1,0,0,10.22724116,-2.181800544,1,0,0,0,142,142,105,1,,,,,,,,
,,,,,,,,,,,,,FF,,,,,,,,0.7508,,,,,,,,,,,,,,,,,,,,,,5ea85f905036240a7979d0bd,60e561b69d574c6f31f82600,2021-07-07_10h12.09.112,Simcolourproject_2stim_asymm_v5,2020.2.10,Win32,60,60e52e7cfedb1dae636df45f,,,,,,,,,3290,-40.68184793,95.54546869,1,0,0,response7disk,,0,-19.31826782,-5.363618612,1,0,0,rectangle,-62.95457441,125.0909222,1,0,0,-6.136450106,5.545471907,1,0,0,0,143,143,113,1,,response7disk_3,TRUE,0,0,"[38,81,260,263,291,12,242,135,99,219,312,115,51,186,235,78,144,216,96,226]",1.9349,rectangle
,,,,,,,,,,,,,FF,,,,,,,,2.3691,,,,,,,,,,,,,,,,,,,,,,5ea85f905036240a7979d0bd,60e561b69d574c6f31f82600,2021-07-07_10h12.09.112,Simcolourproject_2stim_asymm_v5,2020.2.10,Win32,60,60e52e7cfedb1dae636df45f,,,,,,,,,4250,-48.40912038,-100.8181607,1,0,0,response5disk,,3,18.863549,2.363653839,1,0,0,rectangle,18.863549,2.363653839,1,0,0,18.863549,2.363653839,1,0,0,0,144,144,36,1,,,,,,,,
,,,,,,,,,,,,,FF,,,,,,,,1.2014,,,,,,,,,,,,,,,,,,,,,,5ea85f905036240a7979d0bd,60e561b69d574c6f31f82600,2021-07-07_10h12.09.112,Simcolourproject_2stim_asymm_v5,2020.2.10,Win32,60,60e52e7cfedb1dae636df45f,,,,,,,,,2812,93.8636018,-29.45452684,1,0,0,response3disk,,5,-39.77275705,19.63638049,1,0,0,rectangle,-39.77275705,19.63638049,1,0,0,-39.77275705,19.63638049,1,0,0,0,145,145,59,1,,,,,,,,
,,,,,,,,,,,,,FF,,,,,,,,2.3356,,,,,,,,,,,,,,,,,,,,,,5ea85f905036240a7979d0bd,60e561b69d574c6f31f82600,2021-07-07_10h12.09.112,Simcolourproject_2stim_asymm_v5,2020.2.10,Win32,60,60e52e7cfedb1dae636df45f,,,,,,,,,2700,88.40905654,-42.63634455,1,0,0,response3disk,,5,-11.59093988,-9.909072995,1,0,0,rectangle,-11.59093988,-9.909072995,1,0,0,-11.59093988,-9.909072995,1,0,0,0,146,146,92,1,,,,,,,,
,,,,,,,,,,,,,FF,,,,,,,,1.9854,,,,,,,,,,,,,,,,,,,,,,5ea85f905036240a7979d0bd,60e561b69d574c6f31f82600,2021-07-07_10h12.09.112,Simcolourproject_2stim_asymm_v5,2020.2.10,Win32,60,60e52e7cfedb1dae636df45f,,,,,,,,,1255,109.7726921,32.81822595,1,0,0,response1disk,,6,2.045423269,-6.272709489,1,0,0,rectangle,2.045423269,-6.272709489,1,0,0,2.045423269,-6.272709489,1,0,0,0,147,147,41,1,,,,,,,,
,,,,,,,,,,,,,FF,,,,,,,,0.7509,,,,,,,,,,,,,,,,,,,,,,5ea85f905036240a7979d0bd,60e561b69d574c6f31f82600,2021-07-07_10h12.09.112,Simcolourproject_2stim_asymm_v5,2020.2.10,Win32,60,60e52e7cfedb1dae636df45f,,,,,,,,,3224,110.2272376,44.6363796,1,0,0,response1disk,,6,24.31814975,-7.636345804,1,0,0,rectangle,24.31814975,-7.636345804,1,0,0,24.31814975,-7.636345804,1,0,0,0,148,148,88,1,,,,,,,,
,,,,,,,,,,,,,FF,,,,,,,,0.8511,,,,,,,,,,,,,,,,,,,,,,5ea85f905036240a7979d0bd,60e561b69d574c6f31f82600,2021-07-07_10h12.09.112,Simcolourproject_2stim_asymm_v5,2020.2.10,Win32,60,60e52e7cfedb1dae636df45f,,,,,,,,,3612,89.77269286,33.72728908,1,0,0,response1disk,,6,-4.772758305,3.727290154,1,0,0,rectangle,-4.772758305,3.727290154,1,0,0,-4.772758305,3.727290154,1,0,0,0,149,149,53,1,,,,,,,,
,,,,,,,,,,,,,FF,,,,,,,,0.7343,,,,,,,,,,,,,,,,,,,,,,5ea85f905036240a7979d0bd,60e561b69d574c6f31f82600,2021-07-07_10h12.09.112,Simcolourproject_2stim_asymm_v5,2020.2.10,Win32,60,60e52e7cfedb1dae636df45f,,,,,,,,,1710,104.3181469,42.36365241,1,0,0,response1disk,,6,-3.863667428,-10.36361843,1,0,0,rectangle,-3.863667428,-10.36361843,1,0,0,-3.863667428,-10.36361843,1,0,0,0,150,150,64,1,,,,,,,,
,,,,,,,,,,,,,FF,,,,,,,,0.951,,,,,,,,,,,,,,,,,,,,,,5ea85f905036240a7979d0bd,60e561b69d574c6f31f82600,2021-07-07_10h12.09.112,Simcolourproject_2stim_asymm_v5,2020.2.10,Win32,60,60e52e7cfedb1dae636df45f,,,,,,,,,2636,71.13632989,-29.45452684,1,0,0,response3disk,,5,30.6817304,5.090926468,1,0,0,rectangle,30.6817304,5.090926468,1,0,0,30.6817304,5.090926468,1,0,0,0,151,151,136,1,,,,,,,,
,,,,,,,,,,,,,FF,,,,,,,,1.2514,,,,,,,,,,,,,,,,,,,,,,5ea85f905036240a7979d0bd,60e561b69d574c6f31f82600,2021-07-07_10h12.09.112,Simcolourproject_2stim_asymm_v5,2020.2.10,Win32,60,60e52e7cfedb1dae636df45f,,,,,,,,,4139,124.7726916,46.00004366,1,0,0,response1disk,,6,-12.50008624,-1.272709668,1,0,0,rectangle,-12.50008624,-1.272709668,1,0,0,-12.50008624,-1.272709668,1,0,0,0,152,152,118,1,,,,,,,,
,,,,,,,,,,,,,FF,,,,,,,,1.2679,,,,,,,,,,,,,,,,,,,,,,5ea85f905036240a7979d0bd,60e561b69d574c6f31f82600,2021-07-07_10h12.09.112,Simcolourproject_2stim_asymm_v5,2020.2.10,Win32,60,60e52e7cfedb1dae636df45f,,,,,,,,,3207,82.04542041,-61.72725296,1,0,0,response3disk,,5,7.04542309,-6.727254927,1,0,0,rectangle,7.04542309,-6.727254927,1,0,0,7.04542309,-6.727254927,1,0,0,0,153,153,48,1,,,,,,,,
,,,,,,,,,,,,,FF,,,,,,,,1.2004,,,,,,,,,,,,,,,,,,,,,,5ea85f905036240a7979d0bd,60e561b69d574c6f31f82600,2021-07-07_10h12.09.112,Simcolourproject_2stim_asymm_v5,2020.2.10,Win32,60,60e52e7cfedb1dae636df45f,,,,,,,,,3872,51.1363306,-102.6363424,1,0,0,response3disk,,4,-8.409121811,6.454562783,1,0,0,rectangle,-8.409121811,6.454562783,1,0,0,-8.409121811,6.454562783,1,0,0,0,154,154,67,1,,,,,,,,
,,,,,,,,,,,,,FF,,,,,,,,1.2015,,,,,,,,,,,,,,,,,,,,,,5ea85f905036240a7979d0bd,60e561b69d574c6f31f82600,2021-07-07_10h12.09.112,Simcolourproject_2stim_asymm_v5,2020.2.10,Win32,60,60e52e7cfedb1dae636df45f,,,,,,,,,1612,47.95451254,-91.27270645,1,0,0,response3disk,,4,16.59087729,0.090926647,1,0,0,rectangle,16.59087729,0.090926647,1,0,0,16.59087729,0.090926647,1,0,0,0,155,155,150,1,,,,,,,,
,,,,,,,,,,,,,FF,,,,,,,,1.6011,,,,,,,,,,,,,,,,,,,,,,5ea85f905036240a7979d0bd,60e561b69d574c6f31f82600,2021-07-07_10h12.09.112,Simcolourproject_2stim_asymm_v5,2020.2.10,Win32,60,60e52e7cfedb1dae636df45f,,,,,,,,,1547,118.8636009,-50.363617,1,0,0,response3disk,,5,8.409059405,-4.909073174,1,0,0,rectangle,8.409059405,-4.909073174,1,0,0,8.409059405,-4.909073174,1,0,0,0,156,156,145,1,,,,,,,,
,,,,,,,,,,,,,FF,,,,,,,,1.0511,,,,,,,,,,,,,,,,,,,,,,5ea85f905036240a7979d0bd,60e561b69d574c6f31f82600,2021-07-07_10h12.09.112,Simcolourproject_2stim_asymm_v5,2020.2.10,Win32,60,60e52e7cfedb1dae636df45f,,,,,,,,,146,80.22723866,-39.45452648,1,0,0,response3disk,,5,-2.5000866,1.9091084,1,0,0,rectangle,-2.5000866,1.9091084,1,0,0,-2.5000866,1.9091084,1,0,0,0,157,157,9,1,,,,,,,,
,,,,,,,,,,,,,FF,,,,,,,,1.018,,,,,,,,,,,,,,,,,,,,,,5ea85f905036240a7979d0bd,60e561b69d574c6f31f82600,2021-07-07_10h12.09.112,Simcolourproject_2stim_asymm_v5,2020.2.10,Win32,60,60e52e7cfedb1dae636df45f,,,,,,,,,4092,101.1363288,45.54547048,1,0,0,response1disk,,6,-11.59093988,2.818199277,1,0,0,rectangle,-11.59093988,2.818199277,1,0,0,-11.59093988,2.818199277,1,0,0,0,158,158,33,1,,,,,,,,
,,,,,,,,,,,,,FF,,,,,,,,0.884,,,,,,,,,,,,,,,,,,,,,,5ea85f905036240a7979d0bd,60e561b69d574c6f31f82600,2021-07-07_10h12.09.112,Simcolourproject_2stim_asymm_v5,2020.2.10,Win32,60,60e52e7cfedb1dae636df45f,,,,,,,,,672,91.13632917,41.45456153,1,0,0,response1disk,,6,-2.954576552,6.909108222,1,0,0,rectangle,-2.954576552,6.909108222,1,0,0,-2.954576552,6.909108222,1,0,0,0,159,159,42,1,,,,,,,,
,,,,,,,,,,,,,FF,,,,,,,,1.952,,,,,,,,,,,,,,,,,,,,,,5ea85f905036240a7979d0bd,60e561b69d574c6f31f82600,2021-07-07_10h12.09.112,Simcolourproject_2stim_asymm_v5,2020.2.10,Win32,60,60e52e7cfedb1dae636df45f,,,,,,,,,1281,90.68178374,-40.8181628,1,0,0,response3disk,,5,27.95451325,15.09092611,1,0,0,rectangle,27.95451325,15.09092611,1,0,0,27.95451325,15.09092611,1,0,0,1,0,160,156,1,,,,,,,,
,,,,,,,,,,,,,FF,,,,,,,,1.3844,,,,,,,,,,,,,,,,,,,,,,5ea85f905036240a7979d0bd,60e561b69d574c6f31f82600,2021-07-07_10h12.09.112,Simcolourproject_2stim_asymm_v5,2020.2.10,Win32,60,60e52e7cfedb1dae636df45f,,,,,,,,,2002,130.6817823,52.81822523,1,0,0,response1disk,,6,2.499913221,-5.818164051,1,0,0,rectangle,2.499913221,-5.818164051,1,0,0,2.499913221,-5.818164051,1,0,0,1,1,161,70,1,,,,,,,,
,,,,,,,,,,,,,FF,,,,,,,,1.3012,,,,,,,,,,,,,,,,,,,,,,5ea85f905036240a7979d0bd,60e561b69d574c6f31f82600,2021-07-07_10h12.09.112,Simcolourproject_2stim_asymm_v5,2020.2.10,Win32,60,60e52e7cfedb1dae636df45f,,,,,,,,,4160,122.4999644,44.18183416,1,0,0,response1disk,,6,15.22724098,6.000017345,1,0,0,rectangle,15.22724098,6.000017345,1,0,0,15.22724098,6.000017345,1,0,0,1,2,162,140,1,,,,,,,,
,,,,,,,,,,,,,FF,,,,,,,,1.1178,,,,,,,,,,,,,,,,,,,,,,5ea85f905036240a7979d0bd,60e561b69d574c6f31f82600,2021-07-07_10h12.09.112,Simcolourproject_2stim_asymm_v5,2020.2.10,Win32,60,60e52e7cfedb1dae636df45f,,,,,,,,,2602,88.86360198,-45.36361718,1,0,0,response3disk,,5,19.31814992,3.272744715,1,0,0,rectangle,19.31814992,3.272744715,1,0,0,19.31814992,3.272744715,1,0,0,1,3,163,74,1,,,,,,,,
,,,,,,,,,,,,,FF,,,,,,,,1.1511,,,,,,,,,,,,,,,,,,,,,,5ea85f905036240a7979d0bd,60e561b69d574c6f31f82600,2021-07-07_10h12.09.112,Simcolourproject_2stim_asymm_v5,2020.2.10,Win32,60,60e52e7cfedb1dae636df45f,,,,,,,,,1221,31.13633132,-131.272705,1,0,0,response3disk,,4,-14.318268,-5.363618612,1,0,0,rectangle,-14.318268,-5.363618612,1,0,0,-14.318268,-5.363618612,1,0,0,1,4,164,127,1,,,,,,,,
,,,,,,,,,,,,,FF,,,,,,,,1.3176,,,,,,,,,,,,,,,,,,,,,,5ea85f905036240a7979d0bd,60e561b69d574c6f31f82600,2021-07-07_10h12.09.112,Simcolourproject_2stim_asymm_v5,2020.2.10,Win32,60,60e52e7cfedb1dae636df45f,,,,,,,,,947,116.5908737,-46.27270806,1,0,0,response3disk,,5,2.954514146,3.272744715,1,0,0,rectangle,2.954514146,3.272744715,1,0,0,2.954514146,3.272744715,1,0,0,1,5,165,64,1,,,,,,,,
,,,,,,,,,,,,,FF,,,,,,,,1.0509,,,,,,,,,,,,,,,,,,,,,,5ea85f905036240a7979d0bd,60e561b69d574c6f31f82600,2021-07-07_10h12.09.112,Simcolourproject_2stim_asymm_v5,2020.2.10,Win32,60,60e52e7cfedb1dae636df45f,,,,,,,,,2584,129.7726914,54.1818338,1,0,0,response1disk,,6,-0.227303922,-1.272709668,1,0,0,rectangle,-0.227303922,-1.272709668,1,0,0,-0.227303922,-1.272709668,1,0,0,1,6,166,147,1,,,,,,,,
,,,,,,,,,,,,,FF,,,,,,,,1.0341,,,,,,,,,,,,,,,,,,,,,,5ea85f905036240a7979d0bd,60e561b69d574c6f31f82600,2021-07-07_10h12.09.112,Simcolourproject_2stim_asymm_v5,2020.2.10,Win32,60,60e52e7cfedb1dae636df45f,,,,,,,,,2208,93.40905637,55.54547012,1,0,0,response1disk,,6,6.136332214,8.272744536,1,0,0,rectangle,6.136332214,8.272744536,1,0,0,6.136332214,8.272744536,1,0,0,1,7,167,158,1,,,,,,,,
,,,,,,,,,,,,,FF,,,,,,,,1.4848,,,,,,,,,,,,,,,,,,,,,,5ea85f905036240a7979d0bd,60e561b69d574c6f31f82600,2021-07-07_10h12.09.112,Simcolourproject_2stim_asymm_v5,2020.2.10,Win32,60,60e52e7cfedb1dae636df45f,,,,,,,,,3719,-23.86366671,-117.6363419,1,0,0,response5disk,,3,10.68173111,4.181835592,1,0,0,rectangle,10.68173111,4.181835592,1,0,0,10.68173111,4.181835592,1,0,0,1,8,168,159,1,,,,,,,,
,,,,,,,,,,,,,FF,,,,,,,,1.201,,,,,,,,,,,,,,,,,,,,,,5ea85f905036240a7979d0bd,60e561b69d574c6f31f82600,2021-07-07_10h12.09.112,Simcolourproject_2stim_asymm_v5,2020.2.10,Win32,60,60e52e7cfedb1dae636df45f,,,,,,,,,3459,54.77269411,89.63637799,1,0,0,response1disk,,7,3.863549536,-3.545436859,1,0,0,rectangle,3.863549536,-3.545436859,1,0,0,3.863549536,-3.545436859,1,0,0,1,9,169,123,1,,,,,,,,
,,,,,,,,,,,,,FF,,,,,,,,1.802,,,,,,,,,,,,,,,,,,,,,,5ea85f905036240a7979d0bd,60e561b69d574c6f31f82600,2021-07-07_10h12.09.112,Simcolourproject_2stim_asymm_v5,2020.2.10,Win32,60,60e52e7cfedb1dae636df45f,,,,,,,,,3094,87.04542023,-48.09088981,1,0,0,response3disk,,5,-1.590940237,-9.454527557,1,0,0,rectangle,-1.590940237,-9.454527557,1,0,0,-1.590940237,-9.454527557,1,0,0,1,10,170,69,1,,,,,,,,
,,,,,,,,,,,,,FF,,,,,,,,1.0344,,,,,,,,,,,,,,,,,,,,,,5ea85f905036240a7979d0bd,60e561b69d574c6f31f82600,2021-07-07_10h12.09.112,Simcolourproject_2stim_asymm_v5,2020.2.10,Win32,60,60e52e7cfedb1dae636df45f,,,,,,,,,632,-71.13644778,58.27274275,1,0,0,response7disk,,1,5.681731289,11.90910804,1,0,0,rectangle,5.681731289,11.90910804,1,0,0,5.681731289,11.90910804,1,0,0,1,11,171,66,1,,,,,,,,
,,,,,,,,,,,,,FF,,,,,,,,1.2679,,,,,,,,,,,,,,,,,,,,,,5ea85f905036240a7979d0bd,60e561b69d574c6f31f82600,2021-07-07_10h12.09.112,Simcolourproject_2stim_asymm_v5,2020.2.10,Win32,60,60e52e7cfedb1dae636df45f,,,,,,,,,3979,-105.2273002,-44.90907174,1,0,0,response5disk,,2,-5.681849182,-0.363618791,1,0,0,rectangle,-5.681849182,-0.363618791,1,0,0,-5.681849182,-0.363618791,1,0,0,1,12,172,132,1,,,,,,,,
,,,,,,,,,,,,,FF,,,,,,,,1.1677,,,,,,,,,,,,,,,,,,,,,,5ea85f905036240a7979d0bd,60e561b69d574c6f31f82600,2021-07-07_10h12.09.112,Simcolourproject_2stim_asymm_v5,2020.2.10,Win32,60,60e52e7cfedb1dae636df45f,,,,,,,,,3586,-99.77275491,43.72728872,1,0,0,response7disk,,1,-9.772758126,1.9091084,1,0,0,rectangle,-9.772758126,1.9091084,1,0,0,-9.772758126,1.9091084,1,0,0,1,13,173,124,1,,,,,,,,
,,,,,,,,,,,,,FF,,,,,,,,1.4349,,,,,,,,,,,,,,,,,,,,,,5ea85f905036240a7979d0bd,60e561b69d574c6f31f82600,2021-07-07_10h12.09.112,Simcolourproject_2stim_asymm_v5,2020.2.10,Win32,60,60e52e7cfedb1dae636df45f,,,,,,,,,2544,-65.2273016,-112.1817966,1,0,0,response5disk,,3,-20.68184865,4.181835592,1,0,0,rectangle,-20.68184865,4.181835592,1,0,0,-20.68184865,4.181835592,1,0,0,1,14,174,20,1,,,,,,,,
,,,,,,,,,,,,,FF,,,,,,,,2.0522,,,,,,,,,,,,,,,,,,,,,,5ea85f905036240a7979d0bd,60e561b69d574c6f31f82600,2021-07-07_10h12.09.112,Simcolourproject_2stim_asymm_v5,2020.2.10,Win32,60,60e52e7cfedb1dae636df45f,,,,,,,,,1509,101.5908743,-32.18179947,1,0,0,response3disk,,5,19.77269536,-1.272709668,1,0,0,rectangle,19.77269536,-1.272709668,1,0,0,19.77269536,-1.272709668,1,0,0,1,15,175,12,1,,,,,,,,
,,,,,,,,,,,,,FF,,,,,,,,0.8174,,,,,,,,,,,,,,,,,,,,,,5ea85f905036240a7979d0bd,60e561b69d574c6f31f82600,2021-07-07_10h12.09.112,Simcolourproject_2stim_asymm_v5,2020.2.10,Win32,60,60e52e7cfedb1dae636df45f,,,,,,,,,2888,37.04542202,89.63637799,1,0,0,response1disk,,7,16.13633186,-0.363618791,1,0,0,rectangle,16.13633186,-0.363618791,1,0,0,16.13633186,-0.363618791,1,0,0,1,16,176,115,1,,,,,,,,
,,,,,,,,,,,,,FF,,,,,,,,1.1512,,,,,,,,,,,,,,,,,,,,,,5ea85f905036240a7979d0bd,60e561b69d574c6f31f82600,2021-07-07_10h12.09.112,Simcolourproject_2stim_asymm_v5,2020.2.10,Win32,60,60e52e7cfedb1dae636df45f,,,,,,,,,438,-106.1364465,31.45456189,1,0,0,response7disk,,1,-7.954576373,1.9091084,1,0,0,rectangle,-7.954576373,1.9091084,1,0,0,-7.954576373,1.9091084,1,0,0,1,17,177,55,1,,,,,,,,
,,,,,,,,,,,,,FF,,,,,,,,1.0677,,,,,,,,,,,,,,,,,,,,,,5ea85f905036240a7979d0bd,60e561b69d574c6f31f82600,2021-07-07_10h12.09.112,Simcolourproject_2stim_asymm_v5,2020.2.10,Win32,60,60e52e7cfedb1dae636df45f,,,,,,,,,3225,121.5908735,-48.09088981,1,0,0,response3disk,,5,9.77269572,11.00001717,1,0,0,rectangle,9.77269572,11.00001717,1,0,0,9.77269572,11.00001717,1,0,0,1,18,178,23,1,,,,,,,,
,,,,,,,,,,,,,FF,,,,,,,,1.3847,,,,,,,,,,,,,,,,,,,,,,5ea85f905036240a7979d0bd,60e561b69d574c6f31f82600,2021-07-07_10h12.09.112,Simcolourproject_2stim_asymm_v5,2020.2.10,Win32,60,60e52e7cfedb1dae636df45f,,,,,,,,,218,103.409056,-56.2727077,1,0,0,response3disk,,5,12.95451379,-1.272709668,1,0,0,rectangle,12.95451379,-1.272709668,1,0,0,12.95451379,-1.272709668,1,0,0,1,19,179,76,1,,,,,,,,
,,,,,,,,,,,,,FF,,,,,,,,1.4514,,,,,,,,,,,,,,,,,,,,,,5ea85f905036240a7979d0bd,60e561b69d574c6f31f82600,2021-07-07_10h12.09.112,Simcolourproject_2stim_asymm_v5,2020.2.10,Win32,60,60e52e7cfedb1dae636df45f,,,,,,,,,667,113.4090557,-48.54537976,1,0,0,response3disk,,5,1.590877831,-1.272709668,1,0,0,rectangle,1.590877831,-1.272709668,1,0,0,1.590877831,-1.272709668,1,0,0,1,20,180,131,1,,,,,,,,
,,,,,,,,,,,,,FF,,,,,,,,1.1005,,,,,,,,,,,,,,,,,,,,,,5ea85f905036240a7979d0bd,60e561b69d574c6f31f82600,2021-07-07_10h12.09.112,Simcolourproject_2stim_asymm_v5,2020.2.10,Win32,60,60e52e7cfedb1dae636df45f,,,,,,,,,2145,82.49996585,33.27274364,1,0,0,response1disk,,6,-4.318268353,9.181835413,1,0,0,rectangle,-4.318268353,9.181835413,1,0,0,-4.318268353,9.181835413,1,0,0,1,21,181,37,1,,,,,,,,
,,,,,,,,,,,,,FF,,,,,,,,0.9343,,,,,,,,,,,,,,,,,,,,,,5ea85f905036240a7979d0bd,60e561b69d574c6f31f82600,2021-07-07_10h12.09.112,Simcolourproject_2stim_asymm_v5,2020.2.10,Win32,60,60e52e7cfedb1dae636df45f,,,,,,,,,1893,-79.77275562,47.81822541,1,0,0,response7disk,,1,7.499913042,6.454562783,1,0,0,rectangle,7.499913042,6.454562783,1,0,0,7.499913042,6.454562783,1,0,0,1,22,182,118,1,,,,,,,,
,,,,,,,,,,,,,FF,,,,,,,,0.8174,,,,,,,,,,,,,,,,,,,,,,5ea85f905036240a7979d0bd,60e561b69d574c6f31f82600,2021-07-07_10h12.09.112,Simcolourproject_2stim_asymm_v5,2020.2.10,Win32,60,60e52e7cfedb1dae636df45f,,,,,,,,,2578,94.77269268,38.7272889,1,0,0,response1disk,,6,12.49991286,-1.272709668,1,0,0,rectangle,12.49991286,-1.272709668,1,0,0,12.49991286,-1.272709668,1,0,0,1,23,183,67,1,,,,,,,,
,,,,,,,,,,,,,FF,,,,,,,,1.2178,,,,,,,,,,,,,,,,,,,,,,5ea85f905036240a7979d0bd,60e561b69d574c6f31f82600,2021-07-07_10h12.09.112,Simcolourproject_2stim_asymm_v5,2020.2.10,Win32,60,60e52e7cfedb1dae636df45f,,,,,,,,,468,93.40905637,-52.63634419,1,0,0,response3disk,,5,-3.40912199,-4.909073174,1,0,0,rectangle,-3.40912199,-4.909073174,1,0,0,-3.40912199,-4.909073174,1,0,0,1,24,184,102,1,,,,,,,,
,,,,,,,,,,,,,FF,,,,,,,,1.2677,,,,,,,,,,,,,,,,,,,,,,5ea85f905036240a7979d0bd,60e561b69d574c6f31f82600,2021-07-07_10h12.09.112,Simcolourproject_2stim_asymm_v5,2020.2.10,Win32,60,60e52e7cfedb1dae636df45f,,,,,,,,,1386,97.95451075,-45.81816262,1,0,0,response3disk,,5,-8.86366725,-1.727255106,1,0,0,rectangle,97.95451075,56.0000433,1,0,0,4.772695899,10.54547173,1,0,0,1,25,185,78,1,,response1disk_3,TRUE,6,6,"[38,81,260,263,291,12,242,135,99,219,312,115,51,186,235,78,144,216,96,226]",1.8186,rectangle
,,,,,,,,,,,,,FF,,,,,,,,1.0179,,,,,,,,,,,,,,,,,,,,,,5ea85f905036240a7979d0bd,60e561b69d574c6f31f82600,2021-07-07_10h12.09.112,Simcolourproject_2stim_asymm_v5,2020.2.10,Win32,60,60e52e7cfedb1dae636df45f,,,,,,,,,1370,-101.1364467,-38.54538012,1,0,0,response5disk,,2,-3.40912199,-2.636345983,1,0,0,rectangle,-3.40912199,-2.636345983,1,0,0,-3.40912199,-2.636345983,1,0,0,1,26,186,154,1,,,,,,,,
,,,,,,,,,,,,,FF,,,,,,,,1.1009,,,,,,,,,,,,,,,,,,,,,,5ea85f905036240a7979d0bd,60e561b69d574c6f31f82600,2021-07-07_10h12.09.112,Simcolourproject_2stim_asymm_v5,2020.2.10,Win32,60,60e52e7cfedb1dae636df45f,,,,,,,,,104,120.2272372,-76.27270699,1,0,0,response3disk,,5,0.227241516,-13.5454365,1,0,0,rectangle,0.227241516,-13.5454365,1,0,0,0.227241516,-13.5454365,1,0,0,1,27,187,15,1,,,,,,,,
,,,,,,,,,,,,,FF,,,,,,,,3.8869,,,,,,,,,,,,,,,,,,,,,,5ea85f905036240a7979d0bd,60e561b69d574c6f31f82600,2021-07-07_10h12.09.112,Simcolourproject_2stim_asymm_v5,2020.2.10,Win32,60,60e52e7cfedb1dae636df45f,,,,,,,,,1163,80.68178409,-126.2727052,1,0,0,response3disk,,4,8.409059405,6.909108222,1,0,0,rectangle,8.409059405,6.909108222,1,0,0,8.409059405,6.909108222,1,0,0,1,28,188,137,1,,,,,,,,
,,,,,,,,,,,,,FF,,,,,,,,1.9687,,,,,,,,,,,,,,,,,,,,,,5ea85f905036240a7979d0bd,60e561b69d574c6f31f82600,2021-07-07_10h12.09.112,Simcolourproject_2stim_asymm_v5,2020.2.10,Win32,60,60e52e7cfedb1dae636df45f,,,,,,,,,725,59.31814849,-99.90906978,1,0,0,response3disk,,4,4.318150461,-8.54543668,1,0,0,rectangle,4.318150461,-8.54543668,1,0,0,4.318150461,-8.54543668,1,0,0,1,29,189,56,1,,,,,,,,
,,,,,,,,,,,,,FF,,,,,,,,0.9342,,,,,,,,,,,,,,,,,,,,,,5ea85f905036240a7979d0bd,60e561b69d574c6f31f82600,2021-07-07_10h12.09.112,Simcolourproject_2stim_asymm_v5,2020.2.10,Win32,60,60e52e7cfedb1dae636df45f,,,,,,,,,3921,-31.13644921,-93.0908882,1,0,0,response5disk,,3,-6.136450106,-7.636345804,1,0,0,rectangle,-6.136450106,-7.636345804,1,0,0,-6.136450106,-7.636345804,1,0,0,1,30,190,40,1,,,,,,,,
,,,,,,,,,,,,,FF,,,,,,,,0.9844,,,,,,,,,,,,,,,,,,,,,,5ea85f905036240a7979d0bd,60e561b69d574c6f31f82600,2021-07-07_10h12.09.112,Simcolourproject_2stim_asymm_v5,2020.2.10,Win32,60,60e52e7cfedb1dae636df45f,,,,,,,,,4046,-69.77275598,57.36365187,1,0,0,response7disk,,1,-2.5000866,1.454562962,1,0,0,rectangle,-2.5000866,1.454562962,1,0,0,-2.5000866,1.454562962,1,0,0,1,31,191,71,1,,,,,,,,
,,,,,,,,,,,,,FF,,,,,,,,1.1512,,,,,,,,,,,,,,,,,,,,,,5ea85f905036240a7979d0bd,60e561b69d574c6f31f82600,2021-07-07_10h12.09.112,Simcolourproject_2stim_asymm_v5,2020.2.10,Win32,60,60e52e7cfedb1dae636df45f,,,,,,,,,2454,99.31814706,-71.7272526,1,0,0,response3disk,,5,-3.40912199,-3.090891421,1,0,0,rectangle,-3.40912199,-3.090891421,1,0,0,-3.40912199,-3.090891421,1,0,0,1,32,192,81,1,,,,,,,,
,,,,,,,,,,,,,FF,,,,,,,,0.8008,,,,,,,,,,,,,,,,,,,,,,5ea85f905036240a7979d0bd,60e561b69d574c6f31f82600,2021-07-07_10h12.09.112,Simcolourproject_2stim_asymm_v5,2020.2.10,Win32,60,60e52e7cfedb1dae636df45f,,,,,,,,,1581,92.95451093,-53.54537958,1,0,0,response3disk,,5,-9.772758126,-8.54543668,1,0,0,rectangle,-9.772758126,-8.54543668,1,0,0,-9.772758126,-8.54543668,1,0,0,1,33,193,111,1,,,,,,,,
,,,,,,,,,,,,,FF,,,,,,,,1.0854,,,,,,,,,,,,,,,,,,,,,,5ea85f905036240a7979d0bd,60e561b69d574c6f31f82600,2021-07-07_10h12.09.112,Simcolourproject_2stim_asymm_v5,2020.2.10,Win32,60,60e52e7cfedb1dae636df45f,,,,,,,,,454,125.6817825,52.81822523,1,0,0,response1disk,,6,1.136332393,5.090926468,1,0,0,rectangle,1.136332393,5.090926468,1,0,0,1.136332393,5.090926468,1,0,0,1,34,194,119,1,,,,,,,,
,,,,,,,,,,,,,FF,,,,,,,,1.0847,,,,,,,,,,,,,,,,,,,,,,5ea85f905036240a7979d0bd,60e561b69d574c6f31f82600,2021-07-07_10h12.09.112,Simcolourproject_2stim_asymm_v5,2020.2.10,Win32,60,60e52e7cfedb1dae636df45f,,,,,,,,,1049,104.3181469,61.909134,1,0,0,response1disk,,6,15.68173093,14.63638067,1,0,0,rectangle,15.68173093,14.63638067,1,0,0,15.68173093,14.63638067,1,0,0,1,35,195,120,1,,,,,,,,
,,,,,,,,,,,,,FF,,,,,,,,1.0007,,,,,,,,,,,,,,,,,,,,,,5ea85f905036240a7979d0bd,60e561b69d574c6f31f82600,2021-07-07_10h12.09.112,Simcolourproject_2stim_asymm_v5,2020.2.10,Win32,60,60e52e7cfedb1dae636df45f,,,,,,,,,2157,101.1363288,-59.45452577,1,0,0,response3disk,,5,13.40905923,-6.272709489,1,0,0,rectangle,13.40905923,-6.272709489,1,0,0,13.40905923,-6.272709489,1,0,0,1,36,196,68,1,,,,,,,,
,,,,,,,,,,,,,FF,,,,,,,,0.8175,,,,,,,,,,,,,,,,,,,,,,5ea85f905036240a7979d0bd,60e561b69d574c6f31f82600,2021-07-07_10h12.09.112,Simcolourproject_2stim_asymm_v5,2020.2.10,Win32,60,60e52e7cfedb1dae636df45f,,,,,,,,,2986,-77.04548299,40.09092522,1,0,0,response7disk,,1,1.590877831,10.09092629,1,0,0,rectangle,1.590877831,10.09092629,1,0,0,1.590877831,10.09092629,1,0,0,1,37,197,98,1,,,,,,,,
,,,,,,,,,,,,,FF,,,,,,,,1.1846,,,,,,,,,,,,,,,,,,,,,,5ea85f905036240a7979d0bd,60e561b69d574c6f31f82600,2021-07-07_10h12.09.112,Simcolourproject_2stim_asymm_v5,2020.2.10,Win32,60,60e52e7cfedb1dae636df45f,,,,,,,,,652,58.40905762,-126.7272506,1,0,0,response3disk,,4,-1.136450285,-3.999982297,1,0,0,rectangle,-1.136450285,-3.999982297,1,0,0,-1.136450285,-3.999982297,1,0,0,1,38,198,13,1,,,,,,,,
,,,,,,,,,,,,,FF,,,,,,,,0.9837,,,,,,,,,,,,,,,,,,,,,,5ea85f905036240a7979d0bd,60e561b69d574c6f31f82600,2021-07-07_10h12.09.112,Simcolourproject_2stim_asymm_v5,2020.2.10,Win32,60,60e52e7cfedb1dae636df45f,,,,,,,,,747,132.9545095,51.45456117,1,0,0,response1disk,,6,3.863549536,0.090926647,1,0,0,rectangle,3.863549536,0.090926647,1,0,0,3.863549536,0.090926647,1,0,0,1,39,199,133,1,,,,,,,,
,,,,,,,,,,,,,FF,,,,,,,,1.0851,,,,,,,,,,,,,,,,,,,,,,5ea85f905036240a7979d0bd,60e561b69d574c6f31f82600,2021-07-07_10h12.09.112,Simcolourproject_2stim_asymm_v5,2020.2.10,Win32,60,60e52e7cfedb1dae636df45f,,,,,,,,,4091,112.4999648,39.63637978,1,0,0,response1disk,,6,-4.772758305,1.454562962,1,0,0,rectangle,-4.772758305,1.454562962,1,0,0,-4.772758305,1.454562962,1,0,0,1,40,200,25,1,,,,,,,,
,,,,,,,,,,,,,FF,,,,,,,,1.0011,,,,,,,,,,,,,,,,,,,,,,5ea85f905036240a7979d0bd,60e561b69d574c6f31f82600,2021-07-07_10h12.09.112,Simcolourproject_2stim_asymm_v5,2020.2.10,Win32,60,60e52e7cfedb1dae636df45f,,,,,,,,,3038,-105.6818456,37.81822577,1,0,0,response7disk,,1,1.136332393,3.272744715,1,0,0,rectangle,1.136332393,3.272744715,1,0,0,1.136332393,3.272744715,1,0,0,1,41,201,0,1,,,,,,,,
,,,,,,,,,,,,,FF,,,,,,,,1.3007,,,,,,,,,,,,,,,,,,,,,,5ea85f905036240a7979d0bd,60e561b69d574c6f31f82600,2021-07-07_10h12.09.112,Simcolourproject_2stim_asymm_v5,2020.2.10,Win32,60,60e52e7cfedb1dae636df45f,,,,,,,,,1441,38.40905833,-116.727251,1,0,0,response3disk,,4,5.681731289,-4.454527736,1,0,0,rectangle,5.681731289,-4.454527736,1,0,0,5.681731289,-4.454527736,1,0,0,1,42,202,45,1,,,,,,,,
,,,,,,,,,,,,,FF,,,,,,,,0.7173,,,,,,,,,,,,,,,,,,,,,,5ea85f905036240a7979d0bd,60e561b69d574c6f31f82600,2021-07-07_10h12.09.112,Simcolourproject_2stim_asymm_v5,2020.2.10,Win32,60,60e52e7cfedb1dae636df45f,,,,,,,,,3088,44.77269447,83.27274185,1,0,0,response1disk,,7,6.136332214,-0.818164229,1,0,0,rectangle,6.136332214,-0.818164229,1,0,0,6.136332214,-0.818164229,1,0,0,1,43,203,43,1,,,,,,,,
,,,,,,,,,,,,,FF,,,,,,,,0.8013,,,,,,,,,,,,,,,,,,,,,,5ea85f905036240a7979d0bd,60e561b69d574c6f31f82600,2021-07-07_10h12.09.112,Simcolourproject_2stim_asymm_v5,2020.2.10,Win32,60,60e52e7cfedb1dae636df45f,,,,,,,,,3405,82.49996585,53.72728837,1,0,0,response1disk,,6,5.681731289,8.272744536,1,0,0,rectangle,5.681731289,8.272744536,1,0,0,5.681731289,8.272744536,1,0,0,1,44,204,35,1,,,,,,,,
,,,,,,,,,,,,,FF,,,,,,,,1.802,,,,,,,,,,,,,,,,,,,,,,5ea85f905036240a7979d0bd,60e561b69d574c6f31f82600,2021-07-07_10h12.09.112,Simcolourproject_2stim_asymm_v5,2020.2.10,Win32,60,60e52e7cfedb1dae636df45f,,,,,,,,,1811,103.409056,-33.99998122,1,0,0,response3disk,,5,21.59087712,5.090926468,1,0,0,rectangle,21.59087712,5.090926468,1,0,0,21.59087712,5.090926468,1,0,0,1,45,205,90,1,,,,,,,,
,,,,,,,,,,,,,FF,,,,,,,,1.8018,,,,,,,,,,,,,,,,,,,,,,5ea85f905036240a7979d0bd,60e561b69d574c6f31f82600,2021-07-07_10h12.09.112,Simcolourproject_2stim_asymm_v5,2020.2.10,Win32,60,60e52e7cfedb1dae636df45f,,,,,,,,,2866,116.5908737,46.00004366,1,0,0,response1disk,,6,-13.86366707,6.909108222,1,0,0,rectangle,-13.86366707,6.909108222,1,0,0,-13.86366707,6.909108222,1,0,0,1,46,206,49,1,,,,,,,,
,,,,,,,,,,,,,FF,,,,,,,,0.7842,,,,,,,,,,,,,,,,,,,,,,5ea85f905036240a7979d0bd,60e561b69d574c6f31f82600,2021-07-07_10h12.09.112,Simcolourproject_2stim_asymm_v5,2020.2.10,Win32,60,60e52e7cfedb1dae636df45f,,,,,,,,,2695,98.86360162,44.18183416,1,0,0,response1disk,,6,17.04542273,3.727290154,1,0,0,rectangle,17.04542273,3.727290154,1,0,0,17.04542273,3.727290154,1,0,0,1,47,207,149,1,,,,,,,,
,,,,,,,,,,,,,FF,,,,,,,,0.8837,,,,,,,,,,,,,,,,,,,,,,5ea85f905036240a7979d0bd,60e561b69d574c6f31f82600,2021-07-07_10h12.09.112,Simcolourproject_2stim_asymm_v5,2020.2.10,Win32,60,60e52e7cfedb1dae636df45f,,,,,,,,,2816,87.49996567,36.45456171,1,0,0,response1disk,,6,-6.590940058,6.454562783,1,0,0,rectangle,-6.590940058,6.454562783,1,0,0,-6.590940058,6.454562783,1,0,0,1,48,208,83,1,,,,,,,,
,,,,,,,,,,,,,FF,,,,,,,,3.0701,,,,,,,,,,,,,,,,,,,,,,5ea85f905036240a7979d0bd,60e561b69d574c6f31f82600,2021-07-07_10h12.09.112,Simcolourproject_2stim_asymm_v5,2020.2.10,Win32,60,60e52e7cfedb1dae636df45f,,,,,,,,,2293,-38.40912074,-98.54537798,1,0,0,response5disk,,3,-2.5000866,-12.18180019,1,0,0,rectangle,-2.5000866,-12.18180019,1,0,0,-2.5000866,-12.18180019,1,0,0,1,49,209,135,1,,,,,,,,
,,,,,,,,,,,,,FF,,,,,,,,0.918,,,,,,,,,,,,,,,,,,,,,,5ea85f905036240a7979d0bd,60e561b69d574c6f31f82600,2021-07-07_10h12.09.112,Simcolourproject_2stim_asymm_v5,2020.2.10,Win32,60,60e52e7cfedb1dae636df45f,,,,,,,,,402,127.9545097,-65.8181619,1,0,0,response3disk,,5,-6.590940058,-11.27270931,1,0,0,rectangle,-6.590940058,-11.27270931,1,0,0,-6.590940058,-11.27270931,1,0,0,1,50,210,117,1,,,,,,,,
,,,,,,,,,,,,,FF,,,,,,,,2.0857,,,,,,,,,,,,,,,,,,,,,,5ea85f905036240a7979d0bd,60e561b69d574c6f31f82600,2021-07-07_10h12.09.112,Simcolourproject_2stim_asymm_v5,2020.2.10,Win32,60,60e52e7cfedb1dae636df45f,,,,,,,,,2288,72.4999662,-114.9090692,1,0,0,response3disk,,4,11.13633204,-1.272709668,1,0,0,rectangle,11.13633204,-1.272709668,1,0,0,11.13633204,-1.272709668,1,0,0,1,51,211,48,1,,,,,,,,
,,,,,,,,,,,,,FF,,,,,,,,0.8844,,,,,,,,,,,,,,,,,,,,,,5ea85f905036240a7979d0bd,60e561b69d574c6f31f82600,2021-07-07_10h12.09.112,Simcolourproject_2stim_asymm_v5,2020.2.10,Win32,60,60e52e7cfedb1dae636df45f,,,,,,,,,34,126.1363279,41.00004384,1,0,0,response1disk,,6,-15.68184882,1.454562962,1,0,0,rectangle,-15.68184882,1.454562962,1,0,0,-15.68184882,1.454562962,1,0,0,1,52,212,1,1,,,,,,,,
,,,,,,,,,,,,,FF,,,,,,,,1.0176,,,,,,,,,,,,,,,,,,,,,,5ea85f905036240a7979d0bd,60e561b69d574c6f31f82600,2021-07-07_10h12.09.112,Simcolourproject_2stim_asymm_v5,2020.2.10,Win32,60,60e52e7cfedb1dae636df45f,,,,,,,,,709,119.3181463,51.00004348,1,0,0,response1disk,,6,7.954513967,3.272744715,1,0,0,rectangle,7.954513967,3.272744715,1,0,0,7.954513967,3.272744715,1,0,0,1,53,213,126,1,,,,,,,,
,,,,,,,,,,,,,FF,,,,,,,,1.4175,,,,,,,,,,,,,,,,,,,,,,5ea85f905036240a7979d0bd,60e561b69d574c6f31f82600,2021-07-07_10h12.09.112,Simcolourproject_2stim_asymm_v5,2020.2.10,Win32,60,60e52e7cfedb1dae636df45f,,,,,,,,,2581,59.31814849,107.8182233,1,0,0,response1disk,,7,-14.77275795,6.454562783,1,0,0,rectangle,-14.77275795,6.454562783,1,0,0,-14.77275795,6.454562783,1,0,0,1,54,214,42,1,,,,,,,,
,,,,,,,,,,,,,FF,,,,,,,,0.9176,,,,,,,,,,,,,,,,,,,,,,5ea85f905036240a7979d0bd,60e561b69d574c6f31f82600,2021-07-07_10h12.09.112,Simcolourproject_2stim_asymm_v5,2020.2.10,Win32,60,60e52e7cfedb1dae636df45f,,,,,,,,,2672,77.04542059,-30.81816316,1,0,0,response3disk,,5,8.409059405,-2.636345983,1,0,0,rectangle,-43.863666,104.6363775,1,0,0,6.590877652,-8.54543668,1,0,0,1,55,215,112,1,,response7disk_3,TRUE,0,0,"[38,81,260,263,291,12,242,135,99,219,312,115,51,186,235,78,144,216,96,226]",1.9518,rectangle
,,,,,,,,,,,,,FF,,,,,,,,1.2512,,,,,,,,,,,,,,,,,,,,,,5ea85f905036240a7979d0bd,60e561b69d574c6f31f82600,2021-07-07_10h12.09.112,Simcolourproject_2stim_asymm_v5,2020.2.10,Win32,60,60e52e7cfedb1dae636df45f,,,,,,,,,2222,50.22723973,106.9091324,1,0,0,response1disk,,7,23.86354882,5.090926468,1,0,0,rectangle,23.86354882,5.090926468,1,0,0,23.86354882,5.090926468,1,0,0,1,56,216,148,1,,,,,,,,
,,,,,,,,,,,,,FF,,,,,,,,0.7508,,,,,,,,,,,,,,,,,,,,,,5ea85f905036240a7979d0bd,60e561b69d574c6f31f82600,2021-07-07_10h12.09.112,Simcolourproject_2stim_asymm_v5,2020.2.10,Win32,60,60e52e7cfedb1dae636df45f,,,,,,,,,4276,107.0454195,32.36365277,1,0,0,response1disk,,6,9.318150282,-1.727255106,1,0,0,rectangle,9.318150282,-1.727255106,1,0,0,9.318150282,-1.727255106,1,0,0,1,57,217,44,1,,,,,,,,
,,,,,,,,,,,,,FF,,,,,,,,1.268,,,,,,,,,,,,,,,,,,,,,,5ea85f905036240a7979d0bd,60e561b69d574c6f31f82600,2021-07-07_10h12.09.112,Simcolourproject_2stim_asymm_v5,2020.2.10,Win32,60,60e52e7cfedb1dae636df45f,,,,,,,,,653,103.409056,-50.363617,1,0,0,response3disk,,5,22.49991251,-9.909072995,1,0,0,rectangle,102.9545106,-60.36356116,1,0,0,21.13633168,-2.636345983,1,0,0,1,58,218,150,1,,response3disk_3,TRUE,5,5,"[38,81,260,263,291,12,242,135,99,219,312,115,51,186,235,78,144,216,96,226]",1.635,rectangle
,,,,,,,,,,,,,FF,,,,,,,,2.7029,,,,,,,,,,,,,,,,,,,,,,5ea85f905036240a7979d0bd,60e561b69d574c6f31f82600,2021-07-07_10h12.09.112,Simcolourproject_2stim_asymm_v5,2020.2.10,Win32,60,60e52e7cfedb1dae636df45f,,,,,,,,,3678,103.8636014,-84.90907031,1,0,0,response3disk,,5,-11.13644993,-11.27270931,1,0,0,rectangle,-11.13644993,-11.27270931,1,0,0,-11.13644993,-11.27270931,1,0,0,1,59,219,109,1,,,,,,,,
,,,,,,,,,,,,,FF,,,,,,,,0.7509,,,,,,,,,,,,,,,,,,,,,,5ea85f905036240a7979d0bd,60e561b69d574c6f31f82600,2021-07-07_10h12.09.112,Simcolourproject_2stim_asymm_v5,2020.2.10,Win32,60,60e52e7cfedb1dae636df45f,,,,,,,,,3335,38.86354828,90.54546887,1,0,0,response1disk,,7,-12.50008624,11.00001717,1,0,0,rectangle,-12.50008624,11.00001717,1,0,0,-12.50008624,11.00001717,1,0,0,1,60,220,139,1,,,,,,,,
,,,,,,,,,,,,,FF,,,,,,,,0.7508,,,,,,,,,,,,,,,,,,,,,,5ea85f905036240a7979d0bd,60e561b69d574c6f31f82600,2021-07-07_10h12.09.112,Simcolourproject_2stim_asymm_v5,2020.2.10,Win32,60,60e52e7cfedb1dae636df45f,,,,,,,,,4153,46.13633078,81.00001466,1,0,0,response1disk,,7,-19.31826782,2.363653839,1,0,0,rectangle,-19.31826782,2.363653839,1,0,0,-19.31826782,2.363653839,1,0,0,1,61,221,103,1,,,,,,,,
,,,,,,,,,,,,,FF,,,,,,,,0.9013,,,,,,,,,,,,,,,,,,,,,,5ea85f905036240a7979d0bd,60e561b69d574c6f31f82600,2021-07-07_10h12.09.112,Simcolourproject_2stim_asymm_v5,2020.2.10,Win32,60,60e52e7cfedb1dae636df45f,,,,,,,,,4350,-97.50002772,42.81822559,1,0,0,response7disk,,1,-35.22730267,11.90910804,1,0,0,rectangle,-35.22730267,11.90910804,1,0,0,-35.22730267,11.90910804,1,0,0,1,62,222,62,1,,,,,,,,
,,,,,,,,,,,,,FF,,,,,,,,1.0177,,,,,,,,,,,,,,,,,,,,,,5ea85f905036240a7979d0bd,60e561b69d574c6f31f82600,2021-07-07_10h12.09.112,Simcolourproject_2stim_asymm_v5,2020.2.10,Win32,60,60e52e7cfedb1dae636df45f,,,,,,,,,2103,-35.68184811,-108.9999785,1,0,0,response5disk,,3,-11.13644993,0.090926647,1,0,0,rectangle,-11.13644993,0.090926647,1,0,0,-11.13644993,0.090926647,1,0,0,1,63,223,9,1,,,,,,,,
,,,,,,,,,,,,,FF,,,,,,,,0.9669,,,,,,,,,,,,,,,,,,,,,,5ea85f905036240a7979d0bd,60e561b69d574c6f31f82600,2021-07-07_10h12.09.112,Simcolourproject_2stim_asymm_v5,2020.2.10,Win32,60,60e52e7cfedb1dae636df45f,,,,,,,,,848,117.95451,55.54547012,1,0,0,response1disk,,6,0.681731468,-0.818164229,1,0,0,rectangle,0.681731468,-0.818164229,1,0,0,0.681731468,-0.818164229,1,0,0,1,64,224,86,1,,,,,,,,
,,,,,,,,,,,,,FF,,,,,,,,1.2512,,,,,,,,,,,,,,,,,,,,,,5ea85f905036240a7979d0bd,60e561b69d574c6f31f82600,2021-07-07_10h12.09.112,Simcolourproject_2stim_asymm_v5,2020.2.10,Win32,60,60e52e7cfedb1dae636df45f,,,,,,,,,7,-41.59093881,-113.0908875,1,0,0,response5disk,,3,7.04542309,-4.909073174,1,0,0,rectangle,-41.59093881,-103.9999787,1,0,0,5.681731289,13.27274436,1,0,0,1,65,225,36,1,,response5disk_3,TRUE,3,3,"[38,81,260,263,291,12,242,135,99,219,312,115,51,186,235,78,144,216,96,226]",2.1187,rectangle
,,,,,,,,,,,,,FF,,,,,,,,1.3512,,,,,,,,,,,,,,,,,,,,,,5ea85f905036240a7979d0bd,60e561b69d574c6f31f82600,2021-07-07_10h12.09.112,Simcolourproject_2stim_asymm_v5,2020.2.10,Win32,60,60e52e7cfedb1dae636df45f,,,,,,,,,517,78.86360234,-110.3635594,1,0,0,response3disk,,4,23.40905887,-4.909073174,1,0,0,rectangle,23.40905887,-4.909073174,1,0,0,23.40905887,-4.909073174,1,0,0,1,66,226,30,1,,,,,,,,
,,,,,,,,,,,,,FF,,,,,,,,0.7341,,,,,,,,,,,,,,,,,,,,,,5ea85f905036240a7979d0bd,60e561b69d574c6f31f82600,2021-07-07_10h12.09.112,Simcolourproject_2stim_asymm_v5,2020.2.10,Win32,60,60e52e7cfedb1dae636df45f,,,,,,,,,2390,73.40905708,-36.72725385,1,0,0,response3disk,,5,-2.045485675,3.727290154,1,0,0,rectangle,-2.045485675,3.727290154,1,0,0,-2.045485675,3.727290154,1,0,0,1,67,227,113,1,,,,,,,,
,,,,,,,,,,,,,FF,,,,,,,,0.9013,,,,,,,,,,,,,,,,,,,,,,5ea85f905036240a7979d0bd,60e561b69d574c6f31f82600,2021-07-07_10h12.09.112,Simcolourproject_2stim_asymm_v5,2020.2.10,Win32,60,60e52e7cfedb1dae636df45f,,,,,,,,,1841,64.31814831,91.45455974,1,0,0,response1disk,,7,11.13633204,-7.181800365,1,0,0,rectangle,11.13633204,-7.181800365,1,0,0,11.13633204,-7.181800365,1,0,0,1,68,228,92,1,,,,,,,,
,,,,,,,,,,,,,FF,,,,,,,,0.9677,,,,,,,,,,,,,,,,,,,,,,5ea85f905036240a7979d0bd,60e561b69d574c6f31f82600,2021-07-07_10h12.09.112,Simcolourproject_2stim_asymm_v5,2020.2.10,Win32,60,60e52e7cfedb1dae636df45f,,,,,,,,,3325,119.3181463,50.5454703,1,0,0,response1disk,,6,25.22724062,-6.272709489,1,0,0,rectangle,25.22724062,-6.272709489,1,0,0,25.22724062,-6.272709489,1,0,0,1,69,229,19,1,,,,,,,,
,,,,,,,,,,,,,FF,,,,,,,,2.3357,,,,,,,,,,,,,,,,,,,,,,5ea85f905036240a7979d0bd,60e561b69d574c6f31f82600,2021-07-07_10h12.09.112,Simcolourproject_2stim_asymm_v5,2020.2.10,Win32,60,60e52e7cfedb1dae636df45f,,,,,,,,,4001,102.0454197,31.00004419,1,0,0,response1disk,,6,30.6817304,-1.272709668,1,0,0,rectangle,30.6817304,-1.272709668,1,0,0,30.6817304,-1.272709668,1,0,0,1,70,230,33,1,,,,,,,,
,,,,,,,,,,,,,FF,,,,,,,,1.1347,,,,,,,,,,,,,,,,,,,,,,5ea85f905036240a7979d0bd,60e561b69d574c6f31f82600,2021-07-07_10h12.09.112,Simcolourproject_2stim_asymm_v5,2020.2.10,Win32,60,60e52e7cfedb1dae636df45f,,,,,,,,,3851,80.68178409,-45.81816262,1,0,0,response3disk,,5,1.136332393,-0.818164229,1,0,0,rectangle,1.136332393,-0.818164229,1,0,0,1.136332393,-0.818164229,1,0,0,1,71,231,31,1,,,,,,,,
,,,,,,,,,,,,,FF,,,,,,,,0.8508,,,,,,,,,,,,,,,,,,,,,,5ea85f905036240a7979d0bd,60e561b69d574c6f31f82600,2021-07-07_10h12.09.112,Simcolourproject_2stim_asymm_v5,2020.2.10,Win32,60,60e52e7cfedb1dae636df45f,,,,,,,,,3474,-40.22730249,-98.09088802,1,0,0,response5disk,,3,-26.59093934,-7.636345804,1,0,0,rectangle,-26.59093934,-7.636345804,1,0,0,-26.59093934,-7.636345804,1,0,0,1,72,232,104,1,,,,,,,,
,,,,,,,,,,,,,FF,,,,,,,,0.9194,,,,,,,,,,,,,,,,,,,,,,5ea85f905036240a7979d0bd,60e561b69d574c6f31f82600,2021-07-07_10h12.09.112,Simcolourproject_2stim_asymm_v5,2020.2.10,Win32,60,60e52e7cfedb1dae636df45f,,,,,,,,,2505,98.40905619,56.90913418,1,0,0,response1disk,,6,12.04542291,-1.272709668,1,0,0,rectangle,12.04542291,-1.272709668,1,0,0,12.04542291,-1.272709668,1,0,0,1,73,233,138,1,,,,,,,,
,,,,,,,,,,,,,FF,,,,,,,,0.9674,,,,,,,,,,,,,,,,,,,,,,5ea85f905036240a7979d0bd,60e561b69d574c6f31f82600,2021-07-07_10h12.09.112,Simcolourproject_2stim_asymm_v5,2020.2.10,Win32,60,60e52e7cfedb1dae636df45f,,,,,,,,,1159,33.40905851,83.72728729,1,0,0,response1disk,,7,-2.5000866,8.727289975,1,0,0,rectangle,111.5908739,43.27274328,1,0,0,18.40905905,-6.727254927,1,0,0,1,74,234,121,1,,response1disk_3,TRUE,6,6,"[38,81,260,263,291,12,242,135,99,219,312,115,51,186,235,78,144,216,96,226]",1.5188,rectangle
,,,,,,,,,,,,,FF,,,,,,,,1.0343,,,,,,,,,,,,,,,,,,,,,,5ea85f905036240a7979d0bd,60e561b69d574c6f31f82600,2021-07-07_10h12.09.112,Simcolourproject_2stim_asymm_v5,2020.2.10,Win32,60,60e52e7cfedb1dae636df45f,,,,,,,,,1960,-48.86366582,-107.6363422,1,0,0,response5disk,,3,-5.681849182,-12.18180019,1,0,0,rectangle,-5.681849182,-12.18180019,1,0,0,-5.681849182,-12.18180019,1,0,0,1,75,235,93,1,,,,,,,,
,,,,,,,,,,,,,FF,,,,,,,,0.8509,,,,,,,,,,,,,,,,,,,,,,5ea85f905036240a7979d0bd,60e561b69d574c6f31f82600,2021-07-07_10h12.09.112,Simcolourproject_2stim_asymm_v5,2020.2.10,Win32,60,60e52e7cfedb1dae636df45f,,,,,,,,,2347,75.68178427,46.45456135,1,0,0,response1disk,,6,7.499913042,10.54547173,1,0,0,rectangle,7.499913042,10.54547173,1,0,0,7.499913042,10.54547173,1,0,0,1,76,236,57,1,,,,,,,,
,,,,,,,,,,,,,FF,,,,,,,,1.2011,,,,,,,,,,,,,,,,,,,,,,5ea85f905036240a7979d0bd,60e561b69d574c6f31f82600,2021-07-07_10h12.09.112,Simcolourproject_2stim_asymm_v5,2020.2.10,Win32,60,60e52e7cfedb1dae636df45f,,,,,,,,,3970,-89.31826531,-38.54538012,1,0,0,response5disk,,2,-12.95457619,11.00001717,1,0,0,rectangle,-12.95457619,11.00001717,1,0,0,-12.95457619,11.00001717,1,0,0,1,77,237,54,1,,,,,,,,
,,,,,,,,,,,,,FF,,,,,,,,1.9688,,,,,,,,,,,,,,,,,,,,,,5ea85f905036240a7979d0bd,60e561b69d574c6f31f82600,2021-07-07_10h12.09.112,Simcolourproject_2stim_asymm_v5,2020.2.10,Win32,60,60e52e7cfedb1dae636df45f,,,,,,,,,380,46.59087622,-98.54537798,1,0,0,response3disk,,4,12.95451379,-10.81816387,1,0,0,rectangle,12.95451379,-10.81816387,1,0,0,12.95451379,-10.81816387,1,0,0,1,78,238,59,1,,,,,,,,
,,,,,,,,,,,,,FF,,,,,,,,0.9007,,,,,,,,,,,,,,,,,,,,,,5ea85f905036240a7979d0bd,60e561b69d574c6f31f82600,2021-07-07_10h12.09.112,Simcolourproject_2stim_asymm_v5,2020.2.10,Win32,60,60e52e7cfedb1dae636df45f,,,,,,,,,186,-95.68184596,60.54546994,1,0,0,response7disk,,1,10.22724116,-5.818164051,1,0,0,rectangle,10.22724116,-5.818164051,1,0,0,10.22724116,-5.818164051,1,0,0,1,79,239,89,1,,,,,,,,
,,,,,,,,,,,,,FF,,,,,,,,0.9178,,,,,,,,,,,,,,,,,,,,,,5ea85f905036240a7979d0bd,60e561b69d574c6f31f82600,2021-07-07_10h12.09.112,Simcolourproject_2stim_asymm_v5,2020.2.10,Win32,60,60e52e7cfedb1dae636df45f,,,,,,,,,2185,38.40905833,101.9091326,1,0,0,response1disk,,7,42.95451272,5.090926468,1,0,0,rectangle,42.95451272,5.090926468,1,0,0,42.95451272,5.090926468,1,0,0,1,80,240,143,1,,,,,,,,
,,,,,,,,,,,,,FF,,,,,,,,2.5193,,,,,,,,,,,,,,,,,,,,,,5ea85f905036240a7979d0bd,60e561b69d574c6f31f82600,2021-07-07_10h12.09.112,Simcolourproject_2stim_asymm_v5,2020.2.10,Win32,60,60e52e7cfedb1dae636df45f,,,,,,,,,1519,97.49996531,38.27274346,1,0,0,response1disk,,6,11.59087747,-2.181800544,1,0,0,rectangle,44.31814903,-103.9999787,1,0,0,16.13633186,-7.636345804,1,0,0,1,81,241,18,1,,response3disk_3,TRUE,4,4,"[38,81,260,263,291,12,242,135,99,219,312,115,51,186,235,78,144,216,96,226]",1.451,rectangle
,,,,,,,,,,,,,FF,,,,,,,,1.1845,,,,,,,,,,,,,,,,,,,,,,5ea85f905036240a7979d0bd,60e561b69d574c6f31f82600,2021-07-07_10h12.09.112,Simcolourproject_2stim_asymm_v5,2020.2.10,Win32,60,60e52e7cfedb1dae636df45f,,,,,,,,,1258,46.13633078,-115.8181601,1,0,0,response3disk,,4,0.681731468,-12.18180019,1,0,0,rectangle,0.681731468,-12.18180019,1,0,0,0.681731468,-12.18180019,1,0,0,1,82,242,34,1,,,,,,,,
