key_resp.keys,key_resp.rt,key_resp_14.keys,key_resp_14.rt,key_resp_15.keys,key_resp_15.rt,key_resp_17.keys,key_resp_17.rt,key_resp_9.keys,key_resp_9.rt,key_resp_10.keys,key_resp_10.rt,practice_comparison,Ecc,mouse_5.x,mouse_5.y,mouse_5.leftButton,mouse_5.midButton,mouse_5.rightButton,mouse_5.clicked_name,pracsimilarity,response_time,mouse_10.x,mouse_10.y,mouse_10.leftButton,mouse_10.midButton,mouse_10.rightButton,mouse_10.clicked_name,mouse_7.x,mouse_7.y,mouse_7.leftButton,mouse_7.midButton,mouse_7.rightButton,mouse_6.x,mouse_6.y,mouse_6.leftButton,mouse_6.midButton,mouse_6.rightButton,duringprac.thisRepN,duringprac.thisTrialN,duringprac.thisN,duringprac.thisIndex,duringprac.ran,participant,session,date,expName,psychopyVersion,OS,frameRate,study_id,mouse_7.clicked_name,catchpracsimilarity,catch_response_time,catchnumberprac,catchtrialorderprac,mouse_6.clicked_name,key_resp_22.keys,key_resp_22.rt,realcomparison,mouse.x,mouse.y,mouse.leftButton,mouse.midButton,mouse.rightButton,mouse.clicked_name,Colour2,similarity,mouse_2.x,mouse_2.y,mouse_2.leftButton,mouse_2.midButton,mouse_2.rightButton,mouse_2.clicked_name,mouse_3.x,mouse_3.y,mouse_3.leftButton,mouse_3.midButton,mouse_3.rightButton,mouse_11.x,mouse_11.y,mouse_11.leftButton,mouse_11.midButton,mouse_11.rightButton,trials_2.thisRepN,trials_2.thisTrialN,trials_2.thisN,trials_2.thisIndex,trials_2.ran,Colour1,mouse_3.clicked_name,catchornah,catchsimilarity,catchnumber,catchtrialorder,catchRT,mouse_11.clicked_name
space,5.5445,space,12.739,space,81.503,space,20.96,space,4.405,space,4.7431,60,PF,92,-37,1,0,0,response3disk_5,5,28.8461,-7,-2,1,0,0,rectangle_8,-7,-2,1,0,0,-7,-2,1,0,0,0,0,0,1,1,601cded3e354de6a40b60637,60e5625602e03dde9cdc163c,2021-07-07_18h16.31.043,Simcolourproject_2stim_asymm_v5,2020.2.10,Win32,60,60e52e7cfedb1dae636df45f,,,,,,,,,,,,,,,,,,,,,,,,,,,,,,,,,,,,,,,,,,,,,,
,,,,,,,,,,,,133,FF,-83,-39,1,0,0,response5disk_5,2,2.0805,-16,-10,1,0,0,rectangle_8,70,34,1,0,0,-6,-2,1,0,0,0,1,1,0,1,601cded3e354de6a40b60637,60e5625602e03dde9cdc163c,2021-07-07_18h16.31.043,Simcolourproject_2stim_asymm_v5,2020.2.10,Win32,60,60e52e7cfedb1dae636df45f,response1disk_7,6,3.5211,6,"[2,5]",rectangle_4,,,,,,,,,,,,,,,,,,,,,,,,,,,,,,,,,,,,,,,,
,,,,,,,,,,,,11,FF,97,-61,1,0,0,response3disk_5,5,5.3962,-9,0,1,0,0,rectangle_8,-9,0,1,0,0,-9,0,1,0,0,0,2,2,3,1,601cded3e354de6a40b60637,60e5625602e03dde9cdc163c,2021-07-07_18h16.31.043,Simcolourproject_2stim_asymm_v5,2020.2.10,Win32,60,60e52e7cfedb1dae636df45f,,,,,,,,,,,,,,,,,,,,,,,,,,,,,,,,,,,,,,,,,,,,,,
,,,,,,,,,,,,159,PF,74,33,1,0,0,response1disk_5,6,3.5628,-3,3,1,0,0,rectangle_8,-3,3,1,0,0,-3,3,1,0,0,0,3,3,2,1,601cded3e354de6a40b60637,60e5625602e03dde9cdc163c,2021-07-07_18h16.31.043,Simcolourproject_2stim_asymm_v5,2020.2.10,Win32,60,60e52e7cfedb1dae636df45f,,,,,,,,,,,,,,,,,,,,,,,,,,,,,,,,,,,,,,,,,,,,,,
,,,,,,,,,,,,113,PF,45,-80,1,0,0,response3disk_5,4,10.5557,1,7,1,0,0,rectangle_8,86,45,1,0,0,-13,-3,1,0,0,0,4,4,6,1,601cded3e354de6a40b60637,60e5625602e03dde9cdc163c,2021-07-07_18h16.31.043,Simcolourproject_2stim_asymm_v5,2020.2.10,Win32,60,60e52e7cfedb1dae636df45f,response1disk_7,6,2.3056,6,"[2,5]",rectangle_4,,,,,,,,,,,,,,,,,,,,,,,,,,,,,,,,,,,,,,,,
,,,,,,,,,,,,88,FF,-57,-23,1,0,0,response5disk_5,2,2.5001,-2,3,1,0,0,rectangle_8,-2,3,1,0,0,-2,3,1,0,0,0,5,5,5,1,601cded3e354de6a40b60637,60e5625602e03dde9cdc163c,2021-07-07_18h16.31.043,Simcolourproject_2stim_asymm_v5,2020.2.10,Win32,60,60e52e7cfedb1dae636df45f,,,,,,,,,,,,,,,,,,,,,,,,,,,,,,,,,,,,,,,,,,,,,,
,,,,,,,,,,,,113,PF,-46,-59,1,0,0,response5disk_5,3,2.3097,-15,5,1,0,0,rectangle_8,-15,5,1,0,0,-15,5,1,0,0,0,6,6,4,1,601cded3e354de6a40b60637,60e5625602e03dde9cdc163c,2021-07-07_18h16.31.043,Simcolourproject_2stim_asymm_v5,2020.2.10,Win32,60,60e52e7cfedb1dae636df45f,,,,,,,,,,,,,,,,,,,,,,,,,,,,,,,,,,,,,,,,,,,,,,
,,,,,,,,,,,,,FF,,,,,,,,2.6186,,,,,,,,,,,,,,,,,,,,,,601cded3e354de6a40b60637,60e5625602e03dde9cdc163c,2021-07-07_18h16.31.043,Simcolourproject_2stim_asymm_v5,2020.2.10,Win32,60,60e52e7cfedb1dae636df45f,,,,,,,space,53.6351,2827,-50,-62,1,0,0,response5disk,,3,0,11,1,0,0,rectangle,0,11,1,0,0,0,11,1,0,0,0,0,0,130,1,,,,,,,,
,,,,,,,,,,,,,FF,,,,,,,,1.9585,,,,,,,,,,,,,,,,,,,,,,601cded3e354de6a40b60637,60e5625602e03dde9cdc163c,2021-07-07_18h16.31.043,Simcolourproject_2stim_asymm_v5,2020.2.10,Win32,60,60e52e7cfedb1dae636df45f,,,,,,,,,1937,27,-60,1,0,0,response3disk,,4,-4,4,1,0,0,rectangle,-4,4,1,0,0,-4,4,1,0,0,0,1,1,22,1,,,,,,,,
,,,,,,,,,,,,,FF,,,,,,,,3.482,,,,,,,,,,,,,,,,,,,,,,601cded3e354de6a40b60637,60e5625602e03dde9cdc163c,2021-07-07_18h16.31.043,Simcolourproject_2stim_asymm_v5,2020.2.10,Win32,60,60e52e7cfedb1dae636df45f,,,,,,,,,315,98,-48,1,0,0,response3disk,,5,-3,0,1,0,0,rectangle,-3,0,1,0,0,-3,0,1,0,0,0,2,2,106,1,,,,,,,,
,,,,,,,,,,,,,FF,,,,,,,,1.8612,,,,,,,,,,,,,,,,,,,,,,601cded3e354de6a40b60637,60e5625602e03dde9cdc163c,2021-07-07_18h16.31.043,Simcolourproject_2stim_asymm_v5,2020.2.10,Win32,60,60e52e7cfedb1dae636df45f,,,,,,,,,3751,-44,-66,1,0,0,response5disk,,3,-13,-4,1,0,0,rectangle,-13,-4,1,0,0,-13,-4,1,0,0,0,3,3,103,1,,,,,,,,
,,,,,,,,,,,,,FF,,,,,,,,1.4407,,,,,,,,,,,,,,,,,,,,,,601cded3e354de6a40b60637,60e5625602e03dde9cdc163c,2021-07-07_18h16.31.043,Simcolourproject_2stim_asymm_v5,2020.2.10,Win32,60,60e52e7cfedb1dae636df45f,,,,,,,,,26,84,-36,1,0,0,response3disk,,5,-10,-2,1,0,0,rectangle,-10,-2,1,0,0,-10,-2,1,0,0,0,4,4,136,1,,,,,,,,
,,,,,,,,,,,,,FF,,,,,,,,1.5834,,,,,,,,,,,,,,,,,,,,,,601cded3e354de6a40b60637,60e5625602e03dde9cdc163c,2021-07-07_18h16.31.043,Simcolourproject_2stim_asymm_v5,2020.2.10,Win32,60,60e52e7cfedb1dae636df45f,,,,,,,,,237,-21,-67,1,0,0,response5disk,,3,-2,-8,1,0,0,rectangle,-2,-8,1,0,0,-2,-8,1,0,0,0,5,5,60,1,,,,,,,,
,,,,,,,,,,,,,FF,,,,,,,,1.9658,,,,,,,,,,,,,,,,,,,,,,601cded3e354de6a40b60637,60e5625602e03dde9cdc163c,2021-07-07_18h16.31.043,Simcolourproject_2stim_asymm_v5,2020.2.10,Win32,60,60e52e7cfedb1dae636df45f,,,,,,,,,181,34,-56,1,0,0,response3disk,,4,-1,3,1,0,0,rectangle,-1,3,1,0,0,-1,3,1,0,0,0,6,6,9,1,,,,,,,,
,,,,,,,,,,,,,FF,,,,,,,,1.3931,,,,,,,,,,,,,,,,,,,,,,601cded3e354de6a40b60637,60e5625602e03dde9cdc163c,2021-07-07_18h16.31.043,Simcolourproject_2stim_asymm_v5,2020.2.10,Win32,60,60e52e7cfedb1dae636df45f,,,,,,,,,3763,36,-47,1,0,0,response3disk,,4,5,4,1,0,0,rectangle,5,4,1,0,0,5,4,1,0,0,0,7,7,10,1,,,,,,,,
,,,,,,,,,,,,,FF,,,,,,,,1.507,,,,,,,,,,,,,,,,,,,,,,601cded3e354de6a40b60637,60e5625602e03dde9cdc163c,2021-07-07_18h16.31.043,Simcolourproject_2stim_asymm_v5,2020.2.10,Win32,60,60e52e7cfedb1dae636df45f,,,,,,,,,2177,-64,-22,1,0,0,response5disk,,2,5,2,1,0,0,rectangle,5,2,1,0,0,5,2,1,0,0,0,8,8,105,1,,,,,,,,
,,,,,,,,,,,,,FF,,,,,,,,2.0419,,,,,,,,,,,,,,,,,,,,,,601cded3e354de6a40b60637,60e5625602e03dde9cdc163c,2021-07-07_18h16.31.043,Simcolourproject_2stim_asymm_v5,2020.2.10,Win32,60,60e52e7cfedb1dae636df45f,,,,,,,,,1762,-51,-40,1,0,0,response5disk,,2,-15,-2,1,0,0,rectangle,-15,-2,1,0,0,-15,-2,1,0,0,0,9,9,134,1,,,,,,,,
,,,,,,,,,,,,,FF,,,,,,,,1.9793,,,,,,,,,,,,,,,,,,,,,,601cded3e354de6a40b60637,60e5625602e03dde9cdc163c,2021-07-07_18h16.31.043,Simcolourproject_2stim_asymm_v5,2020.2.10,Win32,60,60e52e7cfedb1dae636df45f,,,,,,,,,1498,41,83,1,0,0,response1disk,,7,-1,4,1,0,0,rectangle,-1,4,1,0,0,-1,4,1,0,0,0,10,10,153,1,,,,,,,,
,,,,,,,,,,,,,FF,,,,,,,,2.1391,,,,,,,,,,,,,,,,,,,,,,601cded3e354de6a40b60637,60e5625602e03dde9cdc163c,2021-07-07_18h16.31.043,Simcolourproject_2stim_asymm_v5,2020.2.10,Win32,60,60e52e7cfedb1dae636df45f,,,,,,,,,1864,93,42,1,0,0,response1disk,,6,-13,-4,1,0,0,rectangle,-13,-4,1,0,0,-13,-4,1,0,0,0,11,11,109,1,,,,,,,,
,,,,,,,,,,,,,FF,,,,,,,,1.2222,,,,,,,,,,,,,,,,,,,,,,601cded3e354de6a40b60637,60e5625602e03dde9cdc163c,2021-07-07_18h16.31.043,Simcolourproject_2stim_asymm_v5,2020.2.10,Win32,60,60e52e7cfedb1dae636df45f,,,,,,,,,620,-44,65,1,0,0,response7disk,,0,-15,3,1,0,0,rectangle,-15,3,1,0,0,-15,3,1,0,0,0,12,12,86,1,,,,,,,,
,,,,,,,,,,,,,FF,,,,,,,,1.16,,,,,,,,,,,,,,,,,,,,,,601cded3e354de6a40b60637,60e5625602e03dde9cdc163c,2021-07-07_18h16.31.043,Simcolourproject_2stim_asymm_v5,2020.2.10,Win32,60,60e52e7cfedb1dae636df45f,,,,,,,,,1404,52,26,1,0,0,response1disk,,6,-22,-5,1,0,0,rectangle,-22,-5,1,0,0,-22,-5,1,0,0,0,13,13,78,1,,,,,,,,
,,,,,,,,,,,,,FF,,,,,,,,1.2053,,,,,,,,,,,,,,,,,,,,,,601cded3e354de6a40b60637,60e5625602e03dde9cdc163c,2021-07-07_18h16.31.043,Simcolourproject_2stim_asymm_v5,2020.2.10,Win32,60,60e52e7cfedb1dae636df45f,,,,,,,,,4234,62,35,1,0,0,response1disk,,6,6,2,1,0,0,rectangle,6,2,1,0,0,6,2,1,0,0,0,14,14,132,1,,,,,,,,
,,,,,,,,,,,,,FF,,,,,,,,2.153,,,,,,,,,,,,,,,,,,,,,,601cded3e354de6a40b60637,60e5625602e03dde9cdc163c,2021-07-07_18h16.31.043,Simcolourproject_2stim_asymm_v5,2020.2.10,Win32,60,60e52e7cfedb1dae636df45f,,,,,,,,,491,21,83,1,0,0,response1disk,,7,-4,-4,1,0,0,rectangle,-4,-4,1,0,0,-4,-4,1,0,0,0,15,15,53,1,,,,,,,,
,,,,,,,,,,,,,FF,,,,,,,,1.7084,,,,,,,,,,,,,,,,,,,,,,601cded3e354de6a40b60637,60e5625602e03dde9cdc163c,2021-07-07_18h16.31.043,Simcolourproject_2stim_asymm_v5,2020.2.10,Win32,60,60e52e7cfedb1dae636df45f,,,,,,,,,1515,28,58,1,0,0,response1disk,,7,1,9,1,0,0,rectangle,1,9,1,0,0,1,9,1,0,0,0,16,16,133,1,,,,,,,,
,,,,,,,,,,,,,FF,,,,,,,,0.9968,,,,,,,,,,,,,,,,,,,,,,601cded3e354de6a40b60637,60e5625602e03dde9cdc163c,2021-07-07_18h16.31.043,Simcolourproject_2stim_asymm_v5,2020.2.10,Win32,60,60e52e7cfedb1dae636df45f,,,,,,,,,3120,69,46,1,0,0,response1disk,,6,2,-11,1,0,0,rectangle,2,-11,1,0,0,2,-11,1,0,0,0,17,17,11,1,,,,,,,,
,,,,,,,,,,,,,FF,,,,,,,,0.889,,,,,,,,,,,,,,,,,,,,,,601cded3e354de6a40b60637,60e5625602e03dde9cdc163c,2021-07-07_18h16.31.043,Simcolourproject_2stim_asymm_v5,2020.2.10,Win32,60,60e52e7cfedb1dae636df45f,,,,,,,,,4345,-40,70,1,0,0,response7disk,,0,-14,-3,1,0,0,rectangle,-14,-3,1,0,0,-14,-3,1,0,0,0,18,18,24,1,,,,,,,,
,,,,,,,,,,,,,FF,,,,,,,,0.8613,,,,,,,,,,,,,,,,,,,,,,601cded3e354de6a40b60637,60e5625602e03dde9cdc163c,2021-07-07_18h16.31.043,Simcolourproject_2stim_asymm_v5,2020.2.10,Win32,60,60e52e7cfedb1dae636df45f,,,,,,,,,1868,58,31,1,0,0,response1disk,,6,-2,-1,1,0,0,rectangle,-2,-1,1,0,0,-2,-1,1,0,0,0,19,19,45,1,,,,,,,,
,,,,,,,,,,,,,FF,,,,,,,,0.8472,,,,,,,,,,,,,,,,,,,,,,601cded3e354de6a40b60637,60e5625602e03dde9cdc163c,2021-07-07_18h16.31.043,Simcolourproject_2stim_asymm_v5,2020.2.10,Win32,60,60e52e7cfedb1dae636df45f,,,,,,,,,1407,32,65,1,0,0,response1disk,,7,-1,-1,1,0,0,rectangle,-1,-1,1,0,0,-1,-1,1,0,0,0,20,20,25,1,,,,,,,,
,,,,,,,,,,,,,FF,,,,,,,,0.8854,,,,,,,,,,,,,,,,,,,,,,601cded3e354de6a40b60637,60e5625602e03dde9cdc163c,2021-07-07_18h16.31.043,Simcolourproject_2stim_asymm_v5,2020.2.10,Win32,60,60e52e7cfedb1dae636df45f,,,,,,,,,4087,-59,29,1,0,0,response7disk,,1,-6,5,1,0,0,rectangle,-6,5,1,0,0,-6,5,1,0,0,0,21,21,70,1,,,,,,,,
,,,,,,,,,,,,,FF,,,,,,,,0.7362,,,,,,,,,,,,,,,,,,,,,,601cded3e354de6a40b60637,60e5625602e03dde9cdc163c,2021-07-07_18h16.31.043,Simcolourproject_2stim_asymm_v5,2020.2.10,Win32,60,60e52e7cfedb1dae636df45f,,,,,,,,,1146,63,21,1,0,0,response1disk,,6,11,5,1,0,0,rectangle,11,5,1,0,0,11,5,1,0,0,0,22,22,63,1,,,,,,,,
,,,,,,,,,,,,,FF,,,,,,,,0.8305,,,,,,,,,,,,,,,,,,,,,,601cded3e354de6a40b60637,60e5625602e03dde9cdc163c,2021-07-07_18h16.31.043,Simcolourproject_2stim_asymm_v5,2020.2.10,Win32,60,60e52e7cfedb1dae636df45f,,,,,,,,,4212,34,63,1,0,0,response1disk,,7,-18,-7,1,0,0,rectangle,-18,-7,1,0,0,-18,-7,1,0,0,0,23,23,82,1,,,,,,,,
,,,,,,,,,,,,,FF,,,,,,,,1.2986,,,,,,,,,,,,,,,,,,,,,,601cded3e354de6a40b60637,60e5625602e03dde9cdc163c,2021-07-07_18h16.31.043,Simcolourproject_2stim_asymm_v5,2020.2.10,Win32,60,60e52e7cfedb1dae636df45f,,,,,,,,,2031,-32,79,1,0,0,response7disk,,0,-1,10,1,0,0,rectangle,-1,10,1,0,0,-1,10,1,0,0,0,24,24,57,1,,,,,,,,
,,,,,,,,,,,,,FF,,,,,,,,0.8474,,,,,,,,,,,,,,,,,,,,,,601cded3e354de6a40b60637,60e5625602e03dde9cdc163c,2021-07-07_18h16.31.043,Simcolourproject_2stim_asymm_v5,2020.2.10,Win32,60,60e52e7cfedb1dae636df45f,,,,,,,,,4199,47,28,1,0,0,response1disk,,6,-15,2,1,0,0,rectangle,-15,2,1,0,0,-15,2,1,0,0,0,25,25,145,1,,,,,,,,
,,,,,,,,,,,,,FF,,,,,,,,1.5488,,,,,,,,,,,,,,,,,,,,,,601cded3e354de6a40b60637,60e5625602e03dde9cdc163c,2021-07-07_18h16.31.043,Simcolourproject_2stim_asymm_v5,2020.2.10,Win32,60,60e52e7cfedb1dae636df45f,,,,,,,,,3524,-78,-24,1,0,0,response5disk,,2,-8,-1,1,0,0,rectangle,22,-80,1,0,0,0,-2,1,0,0,0,26,26,117,1,,response3disk_3,TRUE,4,4,"[57,147,95,289,116,27,243,244,84,218,234,169,86,143,113,53,269,182,163,266]",3.0905,rectangle
,,,,,,,,,,,,,FF,,,,,,,,0.9303,,,,,,,,,,,,,,,,,,,,,,601cded3e354de6a40b60637,60e5625602e03dde9cdc163c,2021-07-07_18h16.31.043,Simcolourproject_2stim_asymm_v5,2020.2.10,Win32,60,60e52e7cfedb1dae636df45f,,,,,,,,,1985,-35,-51,1,0,0,response5disk,,3,-6,3,1,0,0,rectangle,-6,3,1,0,0,-6,3,1,0,0,0,27,27,46,1,,,,,,,,
,,,,,,,,,,,,,FF,,,,,,,,0.8106,,,,,,,,,,,,,,,,,,,,,,601cded3e354de6a40b60637,60e5625602e03dde9cdc163c,2021-07-07_18h16.31.043,Simcolourproject_2stim_asymm_v5,2020.2.10,Win32,60,60e52e7cfedb1dae636df45f,,,,,,,,,1499,65,-15,1,0,0,response3disk,,5,7,9,1,0,0,rectangle,7,9,1,0,0,7,9,1,0,0,0,28,28,40,1,,,,,,,,
,,,,,,,,,,,,,FF,,,,,,,,1.2189,,,,,,,,,,,,,,,,,,,,,,601cded3e354de6a40b60637,60e5625602e03dde9cdc163c,2021-07-07_18h16.31.043,Simcolourproject_2stim_asymm_v5,2020.2.10,Win32,60,60e52e7cfedb1dae636df45f,,,,,,,,,1227,-45,77,1,0,0,response7disk,,0,-4,3,1,0,0,rectangle,-4,3,1,0,0,-4,3,1,0,0,0,29,29,83,1,,,,,,,,
,,,,,,,,,,,,,FF,,,,,,,,1.0833,,,,,,,,,,,,,,,,,,,,,,601cded3e354de6a40b60637,60e5625602e03dde9cdc163c,2021-07-07_18h16.31.043,Simcolourproject_2stim_asymm_v5,2020.2.10,Win32,60,60e52e7cfedb1dae636df45f,,,,,,,,,3491,-45,-39,1,0,0,response5disk,,2,-24,-7,1,0,0,rectangle,-24,-7,1,0,0,-24,-7,1,0,0,0,30,30,135,1,,,,,,,,
,,,,,,,,,,,,,FF,,,,,,,,1.3542,,,,,,,,,,,,,,,,,,,,,,601cded3e354de6a40b60637,60e5625602e03dde9cdc163c,2021-07-07_18h16.31.043,Simcolourproject_2stim_asymm_v5,2020.2.10,Win32,60,60e52e7cfedb1dae636df45f,,,,,,,,,2941,-42,75,1,0,0,response7disk,,0,-11,9,1,0,0,rectangle,-11,9,1,0,0,-11,9,1,0,0,0,31,31,93,1,,,,,,,,
,,,,,,,,,,,,,FF,,,,,,,,1.3719,,,,,,,,,,,,,,,,,,,,,,601cded3e354de6a40b60637,60e5625602e03dde9cdc163c,2021-07-07_18h16.31.043,Simcolourproject_2stim_asymm_v5,2020.2.10,Win32,60,60e52e7cfedb1dae636df45f,,,,,,,,,4360,41,-24,1,0,0,response3disk,,5,-7,7,1,0,0,rectangle,-7,7,1,0,0,-7,7,1,0,0,0,32,32,144,1,,,,,,,,
,,,,,,,,,,,,,FF,,,,,,,,0.9723,,,,,,,,,,,,,,,,,,,,,,601cded3e354de6a40b60637,60e5625602e03dde9cdc163c,2021-07-07_18h16.31.043,Simcolourproject_2stim_asymm_v5,2020.2.10,Win32,60,60e52e7cfedb1dae636df45f,,,,,,,,,3292,-33,-44,1,0,0,response5disk,,3,-6,3,1,0,0,rectangle,-6,3,1,0,0,-6,3,1,0,0,0,33,33,90,1,,,,,,,,
,,,,,,,,,,,,,FF,,,,,,,,1.514,,,,,,,,,,,,,,,,,,,,,,601cded3e354de6a40b60637,60e5625602e03dde9cdc163c,2021-07-07_18h16.31.043,Simcolourproject_2stim_asymm_v5,2020.2.10,Win32,60,60e52e7cfedb1dae636df45f,,,,,,,,,3259,-39,29,1,0,0,response7disk,,1,9,-2,1,0,0,rectangle,9,-2,1,0,0,9,-2,1,0,0,0,34,34,94,1,,,,,,,,
,,,,,,,,,,,,,FF,,,,,,,,2.132,,,,,,,,,,,,,,,,,,,,,,601cded3e354de6a40b60637,60e5625602e03dde9cdc163c,2021-07-07_18h16.31.043,Simcolourproject_2stim_asymm_v5,2020.2.10,Win32,60,60e52e7cfedb1dae636df45f,,,,,,,,,2752,47,20,1,0,0,response1disk,,6,7,12,1,0,0,rectangle,7,12,1,0,0,7,12,1,0,0,0,35,35,73,1,,,,,,,,
,,,,,,,,,,,,,FF,,,,,,,,1.6945,,,,,,,,,,,,,,,,,,,,,,601cded3e354de6a40b60637,60e5625602e03dde9cdc163c,2021-07-07_18h16.31.043,Simcolourproject_2stim_asymm_v5,2020.2.10,Win32,60,60e52e7cfedb1dae636df45f,,,,,,,,,2183,-28,-43,1,0,0,response5disk,,3,-13,7,1,0,0,rectangle,-13,7,1,0,0,-13,7,1,0,0,0,36,36,141,1,,,,,,,,
,,,,,,,,,,,,,FF,,,,,,,,1.2499,,,,,,,,,,,,,,,,,,,,,,601cded3e354de6a40b60637,60e5625602e03dde9cdc163c,2021-07-07_18h16.31.043,Simcolourproject_2stim_asymm_v5,2020.2.10,Win32,60,60e52e7cfedb1dae636df45f,,,,,,,,,1220,-59,21,1,0,0,response7disk,,1,12,0,1,0,0,rectangle,12,0,1,0,0,12,0,1,0,0,0,37,37,118,1,,,,,,,,
,,,,,,,,,,,,,FF,,,,,,,,1.9932,,,,,,,,,,,,,,,,,,,,,,601cded3e354de6a40b60637,60e5625602e03dde9cdc163c,2021-07-07_18h16.31.043,Simcolourproject_2stim_asymm_v5,2020.2.10,Win32,60,60e52e7cfedb1dae636df45f,,,,,,,,,797,41,-78,1,0,0,response3disk,,4,-10,-1,1,0,0,rectangle,-10,-1,1,0,0,-10,-1,1,0,0,0,38,38,122,1,,,,,,,,
,,,,,,,,,,,,,FF,,,,,,,,2.4065,,,,,,,,,,,,,,,,,,,,,,601cded3e354de6a40b60637,60e5625602e03dde9cdc163c,2021-07-07_18h16.31.043,Simcolourproject_2stim_asymm_v5,2020.2.10,Win32,60,60e52e7cfedb1dae636df45f,,,,,,,,,1072,-57,50,1,0,0,response7disk,,1,0,-3,1,0,0,rectangle,0,-3,1,0,0,0,-3,1,0,0,0,39,39,56,1,,,,,,,,
,,,,,,,,,,,,,FF,,,,,,,,0.8898,,,,,,,,,,,,,,,,,,,,,,601cded3e354de6a40b60637,60e5625602e03dde9cdc163c,2021-07-07_18h16.31.043,Simcolourproject_2stim_asymm_v5,2020.2.10,Win32,60,60e52e7cfedb1dae636df45f,,,,,,,,,4143,-39,-20,1,0,0,response5disk,,2,12,3,1,0,0,rectangle,12,3,1,0,0,12,3,1,0,0,0,40,40,107,1,,,,,,,,
,,,,,,,,,,,,,FF,,,,,,,,0.9411,,,,,,,,,,,,,,,,,,,,,,601cded3e354de6a40b60637,60e5625602e03dde9cdc163c,2021-07-07_18h16.31.043,Simcolourproject_2stim_asymm_v5,2020.2.10,Win32,60,60e52e7cfedb1dae636df45f,,,,,,,,,4193,-53,-31,1,0,0,response5disk,,2,-14,-4,1,0,0,rectangle,-14,-4,1,0,0,-14,-4,1,0,0,0,41,41,151,1,,,,,,,,
,,,,,,,,,,,,,FF,,,,,,,,1.5176,,,,,,,,,,,,,,,,,,,,,,601cded3e354de6a40b60637,60e5625602e03dde9cdc163c,2021-07-07_18h16.31.043,Simcolourproject_2stim_asymm_v5,2020.2.10,Win32,60,60e52e7cfedb1dae636df45f,,,,,,,,,3649,-37,-54,1,0,0,response5disk,,3,-17,0,1,0,0,rectangle,-17,0,1,0,0,-17,0,1,0,0,0,42,42,96,1,,,,,,,,
,,,,,,,,,,,,,FF,,,,,,,,0.9445,,,,,,,,,,,,,,,,,,,,,,601cded3e354de6a40b60637,60e5625602e03dde9cdc163c,2021-07-07_18h16.31.043,Simcolourproject_2stim_asymm_v5,2020.2.10,Win32,60,60e52e7cfedb1dae636df45f,,,,,,,,,1388,-73,-19,1,0,0,response5disk,,2,0,0,1,0,0,rectangle,0,0,1,0,0,0,0,1,0,0,0,43,43,30,1,,,,,,,,
,,,,,,,,,,,,,FF,,,,,,,,1.0141,,,,,,,,,,,,,,,,,,,,,,601cded3e354de6a40b60637,60e5625602e03dde9cdc163c,2021-07-07_18h16.31.043,Simcolourproject_2stim_asymm_v5,2020.2.10,Win32,60,60e52e7cfedb1dae636df45f,,,,,,,,,1470,-33,-51,1,0,0,response5disk,,3,-8,-2,1,0,0,rectangle,-8,-2,1,0,0,-8,-2,1,0,0,0,44,44,20,1,,,,,,,,
,,,,,,,,,,,,,FF,,,,,,,,1.0414,,,,,,,,,,,,,,,,,,,,,,601cded3e354de6a40b60637,60e5625602e03dde9cdc163c,2021-07-07_18h16.31.043,Simcolourproject_2stim_asymm_v5,2020.2.10,Win32,60,60e52e7cfedb1dae636df45f,,,,,,,,,1291,-57,31,1,0,0,response7disk,,1,1,2,1,0,0,rectangle,1,2,1,0,0,1,2,1,0,0,0,45,45,5,1,,,,,,,,
,,,,,,,,,,,,,FF,,,,,,,,1.007,,,,,,,,,,,,,,,,,,,,,,601cded3e354de6a40b60637,60e5625602e03dde9cdc163c,2021-07-07_18h16.31.043,Simcolourproject_2stim_asymm_v5,2020.2.10,Win32,60,60e52e7cfedb1dae636df45f,,,,,,,,,4064,20,-49,1,0,0,response3disk,,4,1,2,1,0,0,rectangle,1,2,1,0,0,1,2,1,0,0,0,46,46,33,1,,,,,,,,
,,,,,,,,,,,,,FF,,,,,,,,1.0836,,,,,,,,,,,,,,,,,,,,,,601cded3e354de6a40b60637,60e5625602e03dde9cdc163c,2021-07-07_18h16.31.043,Simcolourproject_2stim_asymm_v5,2020.2.10,Win32,60,60e52e7cfedb1dae636df45f,,,,,,,,,926,28,-66,1,0,0,response3disk,,4,-4,4,1,0,0,rectangle,-4,4,1,0,0,-4,4,1,0,0,0,47,47,74,1,,,,,,,,
,,,,,,,,,,,,,FF,,,,,,,,1.0141,,,,,,,,,,,,,,,,,,,,,,601cded3e354de6a40b60637,60e5625602e03dde9cdc163c,2021-07-07_18h16.31.043,Simcolourproject_2stim_asymm_v5,2020.2.10,Win32,60,60e52e7cfedb1dae636df45f,,,,,,,,,1378,-59,-33,1,0,0,response5disk,,2,6,9,1,0,0,rectangle,6,9,1,0,0,6,9,1,0,0,0,48,48,38,1,,,,,,,,
,,,,,,,,,,,,,FF,,,,,,,,0.9547,,,,,,,,,,,,,,,,,,,,,,601cded3e354de6a40b60637,60e5625602e03dde9cdc163c,2021-07-07_18h16.31.043,Simcolourproject_2stim_asymm_v5,2020.2.10,Win32,60,60e52e7cfedb1dae636df45f,,,,,,,,,956,-44,32,1,0,0,response7disk,,1,8,-7,1,0,0,rectangle,8,-7,1,0,0,8,-7,1,0,0,0,49,49,50,1,,,,,,,,
,,,,,,,,,,,,,FF,,,,,,,,0.7502,,,,,,,,,,,,,,,,,,,,,,601cded3e354de6a40b60637,60e5625602e03dde9cdc163c,2021-07-07_18h16.31.043,Simcolourproject_2stim_asymm_v5,2020.2.10,Win32,60,60e52e7cfedb1dae636df45f,,,,,,,,,2220,-29,16,1,0,0,response7disk,,1,-3,-5,1,0,0,rectangle,-3,-5,1,0,0,-3,-5,1,0,0,0,50,50,23,1,,,,,,,,
,,,,,,,,,,,,,FF,,,,,,,,0.9346,,,,,,,,,,,,,,,,,,,,,,601cded3e354de6a40b60637,60e5625602e03dde9cdc163c,2021-07-07_18h16.31.043,Simcolourproject_2stim_asymm_v5,2020.2.10,Win32,60,60e52e7cfedb1dae636df45f,,,,,,,,,1508,66,-30,1,0,0,response3disk,,5,4,0,1,0,0,rectangle,4,0,1,0,0,4,0,1,0,0,0,51,51,147,1,,,,,,,,
,,,,,,,,,,,,,FF,,,,,,,,0.8647,,,,,,,,,,,,,,,,,,,,,,601cded3e354de6a40b60637,60e5625602e03dde9cdc163c,2021-07-07_18h16.31.043,Simcolourproject_2stim_asymm_v5,2020.2.10,Win32,60,60e52e7cfedb1dae636df45f,,,,,,,,,1997,34,-69,1,0,0,response3disk,,4,-20,14,1,0,0,rectangle,-92,-31,1,0,0,-27,11,1,0,0,0,52,52,158,1,,response5disk_3,TRUE,2,2,"[57,147,95,289,116,27,243,244,84,218,234,169,86,143,113,53,269,182,163,266]",2.7302,rectangle
,,,,,,,,,,,,,FF,,,,,,,,0.889,,,,,,,,,,,,,,,,,,,,,,601cded3e354de6a40b60637,60e5625602e03dde9cdc163c,2021-07-07_18h16.31.043,Simcolourproject_2stim_asymm_v5,2020.2.10,Win32,60,60e52e7cfedb1dae636df45f,,,,,,,,,2876,-50,-22,1,0,0,response5disk,,2,-15,-1,1,0,0,rectangle,-15,-1,1,0,0,-15,-1,1,0,0,0,53,53,89,1,,,,,,,,
,,,,,,,,,,,,,FF,,,,,,,,0.8473,,,,,,,,,,,,,,,,,,,,,,601cded3e354de6a40b60637,60e5625602e03dde9cdc163c,2021-07-07_18h16.31.043,Simcolourproject_2stim_asymm_v5,2020.2.10,Win32,60,60e52e7cfedb1dae636df45f,,,,,,,,,38,-76,-34,1,0,0,response5disk,,2,-9,-7,1,0,0,rectangle,-9,-7,1,0,0,-9,-7,1,0,0,0,54,54,101,1,,,,,,,,
,,,,,,,,,,,,,FF,,,,,,,,1.6176,,,,,,,,,,,,,,,,,,,,,,601cded3e354de6a40b60637,60e5625602e03dde9cdc163c,2021-07-07_18h16.31.043,Simcolourproject_2stim_asymm_v5,2020.2.10,Win32,60,60e52e7cfedb1dae636df45f,,,,,,,,,2946,-85,36,1,0,0,response7disk,,1,-3,-8,1,0,0,rectangle,-3,-8,1,0,0,-3,-8,1,0,0,0,55,55,148,1,,,,,,,,
,,,,,,,,,,,,,FF,,,,,,,,1.0902,,,,,,,,,,,,,,,,,,,,,,601cded3e354de6a40b60637,60e5625602e03dde9cdc163c,2021-07-07_18h16.31.043,Simcolourproject_2stim_asymm_v5,2020.2.10,Win32,60,60e52e7cfedb1dae636df45f,,,,,,,,,30,36,-60,1,0,0,response3disk,,4,-15,12,1,0,0,rectangle,-74,46,1,0,0,-7,-8,1,0,0,0,56,56,31,1,,response7disk_3,TRUE,1,1,"[57,147,95,289,116,27,243,244,84,218,234,169,86,143,113,53,269,182,163,266]",2.4862,rectangle
,,,,,,,,,,,,,FF,,,,,,,,1.4899,,,,,,,,,,,,,,,,,,,,,,601cded3e354de6a40b60637,60e5625602e03dde9cdc163c,2021-07-07_18h16.31.043,Simcolourproject_2stim_asymm_v5,2020.2.10,Win32,60,60e52e7cfedb1dae636df45f,,,,,,,,,1411,65,28,1,0,0,response1disk,,6,20,0,1,0,0,rectangle,20,0,1,0,0,20,0,1,0,0,0,57,57,143,1,,,,,,,,
,,,,,,,,,,,,,FF,,,,,,,,0.785,,,,,,,,,,,,,,,,,,,,,,601cded3e354de6a40b60637,60e5625602e03dde9cdc163c,2021-07-07_18h16.31.043,Simcolourproject_2stim_asymm_v5,2020.2.10,Win32,60,60e52e7cfedb1dae636df45f,,,,,,,,,1102,22,54,1,0,0,response1disk,,7,-4,5,1,0,0,rectangle,-4,5,1,0,0,-4,5,1,0,0,0,58,58,128,1,,,,,,,,
,,,,,,,,,,,,,FF,,,,,,,,0.8541,,,,,,,,,,,,,,,,,,,,,,601cded3e354de6a40b60637,60e5625602e03dde9cdc163c,2021-07-07_18h16.31.043,Simcolourproject_2stim_asymm_v5,2020.2.10,Win32,60,60e52e7cfedb1dae636df45f,,,,,,,,,668,25,61,1,0,0,response1disk,,7,-10,7,1,0,0,rectangle,-10,7,1,0,0,-10,7,1,0,0,0,59,59,154,1,,,,,,,,
,,,,,,,,,,,,,FF,,,,,,,,1.3194,,,,,,,,,,,,,,,,,,,,,,601cded3e354de6a40b60637,60e5625602e03dde9cdc163c,2021-07-07_18h16.31.043,Simcolourproject_2stim_asymm_v5,2020.2.10,Win32,60,60e52e7cfedb1dae636df45f,,,,,,,,,693,-67,-39,1,0,0,response5disk,,2,1,-10,1,0,0,rectangle,1,-10,1,0,0,1,-10,1,0,0,0,60,60,16,1,,,,,,,,
,,,,,,,,,,,,,FF,,,,,,,,1.3161,,,,,,,,,,,,,,,,,,,,,,601cded3e354de6a40b60637,60e5625602e03dde9cdc163c,2021-07-07_18h16.31.043,Simcolourproject_2stim_asymm_v5,2020.2.10,Win32,60,60e52e7cfedb1dae636df45f,,,,,,,,,892,-24,-62,1,0,0,response5disk,,3,-21,6,1,0,0,rectangle,-21,6,1,0,0,-21,6,1,0,0,0,61,61,102,1,,,,,,,,
,,,,,,,,,,,,,FF,,,,,,,,1.778,,,,,,,,,,,,,,,,,,,,,,601cded3e354de6a40b60637,60e5625602e03dde9cdc163c,2021-07-07_18h16.31.043,Simcolourproject_2stim_asymm_v5,2020.2.10,Win32,60,60e52e7cfedb1dae636df45f,,,,,,,,,1595,58,33,1,0,0,response1disk,,6,4,-9,1,0,0,rectangle,4,-9,1,0,0,4,-9,1,0,0,0,62,62,32,1,,,,,,,,
,,,,,,,,,,,,,FF,,,,,,,,1.4513,,,,,,,,,,,,,,,,,,,,,,601cded3e354de6a40b60637,60e5625602e03dde9cdc163c,2021-07-07_18h16.31.043,Simcolourproject_2stim_asymm_v5,2020.2.10,Win32,60,60e52e7cfedb1dae636df45f,,,,,,,,,187,-75,27,1,0,0,response7disk,,1,-13,2,1,0,0,rectangle,-13,2,1,0,0,-13,2,1,0,0,0,63,63,26,1,,,,,,,,
,,,,,,,,,,,,,FF,,,,,,,,1.2676,,,,,,,,,,,,,,,,,,,,,,601cded3e354de6a40b60637,60e5625602e03dde9cdc163c,2021-07-07_18h16.31.043,Simcolourproject_2stim_asymm_v5,2020.2.10,Win32,60,60e52e7cfedb1dae636df45f,,,,,,,,,3059,-75,-45,1,0,0,response5disk,,2,-20,2,1,0,0,rectangle,-20,2,1,0,0,-20,2,1,0,0,0,64,64,52,1,,,,,,,,
,,,,,,,,,,,,,FF,,,,,,,,1.3753,,,,,,,,,,,,,,,,,,,,,,601cded3e354de6a40b60637,60e5625602e03dde9cdc163c,2021-07-07_18h16.31.043,Simcolourproject_2stim_asymm_v5,2020.2.10,Win32,60,60e52e7cfedb1dae636df45f,,,,,,,,,3835,27,-53,1,0,0,response3disk,,4,2,10,1,0,0,rectangle,2,10,1,0,0,2,10,1,0,0,0,65,65,159,1,,,,,,,,
,,,,,,,,,,,,,FF,,,,,,,,1.889,,,,,,,,,,,,,,,,,,,,,,601cded3e354de6a40b60637,60e5625602e03dde9cdc163c,2021-07-07_18h16.31.043,Simcolourproject_2stim_asymm_v5,2020.2.10,Win32,60,60e52e7cfedb1dae636df45f,,,,,,,,,3286,57,41,1,0,0,response1disk,,6,-2,-1,1,0,0,rectangle,-2,-1,1,0,0,-2,-1,1,0,0,0,66,66,123,1,,,,,,,,
,,,,,,,,,,,,,FF,,,,,,,,0.9484,,,,,,,,,,,,,,,,,,,,,,601cded3e354de6a40b60637,60e5625602e03dde9cdc163c,2021-07-07_18h16.31.043,Simcolourproject_2stim_asymm_v5,2020.2.10,Win32,60,60e52e7cfedb1dae636df45f,,,,,,,,,1720,28,69,1,0,0,response1disk,,7,-13,-9,1,0,0,rectangle,-13,-9,1,0,0,-13,-9,1,0,0,0,67,67,95,1,,,,,,,,
,,,,,,,,,,,,,FF,,,,,,,,0.8543,,,,,,,,,,,,,,,,,,,,,,601cded3e354de6a40b60637,60e5625602e03dde9cdc163c,2021-07-07_18h16.31.043,Simcolourproject_2stim_asymm_v5,2020.2.10,Win32,60,60e52e7cfedb1dae636df45f,,,,,,,,,2450,26,72,1,0,0,response1disk,,7,-10,5,1,0,0,rectangle,-10,5,1,0,0,-10,5,1,0,0,0,68,68,152,1,,,,,,,,
,,,,,,,,,,,,,FF,,,,,,,,0.8546,,,,,,,,,,,,,,,,,,,,,,601cded3e354de6a40b60637,60e5625602e03dde9cdc163c,2021-07-07_18h16.31.043,Simcolourproject_2stim_asymm_v5,2020.2.10,Win32,60,60e52e7cfedb1dae636df45f,,,,,,,,,3664,26,72,1,0,0,response1disk,,7,-22,-12,1,0,0,rectangle,-22,-12,1,0,0,-22,-12,1,0,0,0,69,69,97,1,,,,,,,,
,,,,,,,,,,,,,FF,,,,,,,,0.9232,,,,,,,,,,,,,,,,,,,,,,601cded3e354de6a40b60637,60e5625602e03dde9cdc163c,2021-07-07_18h16.31.043,Simcolourproject_2stim_asymm_v5,2020.2.10,Win32,60,60e52e7cfedb1dae636df45f,,,,,,,,,1221,-65,-29,1,0,0,response5disk,,2,7,5,1,0,0,rectangle,7,5,1,0,0,7,5,1,0,0,0,70,70,139,1,,,,,,,,
,,,,,,,,,,,,,FF,,,,,,,,0.9659,,,,,,,,,,,,,,,,,,,,,,601cded3e354de6a40b60637,60e5625602e03dde9cdc163c,2021-07-07_18h16.31.043,Simcolourproject_2stim_asymm_v5,2020.2.10,Win32,60,60e52e7cfedb1dae636df45f,,,,,,,,,3904,-32,-52,1,0,0,response5disk,,3,-6,3,1,0,0,rectangle,-6,3,1,0,0,-6,3,1,0,0,0,71,71,75,1,,,,,,,,
,,,,,,,,,,,,,FF,,,,,,,,0.8198,,,,,,,,,,,,,,,,,,,,,,601cded3e354de6a40b60637,60e5625602e03dde9cdc163c,2021-07-07_18h16.31.043,Simcolourproject_2stim_asymm_v5,2020.2.10,Win32,60,60e52e7cfedb1dae636df45f,,,,,,,,,1739,-53,-25,1,0,0,response5disk,,2,-7,-11,1,0,0,rectangle,-7,-11,1,0,0,-7,-11,1,0,0,0,72,72,149,1,,,,,,,,
,,,,,,,,,,,,,FF,,,,,,,,1.049,,,,,,,,,,,,,,,,,,,,,,601cded3e354de6a40b60637,60e5625602e03dde9cdc163c,2021-07-07_18h16.31.043,Simcolourproject_2stim_asymm_v5,2020.2.10,Win32,60,60e52e7cfedb1dae636df45f,,,,,,,,,2096,-36,54,1,0,0,response7disk,,0,1,13,1,0,0,rectangle,1,13,1,0,0,1,13,1,0,0,0,73,73,6,1,,,,,,,,
,,,,,,,,,,,,,FF,,,,,,,,0.7885,,,,,,,,,,,,,,,,,,,,,,601cded3e354de6a40b60637,60e5625602e03dde9cdc163c,2021-07-07_18h16.31.043,Simcolourproject_2stim_asymm_v5,2020.2.10,Win32,60,60e52e7cfedb1dae636df45f,,,,,,,,,1395,52,32,1,0,0,response1disk,,6,-6,12,1,0,0,rectangle,-6,12,1,0,0,-6,12,1,0,0,0,74,74,44,1,,,,,,,,
,,,,,,,,,,,,,FF,,,,,,,,1.4342,,,,,,,,,,,,,,,,,,,,,,601cded3e354de6a40b60637,60e5625602e03dde9cdc163c,2021-07-07_18h16.31.043,Simcolourproject_2stim_asymm_v5,2020.2.10,Win32,60,60e52e7cfedb1dae636df45f,,,,,,,,,2666,-64,-19,1,0,0,response5disk,,2,9,9,1,0,0,rectangle,9,9,1,0,0,9,9,1,0,0,0,75,75,99,1,,,,,,,,
,,,,,,,,,,,,,FF,,,,,,,,0.8751,,,,,,,,,,,,,,,,,,,,,,601cded3e354de6a40b60637,60e5625602e03dde9cdc163c,2021-07-07_18h16.31.043,Simcolourproject_2stim_asymm_v5,2020.2.10,Win32,60,60e52e7cfedb1dae636df45f,,,,,,,,,4138,27,-31,1,0,0,response3disk,,4,6,2,1,0,0,rectangle,6,2,1,0,0,6,2,1,0,0,0,76,76,8,1,,,,,,,,
,,,,,,,,,,,,,FF,,,,,,,,0.8264,,,,,,,,,,,,,,,,,,,,,,601cded3e354de6a40b60637,60e5625602e03dde9cdc163c,2021-07-07_18h16.31.043,Simcolourproject_2stim_asymm_v5,2020.2.10,Win32,60,60e52e7cfedb1dae636df45f,,,,,,,,,730,49,-30,1,0,0,response3disk,,5,15,-4,1,0,0,rectangle,15,-4,1,0,0,15,-4,1,0,0,0,77,77,129,1,,,,,,,,
,,,,,,,,,,,,,FF,,,,,,,,1.115,,,,,,,,,,,,,,,,,,,,,,601cded3e354de6a40b60637,60e5625602e03dde9cdc163c,2021-07-07_18h16.31.043,Simcolourproject_2stim_asymm_v5,2020.2.10,Win32,60,60e52e7cfedb1dae636df45f,,,,,,,,,3807,-29,-38,1,0,0,response5disk,,3,-7,-4,1,0,0,rectangle,-7,-4,1,0,0,-7,-4,1,0,0,0,78,78,62,1,,,,,,,,
,,,,,,,,,,,,,FF,,,,,,,,0.9932,,,,,,,,,,,,,,,,,,,,,,601cded3e354de6a40b60637,60e5625602e03dde9cdc163c,2021-07-07_18h16.31.043,Simcolourproject_2stim_asymm_v5,2020.2.10,Win32,60,60e52e7cfedb1dae636df45f,,,,,,,,,154,-68,-59,1,0,0,response5disk,,2,-13,-5,1,0,0,rectangle,-13,-5,1,0,0,-13,-5,1,0,0,0,79,79,29,1,,,,,,,,
,,,,,,,,,,,,,FF,,,,,,,,1.2085,,,,,,,,,,,,,,,,,,,,,,601cded3e354de6a40b60637,60e5625602e03dde9cdc163c,2021-07-07_18h16.31.043,Simcolourproject_2stim_asymm_v5,2020.2.10,Win32,60,60e52e7cfedb1dae636df45f,,,,,,,,,1961,-46,72,1,0,0,response7disk,,0,-13,6,1,0,0,rectangle,-13,6,1,0,0,-13,6,1,0,0,0,80,80,35,1,,,,,,,,
,,,,,,,,,,,,,FF,,,,,,,,1.0626,,,,,,,,,,,,,,,,,,,,,,601cded3e354de6a40b60637,60e5625602e03dde9cdc163c,2021-07-07_18h16.31.043,Simcolourproject_2stim_asymm_v5,2020.2.10,Win32,60,60e52e7cfedb1dae636df45f,,,,,,,,,1193,55,82,1,0,0,response1disk,,7,12,9,1,0,0,rectangle,12,9,1,0,0,12,9,1,0,0,0,81,81,49,1,,,,,,,,
,,,,,,,,,,,,,FF,,,,,,,,0.8195,,,,,,,,,,,,,,,,,,,,,,601cded3e354de6a40b60637,60e5625602e03dde9cdc163c,2021-07-07_18h16.31.043,Simcolourproject_2stim_asymm_v5,2020.2.10,Win32,60,60e52e7cfedb1dae636df45f,,,,,,,,,2378,65,48,1,0,0,response1disk,,6,14,-10,1,0,0,rectangle,14,-10,1,0,0,14,-10,1,0,0,0,82,82,54,1,,,,,,,,
,,,,,,,,,,,,,FF,,,,,,,,0.8304,,,,,,,,,,,,,,,,,,,,,,601cded3e354de6a40b60637,60e5625602e03dde9cdc163c,2021-07-07_18h16.31.043,Simcolourproject_2stim_asymm_v5,2020.2.10,Win32,60,60e52e7cfedb1dae636df45f,,,,,,,,,2905,38,75,1,0,0,response1disk,,7,12,11,1,0,0,rectangle,29,-84,1,0,0,6,-5,1,0,0,0,83,83,15,1,,response3disk_3,TRUE,4,4,"[57,147,95,289,116,27,243,244,84,218,234,169,86,143,113,53,269,182,163,266]",1.6494,rectangle
,,,,,,,,,,,,,FF,,,,,,,,0.9237,,,,,,,,,,,,,,,,,,,,,,601cded3e354de6a40b60637,60e5625602e03dde9cdc163c,2021-07-07_18h16.31.043,Simcolourproject_2stim_asymm_v5,2020.2.10,Win32,60,60e52e7cfedb1dae636df45f,,,,,,,,,3395,-53,-36,1,0,0,response5disk,,2,-9,-15,1,0,0,rectangle,-9,-15,1,0,0,-9,-15,1,0,0,0,84,84,7,1,,,,,,,,
,,,,,,,,,,,,,FF,,,,,,,,0.9793,,,,,,,,,,,,,,,,,,,,,,601cded3e354de6a40b60637,60e5625602e03dde9cdc163c,2021-07-07_18h16.31.043,Simcolourproject_2stim_asymm_v5,2020.2.10,Win32,60,60e52e7cfedb1dae636df45f,,,,,,,,,712,15,-48,1,0,0,response3disk,,4,2,-9,1,0,0,rectangle,32,-102,1,0,0,-7,-1,1,0,0,0,85,85,48,1,,response3disk_3,TRUE,4,4,"[57,147,95,289,116,27,243,244,84,218,234,169,86,143,113,53,269,182,163,266]",1.5458,rectangle
,,,,,,,,,,,,,FF,,,,,,,,1.0835,,,,,,,,,,,,,,,,,,,,,,601cded3e354de6a40b60637,60e5625602e03dde9cdc163c,2021-07-07_18h16.31.043,Simcolourproject_2stim_asymm_v5,2020.2.10,Win32,60,60e52e7cfedb1dae636df45f,,,,,,,,,3802,-25,-46,1,0,0,response5disk,,3,-10,-2,1,0,0,rectangle,-10,-2,1,0,0,-10,-2,1,0,0,0,86,86,0,1,,,,,,,,
,,,,,,,,,,,,,FF,,,,,,,,1.0829,,,,,,,,,,,,,,,,,,,,,,601cded3e354de6a40b60637,60e5625602e03dde9cdc163c,2021-07-07_18h16.31.043,Simcolourproject_2stim_asymm_v5,2020.2.10,Win32,60,60e52e7cfedb1dae636df45f,,,,,,,,,1630,38,21,1,0,0,response1disk,,6,0,2,1,0,0,rectangle,0,2,1,0,0,0,2,1,0,0,0,87,87,112,1,,,,,,,,
,,,,,,,,,,,,,FF,,,,,,,,1.5625,,,,,,,,,,,,,,,,,,,,,,601cded3e354de6a40b60637,60e5625602e03dde9cdc163c,2021-07-07_18h16.31.043,Simcolourproject_2stim_asymm_v5,2020.2.10,Win32,60,60e52e7cfedb1dae636df45f,,,,,,,,,3203,-40,63,1,0,0,response7disk,,0,-11,3,1,0,0,rectangle,-11,3,1,0,0,-11,3,1,0,0,0,88,88,64,1,,,,,,,,
,,,,,,,,,,,,,FF,,,,,,,,1.0104,,,,,,,,,,,,,,,,,,,,,,601cded3e354de6a40b60637,60e5625602e03dde9cdc163c,2021-07-07_18h16.31.043,Simcolourproject_2stim_asymm_v5,2020.2.10,Win32,60,60e52e7cfedb1dae636df45f,,,,,,,,,1040,-40,17,1,0,0,response7disk,,1,-25,11,1,0,0,rectangle,-25,11,1,0,0,-25,11,1,0,0,0,89,89,65,1,,,,,,,,
,,,,,,,,,,,,,FF,,,,,,,,1.7812,,,,,,,,,,,,,,,,,,,,,,601cded3e354de6a40b60637,60e5625602e03dde9cdc163c,2021-07-07_18h16.31.043,Simcolourproject_2stim_asymm_v5,2020.2.10,Win32,60,60e52e7cfedb1dae636df45f,,,,,,,,,1299,-38,61,1,0,0,response7disk,,0,-24,7,1,0,0,rectangle,-24,7,1,0,0,-24,7,1,0,0,0,90,90,84,1,,,,,,,,
,,,,,,,,,,,,,FF,,,,,,,,1.6668,,,,,,,,,,,,,,,,,,,,,,601cded3e354de6a40b60637,60e5625602e03dde9cdc163c,2021-07-07_18h16.31.043,Simcolourproject_2stim_asymm_v5,2020.2.10,Win32,60,60e52e7cfedb1dae636df45f,,,,,,,,,3038,-17,85,1,0,0,response7disk,,0,-3,-4,1,0,0,rectangle,-3,-4,1,0,0,-3,-4,1,0,0,0,91,91,12,1,,,,,,,,
,,,,,,,,,,,,,FF,,,,,,,,3.1745,,,,,,,,,,,,,,,,,,,,,,601cded3e354de6a40b60637,60e5625602e03dde9cdc163c,2021-07-07_18h16.31.043,Simcolourproject_2stim_asymm_v5,2020.2.10,Win32,60,60e52e7cfedb1dae636df45f,,,,,,,,,3215,28,28,1,0,0,response1disk,,7,-2,0,1,0,0,rectangle,-2,0,1,0,0,-2,0,1,0,0,0,92,92,150,1,,,,,,,,
,,,,,,,,,,,,,FF,,,,,,,,2.9239,,,,,,,,,,,,,,,,,,,,,,601cded3e354de6a40b60637,60e5625602e03dde9cdc163c,2021-07-07_18h16.31.043,Simcolourproject_2stim_asymm_v5,2020.2.10,Win32,60,60e52e7cfedb1dae636df45f,,,,,,,,,3514,-49,-58,1,0,0,response5disk,,3,-13,-9,1,0,0,rectangle,-13,-9,1,0,0,-13,-9,1,0,0,0,93,93,100,1,,,,,,,,
,,,,,,,,,,,,,FF,,,,,,,,1.35,,,,,,,,,,,,,,,,,,,,,,601cded3e354de6a40b60637,60e5625602e03dde9cdc163c,2021-07-07_18h16.31.043,Simcolourproject_2stim_asymm_v5,2020.2.10,Win32,60,60e52e7cfedb1dae636df45f,,,,,,,,,108,-27,75,1,0,0,response7disk,,0,-2,3,1,0,0,rectangle,-66,-27,1,0,0,-21,2,1,0,0,0,94,94,69,1,,response5disk_3,TRUE,2,2,"[57,147,95,289,116,27,243,244,84,218,234,169,86,143,113,53,269,182,163,266]",2.8821,rectangle
,,,,,,,,,,,,,FF,,,,,,,,1.0417,,,,,,,,,,,,,,,,,,,,,,601cded3e354de6a40b60637,60e5625602e03dde9cdc163c,2021-07-07_18h16.31.043,Simcolourproject_2stim_asymm_v5,2020.2.10,Win32,60,60e52e7cfedb1dae636df45f,,,,,,,,,3437,-46,-76,1,0,0,response5disk,,3,1,6,1,0,0,rectangle,1,6,1,0,0,1,6,1,0,0,0,95,95,124,1,,,,,,,,
,,,,,,,,,,,,,FF,,,,,,,,0.9858,,,,,,,,,,,,,,,,,,,,,,601cded3e354de6a40b60637,60e5625602e03dde9cdc163c,2021-07-07_18h16.31.043,Simcolourproject_2stim_asymm_v5,2020.2.10,Win32,60,60e52e7cfedb1dae636df45f,,,,,,,,,921,20,-40,1,0,0,response3disk,,4,6,-1,1,0,0,rectangle,6,-1,1,0,0,6,-1,1,0,0,0,96,96,146,1,,,,,,,,
,,,,,,,,,,,,,FF,,,,,,,,1.2501,,,,,,,,,,,,,,,,,,,,,,601cded3e354de6a40b60637,60e5625602e03dde9cdc163c,2021-07-07_18h16.31.043,Simcolourproject_2stim_asymm_v5,2020.2.10,Win32,60,60e52e7cfedb1dae636df45f,,,,,,,,,1340,35,-49,1,0,0,response3disk,,4,16,-1,1,0,0,rectangle,16,-1,1,0,0,16,-1,1,0,0,0,97,97,125,1,,,,,,,,
,,,,,,,,,,,,,FF,,,,,,,,0.889,,,,,,,,,,,,,,,,,,,,,,601cded3e354de6a40b60637,60e5625602e03dde9cdc163c,2021-07-07_18h16.31.043,Simcolourproject_2stim_asymm_v5,2020.2.10,Win32,60,60e52e7cfedb1dae636df45f,,,,,,,,,74,20,-36,1,0,0,response3disk,,4,5,0,1,0,0,rectangle,5,0,1,0,0,5,0,1,0,0,0,98,98,19,1,,,,,,,,
,,,,,,,,,,,,,FF,,,,,,,,1.0453,,,,,,,,,,,,,,,,,,,,,,601cded3e354de6a40b60637,60e5625602e03dde9cdc163c,2021-07-07_18h16.31.043,Simcolourproject_2stim_asymm_v5,2020.2.10,Win32,60,60e52e7cfedb1dae636df45f,,,,,,,,,2909,-74,-37,1,0,0,response5disk,,2,0,11,1,0,0,rectangle,0,11,1,0,0,0,11,1,0,0,0,99,99,113,1,,,,,,,,
,,,,,,,,,,,,,FF,,,,,,,,1.7363,,,,,,,,,,,,,,,,,,,,,,601cded3e354de6a40b60637,60e5625602e03dde9cdc163c,2021-07-07_18h16.31.043,Simcolourproject_2stim_asymm_v5,2020.2.10,Win32,60,60e52e7cfedb1dae636df45f,,,,,,,,,2568,84,-19,1,0,0,response3disk,,5,18,-7,1,0,0,rectangle,18,-7,1,0,0,18,-7,1,0,0,0,100,100,108,1,,,,,,,,
,,,,,,,,,,,,,FF,,,,,,,,1.2432,,,,,,,,,,,,,,,,,,,,,,601cded3e354de6a40b60637,60e5625602e03dde9cdc163c,2021-07-07_18h16.31.043,Simcolourproject_2stim_asymm_v5,2020.2.10,Win32,60,60e52e7cfedb1dae636df45f,,,,,,,,,890,-63,22,1,0,0,response7disk,,1,-11,-7,1,0,0,rectangle,-11,-7,1,0,0,-11,-7,1,0,0,0,101,101,39,1,,,,,,,,
,,,,,,,,,,,,,FF,,,,,,,,1.1738,,,,,,,,,,,,,,,,,,,,,,601cded3e354de6a40b60637,60e5625602e03dde9cdc163c,2021-07-07_18h16.31.043,Simcolourproject_2stim_asymm_v5,2020.2.10,Win32,60,60e52e7cfedb1dae636df45f,,,,,,,,,2893,-31,80,1,0,0,response7disk,,0,-8,0,1,0,0,rectangle,-8,0,1,0,0,-8,0,1,0,0,0,102,102,80,1,,,,,,,,
,,,,,,,,,,,,,FF,,,,,,,,0.8581,,,,,,,,,,,,,,,,,,,,,,601cded3e354de6a40b60637,60e5625602e03dde9cdc163c,2021-07-07_18h16.31.043,Simcolourproject_2stim_asymm_v5,2020.2.10,Win32,60,60e52e7cfedb1dae636df45f,,,,,,,,,2904,49,33,1,0,0,response1disk,,6,-10,-3,1,0,0,rectangle,-10,-3,1,0,0,-10,-3,1,0,0,0,103,103,111,1,,,,,,,,
,,,,,,,,,,,,,FF,,,,,,,,0.757,,,,,,,,,,,,,,,,,,,,,,601cded3e354de6a40b60637,60e5625602e03dde9cdc163c,2021-07-07_18h16.31.043,Simcolourproject_2stim_asymm_v5,2020.2.10,Win32,60,60e52e7cfedb1dae636df45f,,,,,,,,,1570,48,34,1,0,0,response1disk,,6,-7,-5,1,0,0,rectangle,-7,-5,1,0,0,-7,-5,1,0,0,0,104,104,71,1,,,,,,,,
,,,,,,,,,,,,,FF,,,,,,,,0.754,,,,,,,,,,,,,,,,,,,,,,601cded3e354de6a40b60637,60e5625602e03dde9cdc163c,2021-07-07_18h16.31.043,Simcolourproject_2stim_asymm_v5,2020.2.10,Win32,60,60e52e7cfedb1dae636df45f,,,,,,,,,3786,32,38,1,0,0,response1disk,,7,7,5,1,0,0,rectangle,7,5,1,0,0,7,5,1,0,0,0,105,105,155,1,,,,,,,,
,,,,,,,,,,,,,FF,,,,,,,,0.9306,,,,,,,,,,,,,,,,,,,,,,601cded3e354de6a40b60637,60e5625602e03dde9cdc163c,2021-07-07_18h16.31.043,Simcolourproject_2stim_asymm_v5,2020.2.10,Win32,60,60e52e7cfedb1dae636df45f,,,,,,,,,630,-28,69,1,0,0,response7disk,,0,13,-14,1,0,0,rectangle,13,-14,1,0,0,13,-14,1,0,0,0,106,106,13,1,,,,,,,,
,,,,,,,,,,,,,FF,,,,,,,,0.7216,,,,,,,,,,,,,,,,,,,,,,601cded3e354de6a40b60637,60e5625602e03dde9cdc163c,2021-07-07_18h16.31.043,Simcolourproject_2stim_asymm_v5,2020.2.10,Win32,60,60e52e7cfedb1dae636df45f,,,,,,,,,97,-36,51,1,0,0,response7disk,,0,-2,7,1,0,0,rectangle,-2,7,1,0,0,-2,7,1,0,0,0,107,107,36,1,,,,,,,,
,,,,,,,,,,,,,FF,,,,,,,,0.739,,,,,,,,,,,,,,,,,,,,,,601cded3e354de6a40b60637,60e5625602e03dde9cdc163c,2021-07-07_18h16.31.043,Simcolourproject_2stim_asymm_v5,2020.2.10,Win32,60,60e52e7cfedb1dae636df45f,,,,,,,,,2869,43,32,1,0,0,response1disk,,6,4,2,1,0,0,rectangle,4,2,1,0,0,4,2,1,0,0,0,108,108,28,1,,,,,,,,
,,,,,,,,,,,,,FF,,,,,,,,0.8163,,,,,,,,,,,,,,,,,,,,,,601cded3e354de6a40b60637,60e5625602e03dde9cdc163c,2021-07-07_18h16.31.043,Simcolourproject_2stim_asymm_v5,2020.2.10,Win32,60,60e52e7cfedb1dae636df45f,,,,,,,,,2502,-39,25,1,0,0,response7disk,,1,-10,0,1,0,0,rectangle,-10,0,1,0,0,-10,0,1,0,0,0,109,109,79,1,,,,,,,,
,,,,,,,,,,,,,FF,,,,,,,,1.0001,,,,,,,,,,,,,,,,,,,,,,601cded3e354de6a40b60637,60e5625602e03dde9cdc163c,2021-07-07_18h16.31.043,Simcolourproject_2stim_asymm_v5,2020.2.10,Win32,60,60e52e7cfedb1dae636df45f,,,,,,,,,2233,-61,69,1,0,0,response7disk,,0,-6,-9,1,0,0,rectangle,-6,-9,1,0,0,-6,-9,1,0,0,0,110,110,140,1,,,,,,,,
,,,,,,,,,,,,,FF,,,,,,,,1.1153,,,,,,,,,,,,,,,,,,,,,,601cded3e354de6a40b60637,60e5625602e03dde9cdc163c,2021-07-07_18h16.31.043,Simcolourproject_2stim_asymm_v5,2020.2.10,Win32,60,60e52e7cfedb1dae636df45f,,,,,,,,,334,30,-18,1,0,0,response3disk,,5,8,-5,1,0,0,rectangle,8,-5,1,0,0,8,-5,1,0,0,0,111,111,43,1,,,,,,,,
,,,,,,,,,,,,,FF,,,,,,,,1.0765,,,,,,,,,,,,,,,,,,,,,,601cded3e354de6a40b60637,60e5625602e03dde9cdc163c,2021-07-07_18h16.31.043,Simcolourproject_2stim_asymm_v5,2020.2.10,Win32,60,60e52e7cfedb1dae636df45f,,,,,,,,,1893,-33,54,1,0,0,response7disk,,0,9,3,1,0,0,rectangle,41,29,1,0,0,16,7,1,0,0,0,112,112,1,1,,response1disk_3,TRUE,6,7,"[57,147,95,289,116,27,243,244,84,218,234,169,86,143,113,53,269,182,163,266]",3.1876,rectangle
,,,,,,,,,,,,,FF,,,,,,,,1.5218,,,,,,,,,,,,,,,,,,,,,,601cded3e354de6a40b60637,60e5625602e03dde9cdc163c,2021-07-07_18h16.31.043,Simcolourproject_2stim_asymm_v5,2020.2.10,Win32,60,60e52e7cfedb1dae636df45f,,,,,,,,,996,-73,-52,1,0,0,response5disk,,2,-25,-5,1,0,0,rectangle,-25,-5,1,0,0,-25,-5,1,0,0,0,113,113,77,1,,,,,,,,
,,,,,,,,,,,,,FF,,,,,,,,1.2084,,,,,,,,,,,,,,,,,,,,,,601cded3e354de6a40b60637,60e5625602e03dde9cdc163c,2021-07-07_18h16.31.043,Simcolourproject_2stim_asymm_v5,2020.2.10,Win32,60,60e52e7cfedb1dae636df45f,,,,,,,,,1719,-27,-40,1,0,0,response5disk,,3,-10,-5,1,0,0,rectangle,-10,-5,1,0,0,-10,-5,1,0,0,0,114,114,126,1,,,,,,,,
,,,,,,,,,,,,,FF,,,,,,,,1.3197,,,,,,,,,,,,,,,,,,,,,,601cded3e354de6a40b60637,60e5625602e03dde9cdc163c,2021-07-07_18h16.31.043,Simcolourproject_2stim_asymm_v5,2020.2.10,Win32,60,60e52e7cfedb1dae636df45f,,,,,,,,,4295,-39,51,1,0,0,response7disk,,0,-14,11,1,0,0,rectangle,-59,-37,1,0,0,15,3,1,0,0,0,115,115,120,1,,response5disk_3,TRUE,2,2,"[57,147,95,289,116,27,243,244,84,218,234,169,86,143,113,53,269,182,163,266]",1.8581,rectangle
,,,,,,,,,,,,,FF,,,,,,,,3.9069,,,,,,,,,,,,,,,,,,,,,,601cded3e354de6a40b60637,60e5625602e03dde9cdc163c,2021-07-07_18h16.31.043,Simcolourproject_2stim_asymm_v5,2020.2.10,Win32,60,60e52e7cfedb1dae636df45f,,,,,,,,,893,44,-37,1,0,0,response3disk,,5,5,-3,1,0,0,rectangle,5,-3,1,0,0,5,-3,1,0,0,0,116,116,87,1,,,,,,,,
,,,,,,,,,,,,,FF,,,,,,,,1.0975,,,,,,,,,,,,,,,,,,,,,,601cded3e354de6a40b60637,60e5625602e03dde9cdc163c,2021-07-07_18h16.31.043,Simcolourproject_2stim_asymm_v5,2020.2.10,Win32,60,60e52e7cfedb1dae636df45f,,,,,,,,,1101,65,-31,1,0,0,response3disk,,5,15,-8,1,0,0,rectangle,15,-8,1,0,0,15,-8,1,0,0,0,117,117,17,1,,,,,,,,
,,,,,,,,,,,,,FF,,,,,,,,0.757,,,,,,,,,,,,,,,,,,,,,,601cded3e354de6a40b60637,60e5625602e03dde9cdc163c,2021-07-07_18h16.31.043,Simcolourproject_2stim_asymm_v5,2020.2.10,Win32,60,60e52e7cfedb1dae636df45f,,,,,,,,,2863,42,24,1,0,0,response1disk,,6,-3,5,1,0,0,rectangle,-3,5,1,0,0,-3,5,1,0,0,0,118,118,114,1,,,,,,,,
,,,,,,,,,,,,,FF,,,,,,,,0.8544,,,,,,,,,,,,,,,,,,,,,,601cded3e354de6a40b60637,60e5625602e03dde9cdc163c,2021-07-07_18h16.31.043,Simcolourproject_2stim_asymm_v5,2020.2.10,Win32,60,60e52e7cfedb1dae636df45f,,,,,,,,,814,-60,-85,1,0,0,response5disk,,3,0,7,1,0,0,rectangle,0,7,1,0,0,0,7,1,0,0,0,119,119,58,1,,,,,,,,
,,,,,,,,,,,,,FF,,,,,,,,0.9168,,,,,,,,,,,,,,,,,,,,,,601cded3e354de6a40b60637,60e5625602e03dde9cdc163c,2021-07-07_18h16.31.043,Simcolourproject_2stim_asymm_v5,2020.2.10,Win32,60,60e52e7cfedb1dae636df45f,,,,,,,,,3381,-32,69,1,0,0,response7disk,,0,-11,6,1,0,0,rectangle,-11,6,1,0,0,-11,6,1,0,0,0,120,120,37,1,,,,,,,,
,,,,,,,,,,,,,FF,,,,,,,,0.8442,,,,,,,,,,,,,,,,,,,,,,601cded3e354de6a40b60637,60e5625602e03dde9cdc163c,2021-07-07_18h16.31.043,Simcolourproject_2stim_asymm_v5,2020.2.10,Win32,60,60e52e7cfedb1dae636df45f,,,,,,,,,953,51,34,1,0,0,response1disk,,6,-6,5,1,0,0,rectangle,-6,5,1,0,0,-6,5,1,0,0,0,121,121,131,1,,,,,,,,
,,,,,,,,,,,,,FF,,,,,,,,1.5037,,,,,,,,,,,,,,,,,,,,,,601cded3e354de6a40b60637,60e5625602e03dde9cdc163c,2021-07-07_18h16.31.043,Simcolourproject_2stim_asymm_v5,2020.2.10,Win32,60,60e52e7cfedb1dae636df45f,,,,,,,,,2727,21,-67,1,0,0,response3disk,,4,-9,2,1,0,0,rectangle,-9,2,1,0,0,-9,2,1,0,0,0,122,122,14,1,,,,,,,,
,,,,,,,,,,,,,FF,,,,,,,,1.3759,,,,,,,,,,,,,,,,,,,,,,601cded3e354de6a40b60637,60e5625602e03dde9cdc163c,2021-07-07_18h16.31.043,Simcolourproject_2stim_asymm_v5,2020.2.10,Win32,60,60e52e7cfedb1dae636df45f,,,,,,,,,2280,87,46,1,0,0,response1disk,,6,18,4,1,0,0,rectangle,18,4,1,0,0,18,4,1,0,0,0,123,123,92,1,,,,,,,,
,,,,,,,,,,,,,FF,,,,,,,,0.9069,,,,,,,,,,,,,,,,,,,,,,601cded3e354de6a40b60637,60e5625602e03dde9cdc163c,2021-07-07_18h16.31.043,Simcolourproject_2stim_asymm_v5,2020.2.10,Win32,60,60e52e7cfedb1dae636df45f,,,,,,,,,55,-31,-53,1,0,0,response5disk,,3,2,-4,1,0,0,rectangle,2,-4,1,0,0,2,-4,1,0,0,0,124,124,4,1,,,,,,,,
,,,,,,,,,,,,,FF,,,,,,,,1.1705,,,,,,,,,,,,,,,,,,,,,,601cded3e354de6a40b60637,60e5625602e03dde9cdc163c,2021-07-07_18h16.31.043,Simcolourproject_2stim_asymm_v5,2020.2.10,Win32,60,60e52e7cfedb1dae636df45f,,,,,,,,,221,64,-32,1,0,0,response3disk,,5,-7,14,1,0,0,rectangle,-7,14,1,0,0,-7,14,1,0,0,0,125,125,72,1,,,,,,,,
,,,,,,,,,,,,,FF,,,,,,,,0.9758,,,,,,,,,,,,,,,,,,,,,,601cded3e354de6a40b60637,60e5625602e03dde9cdc163c,2021-07-07_18h16.31.043,Simcolourproject_2stim_asymm_v5,2020.2.10,Win32,60,60e52e7cfedb1dae636df45f,,,,,,,,,686,-32,-60,1,0,0,response5disk,,3,1,-1,1,0,0,rectangle,1,-1,1,0,0,1,-1,1,0,0,0,126,126,138,1,,,,,,,,
,,,,,,,,,,,,,FF,,,,,,,,0.8649,,,,,,,,,,,,,,,,,,,,,,601cded3e354de6a40b60637,60e5625602e03dde9cdc163c,2021-07-07_18h16.31.043,Simcolourproject_2stim_asymm_v5,2020.2.10,Win32,60,60e52e7cfedb1dae636df45f,,,,,,,,,1200,47,62,1,0,0,response1disk,,7,0,-7,1,0,0,rectangle,0,-7,1,0,0,0,-7,1,0,0,0,127,127,85,1,,,,,,,,
,,,,,,,,,,,,,FF,,,,,,,,0.8405,,,,,,,,,,,,,,,,,,,,,,601cded3e354de6a40b60637,60e5625602e03dde9cdc163c,2021-07-07_18h16.31.043,Simcolourproject_2stim_asymm_v5,2020.2.10,Win32,60,60e52e7cfedb1dae636df45f,,,,,,,,,1298,-28,51,1,0,0,response7disk,,0,5,-3,1,0,0,rectangle,5,-3,1,0,0,5,-3,1,0,0,0,128,128,98,1,,,,,,,,
,,,,,,,,,,,,,FF,,,,,,,,0.8754,,,,,,,,,,,,,,,,,,,,,,601cded3e354de6a40b60637,60e5625602e03dde9cdc163c,2021-07-07_18h16.31.043,Simcolourproject_2stim_asymm_v5,2020.2.10,Win32,60,60e52e7cfedb1dae636df45f,,,,,,,,,3676,-21,64,1,0,0,response7disk,,0,-11,11,1,0,0,rectangle,-11,11,1,0,0,-11,11,1,0,0,0,129,129,27,1,,,,,,,,
,,,,,,,,,,,,,FF,,,,,,,,0.9514,,,,,,,,,,,,,,,,,,,,,,601cded3e354de6a40b60637,60e5625602e03dde9cdc163c,2021-07-07_18h16.31.043,Simcolourproject_2stim_asymm_v5,2020.2.10,Win32,60,60e52e7cfedb1dae636df45f,,,,,,,,,1727,57,60,1,0,0,response1disk,,7,7,9,1,0,0,rectangle,7,9,1,0,0,7,9,1,0,0,0,130,130,91,1,,,,,,,,
,,,,,,,,,,,,,FF,,,,,,,,0.8543,,,,,,,,,,,,,,,,,,,,,,601cded3e354de6a40b60637,60e5625602e03dde9cdc163c,2021-07-07_18h16.31.043,Simcolourproject_2stim_asymm_v5,2020.2.10,Win32,60,60e52e7cfedb1dae636df45f,,,,,,,,,1172,40,-23,1,0,0,response3disk,,5,4,-5,1,0,0,rectangle,4,-5,1,0,0,4,-5,1,0,0,0,131,131,115,1,,,,,,,,
,,,,,,,,,,,,,FF,,,,,,,,1.0589,,,,,,,,,,,,,,,,,,,,,,601cded3e354de6a40b60637,60e5625602e03dde9cdc163c,2021-07-07_18h16.31.043,Simcolourproject_2stim_asymm_v5,2020.2.10,Win32,60,60e52e7cfedb1dae636df45f,,,,,,,,,2811,65,32,1,0,0,response1disk,,6,0,-4,1,0,0,rectangle,0,-4,1,0,0,0,-4,1,0,0,0,132,132,21,1,,,,,,,,
,,,,,,,,,,,,,FF,,,,,,,,1.6461,,,,,,,,,,,,,,,,,,,,,,601cded3e354de6a40b60637,60e5625602e03dde9cdc163c,2021-07-07_18h16.31.043,Simcolourproject_2stim_asymm_v5,2020.2.10,Win32,60,60e52e7cfedb1dae636df45f,,,,,,,,,6,-47,-27,1,0,0,response5disk,,2,-9,4,1,0,0,rectangle,-9,4,1,0,0,-9,4,1,0,0,0,133,133,142,1,,,,,,,,
,,,,,,,,,,,,,FF,,,,,,,,1.896,,,,,,,,,,,,,,,,,,,,,,601cded3e354de6a40b60637,60e5625602e03dde9cdc163c,2021-07-07_18h16.31.043,Simcolourproject_2stim_asymm_v5,2020.2.10,Win32,60,60e52e7cfedb1dae636df45f,,,,,,,,,1418,72,29,1,0,0,response1disk,,6,-10,-8,1,0,0,rectangle,-10,-8,1,0,0,-10,-8,1,0,0,0,134,134,156,1,,,,,,,,
,,,,,,,,,,,,,FF,,,,,,,,3.4627,,,,,,,,,,,,,,,,,,,,,,601cded3e354de6a40b60637,60e5625602e03dde9cdc163c,2021-07-07_18h16.31.043,Simcolourproject_2stim_asymm_v5,2020.2.10,Win32,60,60e52e7cfedb1dae636df45f,,,,,,,,,950,50,-76,1,0,0,response3disk,,4,1,-3,1,0,0,rectangle,1,-3,1,0,0,1,-3,1,0,0,0,135,135,34,1,,,,,,,,
,,,,,,,,,,,,,FF,,,,,,,,1.542,,,,,,,,,,,,,,,,,,,,,,601cded3e354de6a40b60637,60e5625602e03dde9cdc163c,2021-07-07_18h16.31.043,Simcolourproject_2stim_asymm_v5,2020.2.10,Win32,60,60e52e7cfedb1dae636df45f,,,,,,,,,3504,-59,-83,1,0,0,response5disk,,3,-15,0,1,0,0,rectangle,-15,0,1,0,0,-15,0,1,0,0,0,136,136,104,1,,,,,,,,
,,,,,,,,,,,,,FF,,,,,,,,1.6528,,,,,,,,,,,,,,,,,,,,,,601cded3e354de6a40b60637,60e5625602e03dde9cdc163c,2021-07-07_18h16.31.043,Simcolourproject_2stim_asymm_v5,2020.2.10,Win32,60,60e52e7cfedb1dae636df45f,,,,,,,,,3184,55,33,1,0,0,response1disk,,6,12,3,1,0,0,rectangle,12,3,1,0,0,12,3,1,0,0,0,137,137,119,1,,,,,,,,
,,,,,,,,,,,,,FF,,,,,,,,0.9999,,,,,,,,,,,,,,,,,,,,,,601cded3e354de6a40b60637,60e5625602e03dde9cdc163c,2021-07-07_18h16.31.043,Simcolourproject_2stim_asymm_v5,2020.2.10,Win32,60,60e52e7cfedb1dae636df45f,,,,,,,,,2540,23,-40,1,0,0,response3disk,,4,-7,4,1,0,0,rectangle,-7,4,1,0,0,-7,4,1,0,0,0,138,138,42,1,,,,,,,,
,,,,,,,,,,,,,FF,,,,,,,,0.8717,,,,,,,,,,,,,,,,,,,,,,601cded3e354de6a40b60637,60e5625602e03dde9cdc163c,2021-07-07_18h16.31.043,Simcolourproject_2stim_asymm_v5,2020.2.10,Win32,60,60e52e7cfedb1dae636df45f,,,,,,,,,3356,-56,-89,1,0,0,response5disk,,3,-10,7,1,0,0,rectangle,-10,7,1,0,0,-10,7,1,0,0,0,139,139,55,1,,,,,,,,
,,,,,,,,,,,,,FF,,,,,,,,0.9306,,,,,,,,,,,,,,,,,,,,,,601cded3e354de6a40b60637,60e5625602e03dde9cdc163c,2021-07-07_18h16.31.043,Simcolourproject_2stim_asymm_v5,2020.2.10,Win32,60,60e52e7cfedb1dae636df45f,,,,,,,,,3982,-33,-48,1,0,0,response5disk,,3,-20,-2,1,0,0,rectangle,-20,-2,1,0,0,-20,-2,1,0,0,0,140,140,121,1,,,,,,,,
,,,,,,,,,,,,,FF,,,,,,,,1.5211,,,,,,,,,,,,,,,,,,,,,,601cded3e354de6a40b60637,60e5625602e03dde9cdc163c,2021-07-07_18h16.31.043,Simcolourproject_2stim_asymm_v5,2020.2.10,Win32,60,60e52e7cfedb1dae636df45f,,,,,,,,,1132,-71,62,1,0,0,response7disk,,1,-14,13,1,0,0,rectangle,-14,13,1,0,0,-14,13,1,0,0,0,141,141,47,1,,,,,,,,
,,,,,,,,,,,,,FF,,,,,,,,0.722,,,,,,,,,,,,,,,,,,,,,,601cded3e354de6a40b60637,60e5625602e03dde9cdc163c,2021-07-07_18h16.31.043,Simcolourproject_2stim_asymm_v5,2020.2.10,Win32,60,60e52e7cfedb1dae636df45f,,,,,,,,,4228,81,56,1,0,0,response1disk,,6,-1,-2,1,0,0,rectangle,73,27,1,0,0,11,13,1,0,0,0,142,142,81,1,,response1disk_3,TRUE,6,6,"[57,147,95,289,116,27,243,244,84,218,234,169,86,143,113,53,269,182,163,266]",3.1493,rectangle
,,,,,,,,,,,,,FF,,,,,,,,17.0636,,,,,,,,,,,,,,,,,,,,,,601cded3e354de6a40b60637,60e5625602e03dde9cdc163c,2021-07-07_18h16.31.043,Simcolourproject_2stim_asymm_v5,2020.2.10,Win32,60,60e52e7cfedb1dae636df45f,,,,,,,,,806,-64,-43,1,0,0,response5disk,,2,-16,-4,1,0,0,rectangle,-16,-4,1,0,0,-16,-4,1,0,0,0,143,143,116,1,,,,,,,,
,,,,,,,,,,,,,FF,,,,,,,,1.2152,,,,,,,,,,,,,,,,,,,,,,601cded3e354de6a40b60637,60e5625602e03dde9cdc163c,2021-07-07_18h16.31.043,Simcolourproject_2stim_asymm_v5,2020.2.10,Win32,60,60e52e7cfedb1dae636df45f,,,,,,,,,2319,44,19,1,0,0,response1disk,,6,4,0,1,0,0,rectangle,4,0,1,0,0,4,0,1,0,0,0,144,144,2,1,,,,,,,,
,,,,,,,,,,,,,FF,,,,,,,,0.9444,,,,,,,,,,,,,,,,,,,,,,601cded3e354de6a40b60637,60e5625602e03dde9cdc163c,2021-07-07_18h16.31.043,Simcolourproject_2stim_asymm_v5,2020.2.10,Win32,60,60e52e7cfedb1dae636df45f,,,,,,,,,378,-50,-26,1,0,0,response5disk,,2,-6,3,1,0,0,rectangle,-6,3,1,0,0,-6,3,1,0,0,0,145,145,18,1,,,,,,,,
,,,,,,,,,,,,,FF,,,,,,,,1.0766,,,,,,,,,,,,,,,,,,,,,,601cded3e354de6a40b60637,60e5625602e03dde9cdc163c,2021-07-07_18h16.31.043,Simcolourproject_2stim_asymm_v5,2020.2.10,Win32,60,60e52e7cfedb1dae636df45f,,,,,,,,,3709,-64,25,1,0,0,response7disk,,1,-1,-1,1,0,0,rectangle,79,-29,1,0,0,22,0,1,0,0,0,146,146,61,1,,response3disk_3,TRUE,5,5,"[57,147,95,289,116,27,243,244,84,218,234,169,86,143,113,53,269,182,163,266]",2.0555,rectangle
,,,,,,,,,,,,,FF,,,,,,,,1.1598,,,,,,,,,,,,,,,,,,,,,,601cded3e354de6a40b60637,60e5625602e03dde9cdc163c,2021-07-07_18h16.31.043,Simcolourproject_2stim_asymm_v5,2020.2.10,Win32,60,60e52e7cfedb1dae636df45f,,,,,,,,,1731,-32,-54,1,0,0,response5disk,,3,0,-4,1,0,0,rectangle,0,-4,1,0,0,0,-4,1,0,0,0,147,147,51,1,,,,,,,,
,,,,,,,,,,,,,FF,,,,,,,,0.9515,,,,,,,,,,,,,,,,,,,,,,601cded3e354de6a40b60637,60e5625602e03dde9cdc163c,2021-07-07_18h16.31.043,Simcolourproject_2stim_asymm_v5,2020.2.10,Win32,60,60e52e7cfedb1dae636df45f,,,,,,,,,4369,-47,60,1,0,0,response7disk,,0,-2,-1,1,0,0,rectangle,-2,-1,1,0,0,-2,-1,1,0,0,0,148,148,110,1,,,,,,,,
,,,,,,,,,,,,,FF,,,,,,,,0.9994,,,,,,,,,,,,,,,,,,,,,,601cded3e354de6a40b60637,60e5625602e03dde9cdc163c,2021-07-07_18h16.31.043,Simcolourproject_2stim_asymm_v5,2020.2.10,Win32,60,60e52e7cfedb1dae636df45f,,,,,,,,,2778,-47,29,1,0,0,response7disk,,1,5,-4,1,0,0,rectangle,5,-4,1,0,0,5,-4,1,0,0,0,149,149,137,1,,,,,,,,
,,,,,,,,,,,,,FF,,,,,,,,1.132,,,,,,,,,,,,,,,,,,,,,,601cded3e354de6a40b60637,60e5625602e03dde9cdc163c,2021-07-07_18h16.31.043,Simcolourproject_2stim_asymm_v5,2020.2.10,Win32,60,60e52e7cfedb1dae636df45f,,,,,,,,,3042,15,-53,1,0,0,response3disk,,4,-9,-3,1,0,0,rectangle,-9,-3,1,0,0,-9,-3,1,0,0,0,150,150,127,1,,,,,,,,
,,,,,,,,,,,,,FF,,,,,,,,3.2572,,,,,,,,,,,,,,,,,,,,,,601cded3e354de6a40b60637,60e5625602e03dde9cdc163c,2021-07-07_18h16.31.043,Simcolourproject_2stim_asymm_v5,2020.2.10,Win32,60,60e52e7cfedb1dae636df45f,,,,,,,,,1638,-37,48,1,0,0,response7disk,,0,-17,9,1,0,0,rectangle,-17,9,1,0,0,-17,9,1,0,0,0,151,151,68,1,,,,,,,,
,,,,,,,,,,,,,FF,,,,,,,,0.844,,,,,,,,,,,,,,,,,,,,,,601cded3e354de6a40b60637,60e5625602e03dde9cdc163c,2021-07-07_18h16.31.043,Simcolourproject_2stim_asymm_v5,2020.2.10,Win32,60,60e52e7cfedb1dae636df45f,,,,,,,,,4338,-37,45,1,0,0,response7disk,,0,-18,0,1,0,0,rectangle,-18,0,1,0,0,-18,0,1,0,0,0,152,152,59,1,,,,,,,,
,,,,,,,,,,,,,FF,,,,,,,,1.2154,,,,,,,,,,,,,,,,,,,,,,601cded3e354de6a40b60637,60e5625602e03dde9cdc163c,2021-07-07_18h16.31.043,Simcolourproject_2stim_asymm_v5,2020.2.10,Win32,60,60e52e7cfedb1dae636df45f,,,,,,,,,993,-35,-40,1,0,0,response5disk,,3,-3,-1,1,0,0,rectangle,-3,-1,1,0,0,-3,-1,1,0,0,0,153,153,157,1,,,,,,,,
,,,,,,,,,,,,,FF,,,,,,,,1.1809,,,,,,,,,,,,,,,,,,,,,,601cded3e354de6a40b60637,60e5625602e03dde9cdc163c,2021-07-07_18h16.31.043,Simcolourproject_2stim_asymm_v5,2020.2.10,Win32,60,60e52e7cfedb1dae636df45f,,,,,,,,,3767,67,25,1,0,0,response1disk,,6,13,5,1,0,0,rectangle,13,5,1,0,0,13,5,1,0,0,0,154,154,3,1,,,,,,,,
,,,,,,,,,,,,,FF,,,,,,,,1.4029,,,,,,,,,,,,,,,,,,,,,,601cded3e354de6a40b60637,60e5625602e03dde9cdc163c,2021-07-07_18h16.31.043,Simcolourproject_2stim_asymm_v5,2020.2.10,Win32,60,60e52e7cfedb1dae636df45f,,,,,,,,,1686,-42,-88,1,0,0,response5disk,,3,-13,-2,1,0,0,rectangle,-13,-2,1,0,0,-13,-2,1,0,0,0,155,155,41,1,,,,,,,,
,,,,,,,,,,,,,FF,,,,,,,,0.8096,,,,,,,,,,,,,,,,,,,,,,601cded3e354de6a40b60637,60e5625602e03dde9cdc163c,2021-07-07_18h16.31.043,Simcolourproject_2stim_asymm_v5,2020.2.10,Win32,60,60e52e7cfedb1dae636df45f,,,,,,,,,1248,-46,21,1,0,0,response7disk,,1,-4,-15,1,0,0,rectangle,-4,-15,1,0,0,-4,-15,1,0,0,0,156,156,88,1,,,,,,,,
,,,,,,,,,,,,,FF,,,,,,,,0.7778,,,,,,,,,,,,,,,,,,,,,,601cded3e354de6a40b60637,60e5625602e03dde9cdc163c,2021-07-07_18h16.31.043,Simcolourproject_2stim_asymm_v5,2020.2.10,Win32,60,60e52e7cfedb1dae636df45f,,,,,,,,,3028,45,-20,1,0,0,response3disk,,5,0,-1,1,0,0,rectangle,0,-1,1,0,0,0,-1,1,0,0,0,157,157,66,1,,,,,,,,
,,,,,,,,,,,,,FF,,,,,,,,1.7224,,,,,,,,,,,,,,,,,,,,,,601cded3e354de6a40b60637,60e5625602e03dde9cdc163c,2021-07-07_18h16.31.043,Simcolourproject_2stim_asymm_v5,2020.2.10,Win32,60,60e52e7cfedb1dae636df45f,,,,,,,,,3021,29,-73,1,0,0,response3disk,,4,-16,0,1,0,0,rectangle,-16,0,1,0,0,-16,0,1,0,0,0,158,158,76,1,,,,,,,,
,,,,,,,,,,,,,FF,,,,,,,,0.7674,,,,,,,,,,,,,,,,,,,,,,601cded3e354de6a40b60637,60e5625602e03dde9cdc163c,2021-07-07_18h16.31.043,Simcolourproject_2stim_asymm_v5,2020.2.10,Win32,60,60e52e7cfedb1dae636df45f,,,,,,,,,1335,56,41,1,0,0,response1disk,,6,9,13,1,0,0,rectangle,9,13,1,0,0,9,13,1,0,0,0,159,159,67,1,,,,,,,,
,,,,,,,,,,,,,FF,,,,,,,,1.1876,,,,,,,,,,,,,,,,,,,,,,601cded3e354de6a40b60637,60e5625602e03dde9cdc163c,2021-07-07_18h16.31.043,Simcolourproject_2stim_asymm_v5,2020.2.10,Win32,60,60e52e7cfedb1dae636df45f,,,,,,,,,2827,40,31,1,0,0,response1disk,,6,-3,9,1,0,0,rectangle,-3,9,1,0,0,-3,9,1,0,0,1,0,160,154,1,,,,,,,,
,,,,,,,,,,,,,FF,,,,,,,,1.4861,,,,,,,,,,,,,,,,,,,,,,601cded3e354de6a40b60637,60e5625602e03dde9cdc163c,2021-07-07_18h16.31.043,Simcolourproject_2stim_asymm_v5,2020.2.10,Win32,60,60e52e7cfedb1dae636df45f,,,,,,,,,1937,45,-30,1,0,0,response3disk,,5,2,-10,1,0,0,rectangle,2,-10,1,0,0,2,-10,1,0,0,1,1,161,132,1,,,,,,,,
,,,,,,,,,,,,,FF,,,,,,,,0.8267,,,,,,,,,,,,,,,,,,,,,,601cded3e354de6a40b60637,60e5625602e03dde9cdc163c,2021-07-07_18h16.31.043,Simcolourproject_2stim_asymm_v5,2020.2.10,Win32,60,60e52e7cfedb1dae636df45f,,,,,,,,,315,85,-32,1,0,0,response3disk,,5,11,0,1,0,0,rectangle,21,-73,1,0,0,-2,0,1,0,0,1,2,162,91,1,,response3disk_3,TRUE,4,4,"[57,147,95,289,116,27,243,244,84,218,234,169,86,143,113,53,269,182,163,266]",1.8575,rectangle
,,,,,,,,,,,,,FF,,,,,,,,1.1874,,,,,,,,,,,,,,,,,,,,,,601cded3e354de6a40b60637,60e5625602e03dde9cdc163c,2021-07-07_18h16.31.043,Simcolourproject_2stim_asymm_v5,2020.2.10,Win32,60,60e52e7cfedb1dae636df45f,,,,,,,,,3751,-65,-40,1,0,0,response5disk,,2,-27,0,1,0,0,rectangle,-27,0,1,0,0,-27,0,1,0,0,1,3,163,136,1,,,,,,,,
,,,,,,,,,,,,,FF,,,,,,,,0.9653,,,,,,,,,,,,,,,,,,,,,,601cded3e354de6a40b60637,60e5625602e03dde9cdc163c,2021-07-07_18h16.31.043,Simcolourproject_2stim_asymm_v5,2020.2.10,Win32,60,60e52e7cfedb1dae636df45f,,,,,,,,,26,35,-60,1,0,0,response3disk,,4,2,-8,1,0,0,rectangle,2,-8,1,0,0,2,-8,1,0,0,1,4,164,157,1,,,,,,,,
,,,,,,,,,,,,,FF,,,,,,,,0.9308,,,,,,,,,,,,,,,,,,,,,,601cded3e354de6a40b60637,60e5625602e03dde9cdc163c,2021-07-07_18h16.31.043,Simcolourproject_2stim_asymm_v5,2020.2.10,Win32,60,60e52e7cfedb1dae636df45f,,,,,,,,,237,58,-46,1,0,0,response3disk,,5,-1,7,1,0,0,rectangle,-1,7,1,0,0,-1,7,1,0,0,1,5,165,115,1,,,,,,,,
,,,,,,,,,,,,,FF,,,,,,,,1.1081,,,,,,,,,,,,,,,,,,,,,,601cded3e354de6a40b60637,60e5625602e03dde9cdc163c,2021-07-07_18h16.31.043,Simcolourproject_2stim_asymm_v5,2020.2.10,Win32,60,60e52e7cfedb1dae636df45f,,,,,,,,,181,28,-43,1,0,0,response3disk,,4,8,-3,1,0,0,rectangle,8,-3,1,0,0,8,-3,1,0,0,1,6,166,36,1,,,,,,,,
,,,,,,,,,,,,,FF,,,,,,,,0.6947,,,,,,,,,,,,,,,,,,,,,,601cded3e354de6a40b60637,60e5625602e03dde9cdc163c,2021-07-07_18h16.31.043,Simcolourproject_2stim_asymm_v5,2020.2.10,Win32,60,60e52e7cfedb1dae636df45f,,,,,,,,,3763,63,21,1,0,0,response1disk,,6,1,4,1,0,0,rectangle,1,4,1,0,0,1,4,1,0,0,1,7,167,120,1,,,,,,,,
,,,,,,,,,,,,,FF,,,,,,,,1.0347,,,,,,,,,,,,,,,,,,,,,,601cded3e354de6a40b60637,60e5625602e03dde9cdc163c,2021-07-07_18h16.31.043,Simcolourproject_2stim_asymm_v5,2020.2.10,Win32,60,60e52e7cfedb1dae636df45f,,,,,,,,,2177,-38,-49,1,0,0,response5disk,,3,-2,6,1,0,0,rectangle,-18,-74,1,0,0,-2,-9,1,0,0,1,8,168,152,1,,response5disk_3,TRUE,3,3,"[57,147,95,289,116,27,243,244,84,218,234,169,86,143,113,53,269,182,163,266]",1.7916,rectangle
,,,,,,,,,,,,,FF,,,,,,,,1.1666,,,,,,,,,,,,,,,,,,,,,,601cded3e354de6a40b60637,60e5625602e03dde9cdc163c,2021-07-07_18h16.31.043,Simcolourproject_2stim_asymm_v5,2020.2.10,Win32,60,60e52e7cfedb1dae636df45f,,,,,,,,,1762,-75,-24,1,0,0,response5disk,,2,-31,-11,1,0,0,rectangle,-31,-11,1,0,0,-31,-11,1,0,0,1,9,169,137,1,,,,,,,,
,,,,,,,,,,,,,FF,,,,,,,,0.7815,,,,,,,,,,,,,,,,,,,,,,601cded3e354de6a40b60637,60e5625602e03dde9cdc163c,2021-07-07_18h16.31.043,Simcolourproject_2stim_asymm_v5,2020.2.10,Win32,60,60e52e7cfedb1dae636df45f,,,,,,,,,1498,22,-53,1,0,0,response3disk,,4,12,-4,1,0,0,rectangle,12,-4,1,0,0,12,-4,1,0,0,1,10,170,114,1,,,,,,,,
,,,,,,,,,,,,,FF,,,,,,,,1.0003,,,,,,,,,,,,,,,,,,,,,,601cded3e354de6a40b60637,60e5625602e03dde9cdc163c,2021-07-07_18h16.31.043,Simcolourproject_2stim_asymm_v5,2020.2.10,Win32,60,60e52e7cfedb1dae636df45f,,,,,,,,,1864,61,47,1,0,0,response1disk,,6,22,13,1,0,0,rectangle,22,13,1,0,0,22,13,1,0,0,1,11,171,80,1,,,,,,,,
,,,,,,,,,,,,,FF,,,,,,,,0.8962,,,,,,,,,,,,,,,,,,,,,,601cded3e354de6a40b60637,60e5625602e03dde9cdc163c,2021-07-07_18h16.31.043,Simcolourproject_2stim_asymm_v5,2020.2.10,Win32,60,60e52e7cfedb1dae636df45f,,,,,,,,,620,-44,60,1,0,0,response7disk,,0,-10,5,1,0,0,rectangle,-10,5,1,0,0,-10,5,1,0,0,1,12,172,103,1,,,,,,,,
,,,,,,,,,,,,,FF,,,,,,,,1.3159,,,,,,,,,,,,,,,,,,,,,,601cded3e354de6a40b60637,60e5625602e03dde9cdc163c,2021-07-07_18h16.31.043,Simcolourproject_2stim_asymm_v5,2020.2.10,Win32,60,60e52e7cfedb1dae636df45f,,,,,,,,,1404,27,-51,1,0,0,response3disk,,4,-1,-8,1,0,0,rectangle,-1,-8,1,0,0,-1,-8,1,0,0,1,13,173,54,1,,,,,,,,
,,,,,,,,,,,,,FF,,,,,,,,3.3161,,,,,,,,,,,,,,,,,,,,,,601cded3e354de6a40b60637,60e5625602e03dde9cdc163c,2021-07-07_18h16.31.043,Simcolourproject_2stim_asymm_v5,2020.2.10,Win32,60,60e52e7cfedb1dae636df45f,,,,,,,,,4234,59,-22,1,0,0,response3disk,,5,25,-5,1,0,0,rectangle,25,-5,1,0,0,25,-5,1,0,0,1,14,174,30,1,,,,,,,,
,,,,,,,,,,,,,FF,,,,,,,,4.893,,,,,,,,,,,,,,,,,,,,,,601cded3e354de6a40b60637,60e5625602e03dde9cdc163c,2021-07-07_18h16.31.043,Simcolourproject_2stim_asymm_v5,2020.2.10,Win32,60,60e52e7cfedb1dae636df45f,,,,,,,,,491,-39,-92,1,0,0,response5disk,,3,-28,-4,1,0,0,rectangle,-28,-4,1,0,0,-28,-4,1,0,0,1,15,175,63,1,,,,,,,,
,,,,,,,,,,,,,FF,,,,,,,,0.9481,,,,,,,,,,,,,,,,,,,,,,601cded3e354de6a40b60637,60e5625602e03dde9cdc163c,2021-07-07_18h16.31.043,Simcolourproject_2stim_asymm_v5,2020.2.10,Win32,60,60e52e7cfedb1dae636df45f,,,,,,,,,1515,50,-53,1,0,0,response3disk,,4,18,6,1,0,0,rectangle,18,6,1,0,0,18,6,1,0,0,1,16,176,73,1,,,,,,,,
,,,,,,,,,,,,,FF,,,,,,,,0.9167,,,,,,,,,,,,,,,,,,,,,,601cded3e354de6a40b60637,60e5625602e03dde9cdc163c,2021-07-07_18h16.31.043,Simcolourproject_2stim_asymm_v5,2020.2.10,Win32,60,60e52e7cfedb1dae636df45f,,,,,,,,,3120,-38,-63,1,0,0,response5disk,,3,-3,10,1,0,0,rectangle,-3,10,1,0,0,-3,10,1,0,0,1,17,177,33,1,,,,,,,,
,,,,,,,,,,,,,FF,,,,,,,,1.2778,,,,,,,,,,,,,,,,,,,,,,601cded3e354de6a40b60637,60e5625602e03dde9cdc163c,2021-07-07_18h16.31.043,Simcolourproject_2stim_asymm_v5,2020.2.10,Win32,60,60e52e7cfedb1dae636df45f,,,,,,,,,4345,97,-58,1,0,0,response3disk,,5,4,-5,1,0,0,rectangle,4,-5,1,0,0,4,-5,1,0,0,1,18,178,59,1,,,,,,,,
,,,,,,,,,,,,,FF,,,,,,,,2.0134,,,,,,,,,,,,,,,,,,,,,,601cded3e354de6a40b60637,60e5625602e03dde9cdc163c,2021-07-07_18h16.31.043,Simcolourproject_2stim_asymm_v5,2020.2.10,Win32,60,60e52e7cfedb1dae636df45f,,,,,,,,,1868,35,-76,1,0,0,response3disk,,4,-7,3,1,0,0,rectangle,-7,3,1,0,0,-7,3,1,0,0,1,19,179,76,1,,,,,,,,
,,,,,,,,,,,,,FF,,,,,,,,5.7155,,,,,,,,,,,,,,,,,,,,,,601cded3e354de6a40b60637,60e5625602e03dde9cdc163c,2021-07-07_18h16.31.043,Simcolourproject_2stim_asymm_v5,2020.2.10,Win32,60,60e52e7cfedb1dae636df45f,,,,,,,,,1407,43,-17,1,0,0,response3disk,,5,-8,3,1,0,0,rectangle,-8,3,1,0,0,-8,3,1,0,0,1,20,180,74,1,,,,,,,,
,,,,,,,,,,,,,FF,,,,,,,,1.3892,,,,,,,,,,,,,,,,,,,,,,601cded3e354de6a40b60637,60e5625602e03dde9cdc163c,2021-07-07_18h16.31.043,Simcolourproject_2stim_asymm_v5,2020.2.10,Win32,60,60e52e7cfedb1dae636df45f,,,,,,,,,4087,-88,-25,1,0,0,response5disk,,2,4,12,1,0,0,rectangle,55,22,1,0,0,7,-2,1,0,0,1,21,181,111,1,,response1disk_3,TRUE,6,7,"[57,147,95,289,116,27,243,244,84,218,234,169,86,143,113,53,269,182,163,266]",9.1985,rectangle
,,,,,,,,,,,,,FF,,,,,,,,1.3959,,,,,,,,,,,,,,,,,,,,,,601cded3e354de6a40b60637,60e5625602e03dde9cdc163c,2021-07-07_18h16.31.043,Simcolourproject_2stim_asymm_v5,2020.2.10,Win32,60,60e52e7cfedb1dae636df45f,,,,,,,,,1146,-42,-60,1,0,0,response5disk,,3,4,11,1,0,0,rectangle,4,11,1,0,0,4,11,1,0,0,1,22,182,62,1,,,,,,,,
,,,,,,,,,,,,,FF,,,,,,,,0.9238,,,,,,,,,,,,,,,,,,,,,,601cded3e354de6a40b60637,60e5625602e03dde9cdc163c,2021-07-07_18h16.31.043,Simcolourproject_2stim_asymm_v5,2020.2.10,Win32,60,60e52e7cfedb1dae636df45f,,,,,,,,,4212,30,-34,1,0,0,response3disk,,4,0,0,1,0,0,rectangle,0,0,1,0,0,0,0,1,0,0,1,23,183,155,1,,,,,,,,
,,,,,,,,,,,,,FF,,,,,,,,1.0316,,,,,,,,,,,,,,,,,,,,,,601cded3e354de6a40b60637,60e5625602e03dde9cdc163c,2021-07-07_18h16.31.043,Simcolourproject_2stim_asymm_v5,2020.2.10,Win32,60,60e52e7cfedb1dae636df45f,,,,,,,,,2031,63,26,1,0,0,response1disk,,6,20,0,1,0,0,rectangle,20,0,1,0,0,20,0,1,0,0,1,24,184,124,1,,,,,,,,
,,,,,,,,,,,,,FF,,,,,,,,1.8646,,,,,,,,,,,,,,,,,,,,,,601cded3e354de6a40b60637,60e5625602e03dde9cdc163c,2021-07-07_18h16.31.043,Simcolourproject_2stim_asymm_v5,2020.2.10,Win32,60,60e52e7cfedb1dae636df45f,,,,,,,,,4199,84,60,1,0,0,response1disk,,6,1,9,1,0,0,rectangle,1,9,1,0,0,1,9,1,0,0,1,25,185,104,1,,,,,,,,
,,,,,,,,,,,,,FF,,,,,,,,0.75,,,,,,,,,,,,,,,,,,,,,,601cded3e354de6a40b60637,60e5625602e03dde9cdc163c,2021-07-07_18h16.31.043,Simcolourproject_2stim_asymm_v5,2020.2.10,Win32,60,60e52e7cfedb1dae636df45f,,,,,,,,,3524,-49,41,1,0,0,response7disk,,1,5,10,1,0,0,rectangle,5,10,1,0,0,5,10,1,0,0,1,26,186,22,1,,,,,,,,
,,,,,,,,,,,,,FF,,,,,,,,2.2735,,,,,,,,,,,,,,,,,,,,,,601cded3e354de6a40b60637,60e5625602e03dde9cdc163c,2021-07-07_18h16.31.043,Simcolourproject_2stim_asymm_v5,2020.2.10,Win32,60,60e52e7cfedb1dae636df45f,,,,,,,,,1985,-24,64,1,0,0,response7disk,,0,1,2,1,0,0,rectangle,1,2,1,0,0,1,2,1,0,0,1,27,187,159,1,,,,,,,,
,,,,,,,,,,,,,FF,,,,,,,,1.1737,,,,,,,,,,,,,,,,,,,,,,601cded3e354de6a40b60637,60e5625602e03dde9cdc163c,2021-07-07_18h16.31.043,Simcolourproject_2stim_asymm_v5,2020.2.10,Win32,60,60e52e7cfedb1dae636df45f,,,,,,,,,1499,69,48,1,0,0,response1disk,,6,15,2,1,0,0,rectangle,15,2,1,0,0,15,2,1,0,0,1,28,188,0,1,,,,,,,,
,,,,,,,,,,,,,FF,,,,,,,,0.8195,,,,,,,,,,,,,,,,,,,,,,601cded3e354de6a40b60637,60e5625602e03dde9cdc163c,2021-07-07_18h16.31.043,Simcolourproject_2stim_asymm_v5,2020.2.10,Win32,60,60e52e7cfedb1dae636df45f,,,,,,,,,1227,-50,27,1,0,0,response7disk,,1,5,-11,1,0,0,rectangle,5,-11,1,0,0,5,-11,1,0,0,1,29,189,75,1,,,,,,,,
,,,,,,,,,,,,,FF,,,,,,,,0.7918,,,,,,,,,,,,,,,,,,,,,,601cded3e354de6a40b60637,60e5625602e03dde9cdc163c,2021-07-07_18h16.31.043,Simcolourproject_2stim_asymm_v5,2020.2.10,Win32,60,60e52e7cfedb1dae636df45f,,,,,,,,,3491,-29,-34,1,0,0,response5disk,,3,6,-9,1,0,0,rectangle,6,-9,1,0,0,6,-9,1,0,0,1,30,190,21,1,,,,,,,,
,,,,,,,,,,,,,FF,,,,,,,,0.9097,,,,,,,,,,,,,,,,,,,,,,601cded3e354de6a40b60637,60e5625602e03dde9cdc163c,2021-07-07_18h16.31.043,Simcolourproject_2stim_asymm_v5,2020.2.10,Win32,60,60e52e7cfedb1dae636df45f,,,,,,,,,2941,-17,85,1,0,0,response7disk,,0,-1,14,1,0,0,rectangle,-1,14,1,0,0,-1,14,1,0,0,1,31,191,158,1,,,,,,,,
,,,,,,,,,,,,,FF,,,,,,,,0.976,,,,,,,,,,,,,,,,,,,,,,601cded3e354de6a40b60637,60e5625602e03dde9cdc163c,2021-07-07_18h16.31.043,Simcolourproject_2stim_asymm_v5,2020.2.10,Win32,60,60e52e7cfedb1dae636df45f,,,,,,,,,4360,-35,54,1,0,0,response7disk,,0,-13,9,1,0,0,rectangle,-13,9,1,0,0,-13,9,1,0,0,1,32,192,100,1,,,,,,,,
,,,,,,,,,,,,,FF,,,,,,,,1.1111,,,,,,,,,,,,,,,,,,,,,,601cded3e354de6a40b60637,60e5625602e03dde9cdc163c,2021-07-07_18h16.31.043,Simcolourproject_2stim_asymm_v5,2020.2.10,Win32,60,60e52e7cfedb1dae636df45f,,,,,,,,,3292,-59,26,1,0,0,response7disk,,1,-22,-7,1,0,0,rectangle,-22,-7,1,0,0,-22,-7,1,0,0,1,33,193,46,1,,,,,,,,
,,,,,,,,,,,,,FF,,,,,,,,1.0902,,,,,,,,,,,,,,,,,,,,,,601cded3e354de6a40b60637,60e5625602e03dde9cdc163c,2021-07-07_18h16.31.043,Simcolourproject_2stim_asymm_v5,2020.2.10,Win32,60,60e52e7cfedb1dae636df45f,,,,,,,,,3259,-46,-20,1,0,0,response5disk,,2,-23,-5,1,0,0,rectangle,-23,-5,1,0,0,-23,-5,1,0,0,1,34,194,135,1,,,,,,,,
,,,,,,,,,,,,,FF,,,,,,,,0.9444,,,,,,,,,,,,,,,,,,,,,,601cded3e354de6a40b60637,60e5625602e03dde9cdc163c,2021-07-07_18h16.31.043,Simcolourproject_2stim_asymm_v5,2020.2.10,Win32,60,60e52e7cfedb1dae636df45f,,,,,,,,,2752,-23,-63,1,0,0,response5disk,,3,-2,-3,1,0,0,rectangle,-2,-3,1,0,0,-2,-3,1,0,0,1,35,195,97,1,,,,,,,,
,,,,,,,,,,,,,FF,,,,,,,,1.1806,,,,,,,,,,,,,,,,,,,,,,601cded3e354de6a40b60637,60e5625602e03dde9cdc163c,2021-07-07_18h16.31.043,Simcolourproject_2stim_asymm_v5,2020.2.10,Win32,60,60e52e7cfedb1dae636df45f,,,,,,,,,2183,-40,-37,1,0,0,response5disk,,2,8,9,1,0,0,rectangle,8,9,1,0,0,8,9,1,0,0,1,36,196,58,1,,,,,,,,
,,,,,,,,,,,,,FF,,,,,,,,1.0526,,,,,,,,,,,,,,,,,,,,,,601cded3e354de6a40b60637,60e5625602e03dde9cdc163c,2021-07-07_18h16.31.043,Simcolourproject_2stim_asymm_v5,2020.2.10,Win32,60,60e52e7cfedb1dae636df45f,,,,,,,,,1220,-44,75,1,0,0,response7disk,,0,-17,13,1,0,0,rectangle,-17,13,1,0,0,-17,13,1,0,0,1,37,197,56,1,,,,,,,,
,,,,,,,,,,,,,FF,,,,,,,,1.7084,,,,,,,,,,,,,,,,,,,,,,601cded3e354de6a40b60637,60e5625602e03dde9cdc163c,2021-07-07_18h16.31.043,Simcolourproject_2stim_asymm_v5,2020.2.10,Win32,60,60e52e7cfedb1dae636df45f,,,,,,,,,797,34,-39,1,0,0,response3disk,,4,14,-7,1,0,0,rectangle,14,-7,1,0,0,14,-7,1,0,0,1,38,198,20,1,,,,,,,,
,,,,,,,,,,,,,FF,,,,,,,,2.3891,,,,,,,,,,,,,,,,,,,,,,601cded3e354de6a40b60637,60e5625602e03dde9cdc163c,2021-07-07_18h16.31.043,Simcolourproject_2stim_asymm_v5,2020.2.10,Win32,60,60e52e7cfedb1dae636df45f,,,,,,,,,1072,-37,-61,1,0,0,response5disk,,3,-13,4,1,0,0,rectangle,-13,4,1,0,0,-13,4,1,0,0,1,39,199,129,1,,,,,,,,
,,,,,,,,,,,,,FF,,,,,,,,1.0417,,,,,,,,,,,,,,,,,,,,,,601cded3e354de6a40b60637,60e5625602e03dde9cdc163c,2021-07-07_18h16.31.043,Simcolourproject_2stim_asymm_v5,2020.2.10,Win32,60,60e52e7cfedb1dae636df45f,,,,,,,,,4143,-35,-72,1,0,0,response5disk,,3,0,10,1,0,0,rectangle,0,10,1,0,0,0,10,1,0,0,1,40,200,2,1,,,,,,,,
,,,,,,,,,,,,,FF,,,,,,,,1.1945,,,,,,,,,,,,,,,,,,,,,,601cded3e354de6a40b60637,60e5625602e03dde9cdc163c,2021-07-07_18h16.31.043,Simcolourproject_2stim_asymm_v5,2020.2.10,Win32,60,60e52e7cfedb1dae636df45f,,,,,,,,,4193,-50,-33,1,0,0,response5disk,,2,-11,2,1,0,0,rectangle,-11,2,1,0,0,-11,2,1,0,0,1,41,201,35,1,,,,,,,,
,,,,,,,,,,,,,FF,,,,,,,,0.7709,,,,,,,,,,,,,,,,,,,,,,601cded3e354de6a40b60637,60e5625602e03dde9cdc163c,2021-07-07_18h16.31.043,Simcolourproject_2stim_asymm_v5,2020.2.10,Win32,60,60e52e7cfedb1dae636df45f,,,,,,,,,3649,23,-40,1,0,0,response3disk,,4,1,-3,1,0,0,rectangle,1,-3,1,0,0,1,-3,1,0,0,1,42,202,150,1,,,,,,,,
,,,,,,,,,,,,,FF,,,,,,,,0.9722,,,,,,,,,,,,,,,,,,,,,,601cded3e354de6a40b60637,60e5625602e03dde9cdc163c,2021-07-07_18h16.31.043,Simcolourproject_2stim_asymm_v5,2020.2.10,Win32,60,60e52e7cfedb1dae636df45f,,,,,,,,,1388,-30,-52,1,0,0,response5disk,,3,-21,3,1,0,0,rectangle,-21,3,1,0,0,-21,3,1,0,0,1,43,203,121,1,,,,,,,,
,,,,,,,,,,,,,FF,,,,,,,,1.1597,,,,,,,,,,,,,,,,,,,,,,601cded3e354de6a40b60637,60e5625602e03dde9cdc163c,2021-07-07_18h16.31.043,Simcolourproject_2stim_asymm_v5,2020.2.10,Win32,60,60e52e7cfedb1dae636df45f,,,,,,,,,1470,-54,-30,1,0,0,response5disk,,2,-6,5,1,0,0,rectangle,-6,5,1,0,0,-6,5,1,0,0,1,44,204,117,1,,,,,,,,
,,,,,,,,,,,,,FF,,,,,,,,1.4445,,,,,,,,,,,,,,,,,,,,,,601cded3e354de6a40b60637,60e5625602e03dde9cdc163c,2021-07-07_18h16.31.043,Simcolourproject_2stim_asymm_v5,2020.2.10,Win32,60,60e52e7cfedb1dae636df45f,,,,,,,,,1291,-35,-18,1,0,0,response5disk,,2,-7,0,1,0,0,rectangle,-7,0,1,0,0,-7,0,1,0,0,1,45,205,142,1,,,,,,,,
,,,,,,,,,,,,,FF,,,,,,,,1.0833,,,,,,,,,,,,,,,,,,,,,,601cded3e354de6a40b60637,60e5625602e03dde9cdc163c,2021-07-07_18h16.31.043,Simcolourproject_2stim_asymm_v5,2020.2.10,Win32,60,60e52e7cfedb1dae636df45f,,,,,,,,,4064,-52,-32,1,0,0,response5disk,,2,-11,-2,1,0,0,rectangle,-11,-2,1,0,0,-11,-2,1,0,0,1,46,206,105,1,,,,,,,,
,,,,,,,,,,,,,FF,,,,,,,,0.7397,,,,,,,,,,,,,,,,,,,,,,601cded3e354de6a40b60637,60e5625602e03dde9cdc163c,2021-07-07_18h16.31.043,Simcolourproject_2stim_asymm_v5,2020.2.10,Win32,60,60e52e7cfedb1dae636df45f,,,,,,,,,926,23,-47,1,0,0,response3disk,,4,-3,-9,1,0,0,rectangle,-3,-9,1,0,0,-3,-9,1,0,0,1,47,207,86,1,,,,,,,,
,,,,,,,,,,,,,FF,,,,,,,,0.9308,,,,,,,,,,,,,,,,,,,,,,601cded3e354de6a40b60637,60e5625602e03dde9cdc163c,2021-07-07_18h16.31.043,Simcolourproject_2stim_asymm_v5,2020.2.10,Win32,60,60e52e7cfedb1dae636df45f,,,,,,,,,1378,-76,27,1,0,0,response7disk,,1,11,9,1,0,0,rectangle,11,9,1,0,0,11,9,1,0,0,1,48,208,101,1,,,,,,,,
,,,,,,,,,,,,,FF,,,,,,,,0.8057,,,,,,,,,,,,,,,,,,,,,,601cded3e354de6a40b60637,60e5625602e03dde9cdc163c,2021-07-07_18h16.31.043,Simcolourproject_2stim_asymm_v5,2020.2.10,Win32,60,60e52e7cfedb1dae636df45f,,,,,,,,,956,-33,22,1,0,0,response7disk,,1,0,13,1,0,0,rectangle,0,13,1,0,0,0,13,1,0,0,1,49,209,1,1,,,,,,,,
,,,,,,,,,,,,,FF,,,,,,,,0.8056,,,,,,,,,,,,,,,,,,,,,,601cded3e354de6a40b60637,60e5625602e03dde9cdc163c,2021-07-07_18h16.31.043,Simcolourproject_2stim_asymm_v5,2020.2.10,Win32,60,60e52e7cfedb1dae636df45f,,,,,,,,,2220,-49,27,1,0,0,response7disk,,1,-2,6,1,0,0,rectangle,-2,6,1,0,0,-2,6,1,0,0,1,50,210,17,1,,,,,,,,
,,,,,,,,,,,,,FF,,,,,,,,0.6807,,,,,,,,,,,,,,,,,,,,,,601cded3e354de6a40b60637,60e5625602e03dde9cdc163c,2021-07-07_18h16.31.043,Simcolourproject_2stim_asymm_v5,2020.2.10,Win32,60,60e52e7cfedb1dae636df45f,,,,,,,,,1508,32,41,1,0,0,response1disk,,7,5,10,1,0,0,rectangle,5,10,1,0,0,5,10,1,0,0,1,51,211,81,1,,,,,,,,
,,,,,,,,,,,,,FF,,,,,,,,0.7573,,,,,,,,,,,,,,,,,,,,,,601cded3e354de6a40b60637,60e5625602e03dde9cdc163c,2021-07-07_18h16.31.043,Simcolourproject_2stim_asymm_v5,2020.2.10,Win32,60,60e52e7cfedb1dae636df45f,,,,,,,,,1997,19,45,1,0,0,response1disk,,7,-3,0,1,0,0,rectangle,-3,0,1,0,0,-3,0,1,0,0,1,52,212,34,1,,,,,,,,
,,,,,,,,,,,,,FF,,,,,,,,0.7708,,,,,,,,,,,,,,,,,,,,,,601cded3e354de6a40b60637,60e5625602e03dde9cdc163c,2021-07-07_18h16.31.043,Simcolourproject_2stim_asymm_v5,2020.2.10,Win32,60,60e52e7cfedb1dae636df45f,,,,,,,,,2876,27,45,1,0,0,response1disk,,7,-3,7,1,0,0,rectangle,-3,7,1,0,0,-3,7,1,0,0,1,53,213,47,1,,,,,,,,
,,,,,,,,,,,,,FF,,,,,,,,0.6598,,,,,,,,,,,,,,,,,,,,,,601cded3e354de6a40b60637,60e5625602e03dde9cdc163c,2021-07-07_18h16.31.043,Simcolourproject_2stim_asymm_v5,2020.2.10,Win32,60,60e52e7cfedb1dae636df45f,,,,,,,,,38,41,65,1,0,0,response1disk,,7,0,3,1,0,0,rectangle,0,3,1,0,0,0,3,1,0,0,1,54,214,145,1,,,,,,,,
,,,,,,,,,,,,,FF,,,,,,,,0.8126,,,,,,,,,,,,,,,,,,,,,,601cded3e354de6a40b60637,60e5625602e03dde9cdc163c,2021-07-07_18h16.31.043,Simcolourproject_2stim_asymm_v5,2020.2.10,Win32,60,60e52e7cfedb1dae636df45f,,,,,,,,,2946,-59,42,1,0,0,response7disk,,1,15,-10,1,0,0,rectangle,15,-10,1,0,0,15,-10,1,0,0,1,55,215,95,1,,,,,,,,
,,,,,,,,,,,,,FF,,,,,,,,1.2709,,,,,,,,,,,,,,,,,,,,,,601cded3e354de6a40b60637,60e5625602e03dde9cdc163c,2021-07-07_18h16.31.043,Simcolourproject_2stim_asymm_v5,2020.2.10,Win32,60,60e52e7cfedb1dae636df45f,,,,,,,,,30,57,-19,1,0,0,response3disk,,5,15,-1,1,0,0,rectangle,15,-1,1,0,0,15,-1,1,0,0,1,56,216,118,1,,,,,,,,
,,,,,,,,,,,,,FF,,,,,,,,0.9274,,,,,,,,,,,,,,,,,,,,,,601cded3e354de6a40b60637,60e5625602e03dde9cdc163c,2021-07-07_18h16.31.043,Simcolourproject_2stim_asymm_v5,2020.2.10,Win32,60,60e52e7cfedb1dae636df45f,,,,,,,,,1411,47,-20,1,0,0,response3disk,,5,-15,10,1,0,0,rectangle,-30,-55,1,0,0,-9,3,1,0,0,1,57,217,99,1,,response5disk_3,TRUE,3,3,"[57,147,95,289,116,27,243,244,84,218,234,169,86,143,113,53,269,182,163,266]",1.5139,rectangle
,,,,,,,,,,,,,FF,,,,,,,,0.8606,,,,,,,,,,,,,,,,,,,,,,601cded3e354de6a40b60637,60e5625602e03dde9cdc163c,2021-07-07_18h16.31.043,Simcolourproject_2stim_asymm_v5,2020.2.10,Win32,60,60e52e7cfedb1dae636df45f,,,,,,,,,1102,44,-25,1,0,0,response3disk,,5,-8,-1,1,0,0,rectangle,-8,-1,1,0,0,-8,-1,1,0,0,1,58,218,37,1,,,,,,,,
,,,,,,,,,,,,,FF,,,,,,,,0.7014,,,,,,,,,,,,,,,,,,,,,,601cded3e354de6a40b60637,60e5625602e03dde9cdc163c,2021-07-07_18h16.31.043,Simcolourproject_2stim_asymm_v5,2020.2.10,Win32,60,60e52e7cfedb1dae636df45f,,,,,,,,,668,43,-26,1,0,0,response3disk,,5,5,-7,1,0,0,rectangle,5,-7,1,0,0,5,-7,1,0,0,1,59,219,148,1,,,,,,,,
,,,,,,,,,,,,,FF,,,,,,,,0.9374,,,,,,,,,,,,,,,,,,,,,,601cded3e354de6a40b60637,60e5625602e03dde9cdc163c,2021-07-07_18h16.31.043,Simcolourproject_2stim_asymm_v5,2020.2.10,Win32,60,60e52e7cfedb1dae636df45f,,,,,,,,,693,-74,-40,1,0,0,response5disk,,2,-10,-5,1,0,0,rectangle,-10,-5,1,0,0,-10,-5,1,0,0,1,60,220,45,1,,,,,,,,
,,,,,,,,,,,,,FF,,,,,,,,0.7328,,,,,,,,,,,,,,,,,,,,,,601cded3e354de6a40b60637,60e5625602e03dde9cdc163c,2021-07-07_18h16.31.043,Simcolourproject_2stim_asymm_v5,2020.2.10,Win32,60,60e52e7cfedb1dae636df45f,,,,,,,,,892,-42,-19,1,0,0,response5disk,,2,9,6,1,0,0,rectangle,9,6,1,0,0,9,6,1,0,0,1,61,221,55,1,,,,,,,,
,,,,,,,,,,,,,FF,,,,,,,,0.9306,,,,,,,,,,,,,,,,,,,,,,601cded3e354de6a40b60637,60e5625602e03dde9cdc163c,2021-07-07_18h16.31.043,Simcolourproject_2stim_asymm_v5,2020.2.10,Win32,60,60e52e7cfedb1dae636df45f,,,,,,,,,1595,26,-32,1,0,0,response3disk,,4,1,7,1,0,0,rectangle,1,7,1,0,0,1,7,1,0,0,1,62,222,61,1,,,,,,,,
,,,,,,,,,,,,,FF,,,,,,,,0.7292,,,,,,,,,,,,,,,,,,,,,,601cded3e354de6a40b60637,60e5625602e03dde9cdc163c,2021-07-07_18h16.31.043,Simcolourproject_2stim_asymm_v5,2020.2.10,Win32,60,60e52e7cfedb1dae636df45f,,,,,,,,,187,-45,-17,1,0,0,response5disk,,2,-10,-4,1,0,0,rectangle,-10,-4,1,0,0,-10,-4,1,0,0,1,63,223,125,1,,,,,,,,
,,,,,,,,,,,,,FF,,,,,,,,0.9031,,,,,,,,,,,,,,,,,,,,,,601cded3e354de6a40b60637,60e5625602e03dde9cdc163c,2021-07-07_18h16.31.043,Simcolourproject_2stim_asymm_v5,2020.2.10,Win32,60,60e52e7cfedb1dae636df45f,,,,,,,,,3059,-49,24,1,0,0,response7disk,,1,-1,2,1,0,0,rectangle,-1,2,1,0,0,-1,2,1,0,0,1,64,224,119,1,,,,,,,,
,,,,,,,,,,,,,FF,,,,,,,,0.5903,,,,,,,,,,,,,,,,,,,,,,601cded3e354de6a40b60637,60e5625602e03dde9cdc163c,2021-07-07_18h16.31.043,Simcolourproject_2stim_asymm_v5,2020.2.10,Win32,60,60e52e7cfedb1dae636df45f,,,,,,,,,3835,98,74,1,0,0,response1disk,,6,7,-4,1,0,0,rectangle,7,-4,1,0,0,7,-4,1,0,0,1,65,225,10,1,,,,,,,,
,,,,,,,,,,,,,FF,,,,,,,,2.6501,,,,,,,,,,,,,,,,,,,,,,601cded3e354de6a40b60637,60e5625602e03dde9cdc163c,2021-07-07_18h16.31.043,Simcolourproject_2stim_asymm_v5,2020.2.10,Win32,60,60e52e7cfedb1dae636df45f,,,,,,,,,3286,-24,-54,1,0,0,response5disk,,3,-13,-12,1,0,0,rectangle,-13,-12,1,0,0,-13,-12,1,0,0,1,66,226,53,1,,,,,,,,
,,,,,,,,,,,,,FF,,,,,,,,1.132,,,,,,,,,,,,,,,,,,,,,,601cded3e354de6a40b60637,60e5625602e03dde9cdc163c,2021-07-07_18h16.31.043,Simcolourproject_2stim_asymm_v5,2020.2.10,Win32,60,60e52e7cfedb1dae636df45f,,,,,,,,,1720,27,-51,1,0,0,response3disk,,4,8,-1,1,0,0,rectangle,8,-1,1,0,0,8,-1,1,0,0,1,67,227,140,1,,,,,,,,
,,,,,,,,,,,,,FF,,,,,,,,0.6876,,,,,,,,,,,,,,,,,,,,,,601cded3e354de6a40b60637,60e5625602e03dde9cdc163c,2021-07-07_18h16.31.043,Simcolourproject_2stim_asymm_v5,2020.2.10,Win32,60,60e52e7cfedb1dae636df45f,,,,,,,,,2450,51,38,1,0,0,response1disk,,6,-2,-1,1,0,0,rectangle,-2,-1,1,0,0,-2,-1,1,0,0,1,68,228,69,1,,,,,,,,
,,,,,,,,,,,,,FF,,,,,,,,0.7256,,,,,,,,,,,,,,,,,,,,,,601cded3e354de6a40b60637,60e5625602e03dde9cdc163c,2021-07-07_18h16.31.043,Simcolourproject_2stim_asymm_v5,2020.2.10,Win32,60,60e52e7cfedb1dae636df45f,,,,,,,,,3664,33,76,1,0,0,response1disk,,7,0,9,1,0,0,rectangle,0,9,1,0,0,0,9,1,0,0,1,69,229,92,1,,,,,,,,
,,,,,,,,,,,,,FF,,,,,,,,0.9135,,,,,,,,,,,,,,,,,,,,,,601cded3e354de6a40b60637,60e5625602e03dde9cdc163c,2021-07-07_18h16.31.043,Simcolourproject_2stim_asymm_v5,2020.2.10,Win32,60,60e52e7cfedb1dae636df45f,,,,,,,,,1221,-60,22,1,0,0,response7disk,,1,16,4,1,0,0,rectangle,16,4,1,0,0,16,4,1,0,0,1,70,230,79,1,,,,,,,,
,,,,,,,,,,,,,FF,,,,,,,,0.8543,,,,,,,,,,,,,,,,,,,,,,601cded3e354de6a40b60637,60e5625602e03dde9cdc163c,2021-07-07_18h16.31.043,Simcolourproject_2stim_asymm_v5,2020.2.10,Win32,60,60e52e7cfedb1dae636df45f,,,,,,,,,3904,81,63,1,0,0,response1disk,,6,5,-9,1,0,0,rectangle,5,-9,1,0,0,5,-9,1,0,0,1,71,231,134,1,,,,,,,,
,,,,,,,,,,,,,FF,,,,,,,,1.1807,,,,,,,,,,,,,,,,,,,,,,601cded3e354de6a40b60637,60e5625602e03dde9cdc163c,2021-07-07_18h16.31.043,Simcolourproject_2stim_asymm_v5,2020.2.10,Win32,60,60e52e7cfedb1dae636df45f,,,,,,,,,1739,-38,-20,1,0,0,response5disk,,2,-13,0,1,0,0,rectangle,-13,0,1,0,0,-13,0,1,0,0,1,72,232,107,1,,,,,,,,
,,,,,,,,,,,,,FF,,,,,,,,0.898,,,,,,,,,,,,,,,,,,,,,,601cded3e354de6a40b60637,60e5625602e03dde9cdc163c,2021-07-07_18h16.31.043,Simcolourproject_2stim_asymm_v5,2020.2.10,Win32,60,60e52e7cfedb1dae636df45f,,,,,,,,,2096,-38,-22,1,0,0,response5disk,,2,-18,-10,1,0,0,rectangle,-74,-116,1,0,0,-13,3,1,0,0,1,73,233,77,1,,response5disk_3,TRUE,3,3,"[57,147,95,289,116,27,243,244,84,218,234,169,86,143,113,53,269,182,163,266]",1.3819,rectangle
,,,,,,,,,,,,,FF,,,,,,,,1.7293,,,,,,,,,,,,,,,,,,,,,,601cded3e354de6a40b60637,60e5625602e03dde9cdc163c,2021-07-07_18h16.31.043,Simcolourproject_2stim_asymm_v5,2020.2.10,Win32,60,60e52e7cfedb1dae636df45f,,,,,,,,,1395,42,-47,1,0,0,response3disk,,4,9,-1,1,0,0,rectangle,9,-1,1,0,0,9,-1,1,0,0,1,74,234,102,1,,,,,,,,
,,,,,,,,,,,,,FF,,,,,,,,0.8514,,,,,,,,,,,,,,,,,,,,,,601cded3e354de6a40b60637,60e5625602e03dde9cdc163c,2021-07-07_18h16.31.043,Simcolourproject_2stim_asymm_v5,2020.2.10,Win32,60,60e52e7cfedb1dae636df45f,,,,,,,,,2666,-29,-55,1,0,0,response5disk,,3,-2,2,1,0,0,rectangle,-2,2,1,0,0,-2,2,1,0,0,1,75,235,153,1,,,,,,,,
,,,,,,,,,,,,,FF,,,,,,,,2.0002,,,,,,,,,,,,,,,,,,,,,,601cded3e354de6a40b60637,60e5625602e03dde9cdc163c,2021-07-07_18h16.31.043,Simcolourproject_2stim_asymm_v5,2020.2.10,Win32,60,60e52e7cfedb1dae636df45f,,,,,,,,,4138,28,-41,1,0,0,response3disk,,4,12,-4,1,0,0,rectangle,12,-4,1,0,0,12,-4,1,0,0,1,76,236,3,1,,,,,,,,
,,,,,,,,,,,,,FF,,,,,,,,1.2292,,,,,,,,,,,,,,,,,,,,,,601cded3e354de6a40b60637,60e5625602e03dde9cdc163c,2021-07-07_18h16.31.043,Simcolourproject_2stim_asymm_v5,2020.2.10,Win32,60,60e52e7cfedb1dae636df45f,,,,,,,,,730,-45,-55,1,0,0,response5disk,,3,-16,3,1,0,0,rectangle,-16,3,1,0,0,-16,3,1,0,0,1,77,237,67,1,,,,,,,,
,,,,,,,,,,,,,FF,,,,,,,,0.8751,,,,,,,,,,,,,,,,,,,,,,601cded3e354de6a40b60637,60e5625602e03dde9cdc163c,2021-07-07_18h16.31.043,Simcolourproject_2stim_asymm_v5,2020.2.10,Win32,60,60e52e7cfedb1dae636df45f,,,,,,,,,3807,56,-24,1,0,0,response3disk,,5,19,-1,1,0,0,rectangle,19,-1,1,0,0,19,-1,1,0,0,1,78,238,141,1,,,,,,,,
,,,,,,,,,,,,,FF,,,,,,,,0.8681,,,,,,,,,,,,,,,,,,,,,,601cded3e354de6a40b60637,60e5625602e03dde9cdc163c,2021-07-07_18h16.31.043,Simcolourproject_2stim_asymm_v5,2020.2.10,Win32,60,60e52e7cfedb1dae636df45f,,,,,,,,,154,37,-44,1,0,0,response3disk,,4,8,-2,1,0,0,rectangle,8,-2,1,0,0,8,-2,1,0,0,1,79,239,24,1,,,,,,,,
,,,,,,,,,,,,,FF,,,,,,,,0.8018,,,,,,,,,,,,,,,,,,,,,,601cded3e354de6a40b60637,60e5625602e03dde9cdc163c,2021-07-07_18h16.31.043,Simcolourproject_2stim_asymm_v5,2020.2.10,Win32,60,60e52e7cfedb1dae636df45f,,,,,,,,,1961,-30,-41,1,0,0,response5disk,,3,-14,-11,1,0,0,rectangle,-14,-11,1,0,0,-14,-11,1,0,0,1,80,240,43,1,,,,,,,,
,,,,,,,,,,,,,FF,,,,,,,,0.691,,,,,,,,,,,,,,,,,,,,,,601cded3e354de6a40b60637,60e5625602e03dde9cdc163c,2021-07-07_18h16.31.043,Simcolourproject_2stim_asymm_v5,2020.2.10,Win32,60,60e52e7cfedb1dae636df45f,,,,,,,,,1193,48,-19,1,0,0,response3disk,,5,-2,11,1,0,0,rectangle,-2,11,1,0,0,-2,11,1,0,0,1,81,241,90,1,,,,,,,,
,,,,,,,,,,,,,FF,,,,,,,,0.8472,,,,,,,,,,,,,,,,,,,,,,601cded3e354de6a40b60637,60e5625602e03dde9cdc163c,2021-07-07_18h16.31.043,Simcolourproject_2stim_asymm_v5,2020.2.10,Win32,60,60e52e7cfedb1dae636df45f,,,,,,,,,2378,-18,-27,1,0,0,response5disk,,3,-9,0,1,0,0,rectangle,70,-68,1,0,0,7,-4,1,0,0,1,82,242,127,1,,response3disk_3,TRUE,5,5,"[57,147,95,289,116,27,243,244,84,218,234,169,86,143,113,53,269,182,163,266]",1.4514,rectangle
,,,,,,,,,,,,,FF,,,,,,,,1.4098,,,,,,,,,,,,,,,,,,,,,,601cded3e354de6a40b60637,60e5625602e03dde9cdc163c,2021-07-07_18h16.31.043,Simcolourproject_2stim_asymm_v5,2020.2.10,Win32,60,60e52e7cfedb1dae636df45f,,,,,,,,,2905,84,26,1,0,0,response1disk,,6,19,4,1,0,0,rectangle,26,84,1,0,0,0,6,1,0,0,1,83,243,78,1,,response1disk_3,TRUE,7,7,"[57,147,95,289,116,27,243,244,84,218,234,169,86,143,113,53,269,182,163,266]",2.389,rectangle
,,,,,,,,,,,,,FF,,,,,,,,0.8924,,,,,,,,,,,,,,,,,,,,,,601cded3e354de6a40b60637,60e5625602e03dde9cdc163c,2021-07-07_18h16.31.043,Simcolourproject_2stim_asymm_v5,2020.2.10,Win32,60,60e52e7cfedb1dae636df45f,,,,,,,,,3395,-53,-30,1,0,0,response5disk,,2,-18,-12,1,0,0,rectangle,-18,-12,1,0,0,-18,-12,1,0,0,1,84,244,94,1,,,,,,,,
,,,,,,,,,,,,,FF,,,,,,,,1.2919,,,,,,,,,,,,,,,,,,,,,,601cded3e354de6a40b60637,60e5625602e03dde9cdc163c,2021-07-07_18h16.31.043,Simcolourproject_2stim_asymm_v5,2020.2.10,Win32,60,60e52e7cfedb1dae636df45f,,,,,,,,,712,-46,-22,1,0,0,response5disk,,2,-16,-1,1,0,0,rectangle,-16,-1,1,0,0,-16,-1,1,0,0,1,85,245,65,1,,,,,,,,
,,,,,,,,,,,,,FF,,,,,,,,1.3613,,,,,,,,,,,,,,,,,,,,,,601cded3e354de6a40b60637,60e5625602e03dde9cdc163c,2021-07-07_18h16.31.043,Simcolourproject_2stim_asymm_v5,2020.2.10,Win32,60,60e52e7cfedb1dae636df45f,,,,,,,,,3802,72,36,1,0,0,response1disk,,6,25,5,1,0,0,rectangle,25,5,1,0,0,25,5,1,0,0,1,86,246,106,1,,,,,,,,
,,,,,,,,,,,,,FF,,,,,,,,1.1705,,,,,,,,,,,,,,,,,,,,,,601cded3e354de6a40b60637,60e5625602e03dde9cdc163c,2021-07-07_18h16.31.043,Simcolourproject_2stim_asymm_v5,2020.2.10,Win32,60,60e52e7cfedb1dae636df45f,,,,,,,,,1630,-46,-17,1,0,0,response5disk,,2,-21,-5,1,0,0,rectangle,-21,-5,1,0,0,-21,-5,1,0,0,1,87,247,15,1,,,,,,,,
,,,,,,,,,,,,,FF,,,,,,,,1.1806,,,,,,,,,,,,,,,,,,,,,,601cded3e354de6a40b60637,60e5625602e03dde9cdc163c,2021-07-07_18h16.31.043,Simcolourproject_2stim_asymm_v5,2020.2.10,Win32,60,60e52e7cfedb1dae636df45f,,,,,,,,,3203,-33,68,1,0,0,response7disk,,0,-22,11,1,0,0,rectangle,-22,11,1,0,0,-22,11,1,0,0,1,88,248,147,1,,,,,,,,
,,,,,,,,,,,,,FF,,,,,,,,0.9025,,,,,,,,,,,,,,,,,,,,,,601cded3e354de6a40b60637,60e5625602e03dde9cdc163c,2021-07-07_18h16.31.043,Simcolourproject_2stim_asymm_v5,2020.2.10,Win32,60,60e52e7cfedb1dae636df45f,,,,,,,,,1040,-38,32,1,0,0,response7disk,,1,-1,-1,1,0,0,rectangle,-1,-1,1,0,0,-1,-1,1,0,0,1,89,249,26,1,,,,,,,,
,,,,,,,,,,,,,FF,,,,,,,,0.8958,,,,,,,,,,,,,,,,,,,,,,601cded3e354de6a40b60637,60e5625602e03dde9cdc163c,2021-07-07_18h16.31.043,Simcolourproject_2stim_asymm_v5,2020.2.10,Win32,60,60e52e7cfedb1dae636df45f,,,,,,,,,1299,-45,31,1,0,0,response7disk,,1,-22,12,1,0,0,rectangle,-22,12,1,0,0,-22,12,1,0,0,1,90,250,23,1,,,,,,,,
,,,,,,,,,,,,,FF,,,,,,,,0.8264,,,,,,,,,,,,,,,,,,,,,,601cded3e354de6a40b60637,60e5625602e03dde9cdc163c,2021-07-07_18h16.31.043,Simcolourproject_2stim_asymm_v5,2020.2.10,Win32,60,60e52e7cfedb1dae636df45f,,,,,,,,,3038,-51,38,1,0,0,response7disk,,1,-21,11,1,0,0,rectangle,-21,11,1,0,0,-21,11,1,0,0,1,91,251,110,1,,,,,,,,
,,,,,,,,,,,,,FF,,,,,,,,1.1321,,,,,,,,,,,,,,,,,,,,,,601cded3e354de6a40b60637,60e5625602e03dde9cdc163c,2021-07-07_18h16.31.043,Simcolourproject_2stim_asymm_v5,2020.2.10,Win32,60,60e52e7cfedb1dae636df45f,,,,,,,,,3215,-64,-48,1,0,0,response5disk,,2,-18,-3,1,0,0,rectangle,-18,-3,1,0,0,-18,-3,1,0,0,1,92,252,49,1,,,,,,,,
,,,,,,,,,,,,,FF,,,,,,,,0.8127,,,,,,,,,,,,,,,,,,,,,,601cded3e354de6a40b60637,60e5625602e03dde9cdc163c,2021-07-07_18h16.31.043,Simcolourproject_2stim_asymm_v5,2020.2.10,Win32,60,60e52e7cfedb1dae636df45f,,,,,,,,,3514,-71,-46,1,0,0,response5disk,,2,-20,-1,1,0,0,rectangle,-20,-1,1,0,0,-20,-1,1,0,0,1,93,253,52,1,,,,,,,,
,,,,,,,,,,,,,FF,,,,,,,,0.8682,,,,,,,,,,,,,,,,,,,,,,601cded3e354de6a40b60637,60e5625602e03dde9cdc163c,2021-07-07_18h16.31.043,Simcolourproject_2stim_asymm_v5,2020.2.10,Win32,60,60e52e7cfedb1dae636df45f,,,,,,,,,108,-30,-17,1,0,0,response5disk,,2,6,-4,1,0,0,rectangle,6,-4,1,0,0,6,-4,1,0,0,1,94,254,112,1,,,,,,,,
,,,,,,,,,,,,,FF,,,,,,,,0.9755,,,,,,,,,,,,,,,,,,,,,,601cded3e354de6a40b60637,60e5625602e03dde9cdc163c,2021-07-07_18h16.31.043,Simcolourproject_2stim_asymm_v5,2020.2.10,Win32,60,60e52e7cfedb1dae636df45f,,,,,,,,,3437,-40,19,1,0,0,response7disk,,1,-9,11,1,0,0,rectangle,-9,11,1,0,0,-9,11,1,0,0,1,95,255,130,1,,,,,,,,
,,,,,,,,,,,,,FF,,,,,,,,1.278,,,,,,,,,,,,,,,,,,,,,,601cded3e354de6a40b60637,60e5625602e03dde9cdc163c,2021-07-07_18h16.31.043,Simcolourproject_2stim_asymm_v5,2020.2.10,Win32,60,60e52e7cfedb1dae636df45f,,,,,,,,,921,65,-24,1,0,0,response3disk,,5,-25,12,1,0,0,rectangle,-25,12,1,0,0,-25,12,1,0,0,1,96,256,28,1,,,,,,,,
,,,,,,,,,,,,,FF,,,,,,,,0.9762,,,,,,,,,,,,,,,,,,,,,,601cded3e354de6a40b60637,60e5625602e03dde9cdc163c,2021-07-07_18h16.31.043,Simcolourproject_2stim_asymm_v5,2020.2.10,Win32,60,60e52e7cfedb1dae636df45f,,,,,,,,,1340,-27,-38,1,0,0,response5disk,,3,-21,-11,1,0,0,rectangle,-21,-11,1,0,0,-21,-11,1,0,0,1,97,257,5,1,,,,,,,,
,,,,,,,,,,,,,FF,,,,,,,,1.1077,,,,,,,,,,,,,,,,,,,,,,601cded3e354de6a40b60637,60e5625602e03dde9cdc163c,2021-07-07_18h16.31.043,Simcolourproject_2stim_asymm_v5,2020.2.10,Win32,60,60e52e7cfedb1dae636df45f,,,,,,,,,74,-31,-34,1,0,0,response5disk,,3,-14,3,1,0,0,rectangle,-14,3,1,0,0,-14,3,1,0,0,1,98,258,133,1,,,,,,,,
,,,,,,,,,,,,,FF,,,,,,,,1.2571,,,,,,,,,,,,,,,,,,,,,,601cded3e354de6a40b60637,60e5625602e03dde9cdc163c,2021-07-07_18h16.31.043,Simcolourproject_2stim_asymm_v5,2020.2.10,Win32,60,60e52e7cfedb1dae636df45f,,,,,,,,,2909,-20,-43,1,0,0,response5disk,,3,-8,3,1,0,0,rectangle,-8,3,1,0,0,-8,3,1,0,0,1,99,259,19,1,,,,,,,,
,,,,,,,,,,,,,FF,,,,,,,,0.9443,,,,,,,,,,,,,,,,,,,,,,601cded3e354de6a40b60637,60e5625602e03dde9cdc163c,2021-07-07_18h16.31.043,Simcolourproject_2stim_asymm_v5,2020.2.10,Win32,60,60e52e7cfedb1dae636df45f,,,,,,,,,2568,16,-43,1,0,0,response3disk,,4,-2,5,1,0,0,rectangle,-2,5,1,0,0,-2,5,1,0,0,1,100,260,84,1,,,,,,,,
,,,,,,,,,,,,,FF,,,,,,,,1.0486,,,,,,,,,,,,,,,,,,,,,,601cded3e354de6a40b60637,60e5625602e03dde9cdc163c,2021-07-07_18h16.31.043,Simcolourproject_2stim_asymm_v5,2020.2.10,Win32,60,60e52e7cfedb1dae636df45f,,,,,,,,,890,-89,-37,1,0,0,response5disk,,2,-9,-2,1,0,0,rectangle,-9,-2,1,0,0,-9,-2,1,0,0,1,101,261,38,1,,,,,,,,
,,,,,,,,,,,,,FF,,,,,,,,1.0868,,,,,,,,,,,,,,,,,,,,,,601cded3e354de6a40b60637,60e5625602e03dde9cdc163c,2021-07-07_18h16.31.043,Simcolourproject_2stim_asymm_v5,2020.2.10,Win32,60,60e52e7cfedb1dae636df45f,,,,,,,,,2893,-54,24,1,0,0,response7disk,,1,-18,9,1,0,0,rectangle,-18,9,1,0,0,-18,9,1,0,0,1,102,262,128,1,,,,,,,,
,,,,,,,,,,,,,FF,,,,,,,,0.7011,,,,,,,,,,,,,,,,,,,,,,601cded3e354de6a40b60637,60e5625602e03dde9cdc163c,2021-07-07_18h16.31.043,Simcolourproject_2stim_asymm_v5,2020.2.10,Win32,60,60e52e7cfedb1dae636df45f,,,,,,,,,2904,47,38,1,0,0,response1disk,,6,0,12,1,0,0,rectangle,0,12,1,0,0,0,12,1,0,0,1,103,263,57,1,,,,,,,,
,,,,,,,,,,,,,FF,,,,,,,,1.1458,,,,,,,,,,,,,,,,,,,,,,601cded3e354de6a40b60637,60e5625602e03dde9cdc163c,2021-07-07_18h16.31.043,Simcolourproject_2stim_asymm_v5,2020.2.10,Win32,60,60e52e7cfedb1dae636df45f,,,,,,,,,1570,-20,-18,1,0,0,response5disk,,2,-10,-1,1,0,0,rectangle,-10,-1,1,0,0,-10,-1,1,0,0,1,104,264,149,1,,,,,,,,
,,,,,,,,,,,,,FF,,,,,,,,0.9307,,,,,,,,,,,,,,,,,,,,,,601cded3e354de6a40b60637,60e5625602e03dde9cdc163c,2021-07-07_18h16.31.043,Simcolourproject_2stim_asymm_v5,2020.2.10,Win32,60,60e52e7cfedb1dae636df45f,,,,,,,,,3786,-22,-16,1,0,0,response5disk,,2,4,3,1,0,0,rectangle,-59,70,1,0,0,1,-4,1,0,0,1,105,265,60,1,,response7disk_3,TRUE,0,0,"[57,147,95,289,116,27,243,244,84,218,234,169,86,143,113,53,269,182,163,266]",1.8684,rectangle
,,,,,,,,,,,,,FF,,,,,,,,0.8923,,,,,,,,,,,,,,,,,,,,,,601cded3e354de6a40b60637,60e5625602e03dde9cdc163c,2021-07-07_18h16.31.043,Simcolourproject_2stim_asymm_v5,2020.2.10,Win32,60,60e52e7cfedb1dae636df45f,,,,,,,,,630,-28,74,1,0,0,response7disk,,0,-8,9,1,0,0,rectangle,-8,9,1,0,0,-8,9,1,0,0,1,106,266,156,1,,,,,,,,
,,,,,,,,,,,,,FF,,,,,,,,0.8057,,,,,,,,,,,,,,,,,,,,,,601cded3e354de6a40b60637,60e5625602e03dde9cdc163c,2021-07-07_18h16.31.043,Simcolourproject_2stim_asymm_v5,2020.2.10,Win32,60,60e52e7cfedb1dae636df45f,,,,,,,,,97,-36,27,1,0,0,response7disk,,1,-7,0,1,0,0,rectangle,-7,0,1,0,0,-7,0,1,0,0,1,107,267,44,1,,,,,,,,
,,,,,,,,,,,,,FF,,,,,,,,1.3334,,,,,,,,,,,,,,,,,,,,,,601cded3e354de6a40b60637,60e5625602e03dde9cdc163c,2021-07-07_18h16.31.043,Simcolourproject_2stim_asymm_v5,2020.2.10,Win32,60,60e52e7cfedb1dae636df45f,,,,,,,,,2869,36,-26,1,0,0,response3disk,,5,16,-8,1,0,0,rectangle,-36,69,1,0,0,-8,9,1,0,0,1,108,268,109,1,,response7disk_3,TRUE,0,0,"[57,147,95,289,116,27,243,244,84,218,234,169,86,143,113,53,269,182,163,266]",1.5417,rectangle
,,,,,,,,,,,,,FF,,,,,,,,0.9862,,,,,,,,,,,,,,,,,,,,,,601cded3e354de6a40b60637,60e5625602e03dde9cdc163c,2021-07-07_18h16.31.043,Simcolourproject_2stim_asymm_v5,2020.2.10,Win32,60,60e52e7cfedb1dae636df45f,,,,,,,,,2502,44,-16,1,0,0,response3disk,,5,14,-11,1,0,0,rectangle,14,-11,1,0,0,14,-11,1,0,0,1,109,269,143,1,,,,,,,,
,,,,,,,,,,,,,FF,,,,,,,,0.8195,,,,,,,,,,,,,,,,,,,,,,601cded3e354de6a40b60637,60e5625602e03dde9cdc163c,2021-07-07_18h16.31.043,Simcolourproject_2stim_asymm_v5,2020.2.10,Win32,60,60e52e7cfedb1dae636df45f,,,,,,,,,2233,-33,60,1,0,0,response7disk,,0,-1,-11,1,0,0,rectangle,-1,-11,1,0,0,-1,-11,1,0,0,1,110,270,82,1,,,,,,,,
,,,,,,,,,,,,,FF,,,,,,,,1.0589,,,,,,,,,,,,,,,,,,,,,,601cded3e354de6a40b60637,60e5625602e03dde9cdc163c,2021-07-07_18h16.31.043,Simcolourproject_2stim_asymm_v5,2020.2.10,Win32,60,60e52e7cfedb1dae636df45f,,,,,,,,,334,83,20,1,0,0,response1disk,,6,22,5,1,0,0,rectangle,22,5,1,0,0,22,5,1,0,0,1,111,271,146,1,,,,,,,,
,,,,,,,,,,,,,FF,,,,,,,,0.8334,,,,,,,,,,,,,,,,,,,,,,601cded3e354de6a40b60637,60e5625602e03dde9cdc163c,2021-07-07_18h16.31.043,Simcolourproject_2stim_asymm_v5,2020.2.10,Win32,60,60e52e7cfedb1dae636df45f,,,,,,,,,1893,-23,58,1,0,0,response7disk,,0,-3,-1,1,0,0,rectangle,-3,-1,1,0,0,-3,-1,1,0,0,1,112,272,113,1,,,,,,,,
,,,,,,,,,,,,,FF,,,,,,,,1.0279,,,,,,,,,,,,,,,,,,,,,,601cded3e354de6a40b60637,60e5625602e03dde9cdc163c,2021-07-07_18h16.31.043,Simcolourproject_2stim_asymm_v5,2020.2.10,Win32,60,60e52e7cfedb1dae636df45f,,,,,,,,,996,-36,26,1,0,0,response7disk,,1,-14,11,1,0,0,rectangle,-14,11,1,0,0,-14,11,1,0,0,1,113,273,48,1,,,,,,,,
,,,,,,,,,,,,,FF,,,,,,,,0.7709,,,,,,,,,,,,,,,,,,,,,,601cded3e354de6a40b60637,60e5625602e03dde9cdc163c,2021-07-07_18h16.31.043,Simcolourproject_2stim_asymm_v5,2020.2.10,Win32,60,60e52e7cfedb1dae636df45f,,,,,,,,,1719,44,24,1,0,0,response1disk,,6,7,7,1,0,0,rectangle,7,7,1,0,0,7,7,1,0,0,1,114,274,29,1,,,,,,,,
,,,,,,,,,,,,,FF,,,,,,,,0.8274,,,,,,,,,,,,,,,,,,,,,,601cded3e354de6a40b60637,60e5625602e03dde9cdc163c,2021-07-07_18h16.31.043,Simcolourproject_2stim_asymm_v5,2020.2.10,Win32,60,60e52e7cfedb1dae636df45f,,,,,,,,,4295,-28,53,1,0,0,response7disk,,0,7,3,1,0,0,rectangle,7,3,1,0,0,7,3,1,0,0,1,115,275,9,1,,,,,,,,
,,,,,,,,,,,,,FF,,,,,,,,1.2115,,,,,,,,,,,,,,,,,,,,,,601cded3e354de6a40b60637,60e5625602e03dde9cdc163c,2021-07-07_18h16.31.043,Simcolourproject_2stim_asymm_v5,2020.2.10,Win32,60,60e52e7cfedb1dae636df45f,,,,,,,,,893,-30,60,1,0,0,response7disk,,0,-16,9,1,0,0,rectangle,-16,9,1,0,0,-16,9,1,0,0,1,116,276,40,1,,,,,,,,
,,,,,,,,,,,,,FF,,,,,,,,0.7916,,,,,,,,,,,,,,,,,,,,,,601cded3e354de6a40b60637,60e5625602e03dde9cdc163c,2021-07-07_18h16.31.043,Simcolourproject_2stim_asymm_v5,2020.2.10,Win32,60,60e52e7cfedb1dae636df45f,,,,,,,,,1101,34,28,1,0,0,response1disk,,6,8,5,1,0,0,rectangle,8,5,1,0,0,8,5,1,0,0,1,117,277,50,1,,,,,,,,
,,,,,,,,,,,,,FF,,,,,,,,0.8297,,,,,,,,,,,,,,,,,,,,,,601cded3e354de6a40b60637,60e5625602e03dde9cdc163c,2021-07-07_18h16.31.043,Simcolourproject_2stim_asymm_v5,2020.2.10,Win32,60,60e52e7cfedb1dae636df45f,,,,,,,,,2863,41,76,1,0,0,response1disk,,7,9,6,1,0,0,rectangle,9,6,1,0,0,9,6,1,0,0,1,118,278,131,1,,,,,,,,
,,,,,,,,,,,,,FF,,,,,,,,0.7609,,,,,,,,,,,,,,,,,,,,,,601cded3e354de6a40b60637,60e5625602e03dde9cdc163c,2021-07-07_18h16.31.043,Simcolourproject_2stim_asymm_v5,2020.2.10,Win32,60,60e52e7cfedb1dae636df45f,,,,,,,,,814,45,26,1,0,0,response1disk,,6,-10,-7,1,0,0,rectangle,-10,-7,1,0,0,-10,-7,1,0,0,1,119,279,6,1,,,,,,,,
,,,,,,,,,,,,,FF,,,,,,,,0.6599,,,,,,,,,,,,,,,,,,,,,,601cded3e354de6a40b60637,60e5625602e03dde9cdc163c,2021-07-07_18h16.31.043,Simcolourproject_2stim_asymm_v5,2020.2.10,Win32,60,60e52e7cfedb1dae636df45f,,,,,,,,,3381,-39,47,1,0,0,response7disk,,0,-9,-3,1,0,0,rectangle,-9,-3,1,0,0,-9,-3,1,0,0,1,120,280,64,1,,,,,,,,
,,,,,,,,,,,,,FF,,,,,,,,0.9716,,,,,,,,,,,,,,,,,,,,,,601cded3e354de6a40b60637,60e5625602e03dde9cdc163c,2021-07-07_18h16.31.043,Simcolourproject_2stim_asymm_v5,2020.2.10,Win32,60,60e52e7cfedb1dae636df45f,,,,,,,,,953,-52,21,1,0,0,response7disk,,1,-17,-4,1,0,0,rectangle,-17,-4,1,0,0,-17,-4,1,0,0,1,121,281,32,1,,,,,,,,
,,,,,,,,,,,,,FF,,,,,,,,0.875,,,,,,,,,,,,,,,,,,,,,,601cded3e354de6a40b60637,60e5625602e03dde9cdc163c,2021-07-07_18h16.31.043,Simcolourproject_2stim_asymm_v5,2020.2.10,Win32,60,60e52e7cfedb1dae636df45f,,,,,,,,,2727,-49,-15,1,0,0,response5disk,,2,-1,-1,1,0,0,rectangle,-1,-1,1,0,0,-1,-1,1,0,0,1,122,282,71,1,,,,,,,,
,,,,,,,,,,,,,FF,,,,,,,,1.0356,,,,,,,,,,,,,,,,,,,,,,601cded3e354de6a40b60637,60e5625602e03dde9cdc163c,2021-07-07_18h16.31.043,Simcolourproject_2stim_asymm_v5,2020.2.10,Win32,60,60e52e7cfedb1dae636df45f,,,,,,,,,2280,-21,-19,1,0,0,response5disk,,2,-13,-1,1,0,0,rectangle,-13,-1,1,0,0,-13,-1,1,0,0,1,123,283,68,1,,,,,,,,
,,,,,,,,,,,,,FF,,,,,,,,0.8963,,,,,,,,,,,,,,,,,,,,,,601cded3e354de6a40b60637,60e5625602e03dde9cdc163c,2021-07-07_18h16.31.043,Simcolourproject_2stim_asymm_v5,2020.2.10,Win32,60,60e52e7cfedb1dae636df45f,,,,,,,,,55,37,47,1,0,0,response1disk,,7,-6,6,1,0,0,rectangle,-6,6,1,0,0,-6,6,1,0,0,1,124,284,72,1,,,,,,,,
,,,,,,,,,,,,,FF,,,,,,,,0.875,,,,,,,,,,,,,,,,,,,,,,601cded3e354de6a40b60637,60e5625602e03dde9cdc163c,2021-07-07_18h16.31.043,Simcolourproject_2stim_asymm_v5,2020.2.10,Win32,60,60e52e7cfedb1dae636df45f,,,,,,,,,221,-49,26,1,0,0,response7disk,,1,-17,11,1,0,0,rectangle,-17,11,1,0,0,-17,11,1,0,0,1,125,285,7,1,,,,,,,,
,,,,,,,,,,,,,FF,,,,,,,,0.9108,,,,,,,,,,,,,,,,,,,,,,601cded3e354de6a40b60637,60e5625602e03dde9cdc163c,2021-07-07_18h16.31.043,Simcolourproject_2stim_asymm_v5,2020.2.10,Win32,60,60e52e7cfedb1dae636df45f,,,,,,,,,686,-52,36,1,0,0,response7disk,,1,-23,11,1,0,0,rectangle,-23,11,1,0,0,-23,11,1,0,0,1,126,286,138,1,,,,,,,,
,,,,,,,,,,,,,FF,,,,,,,,9.4171,,,,,,,,,,,,,,,,,,,,,,601cded3e354de6a40b60637,60e5625602e03dde9cdc163c,2021-07-07_18h16.31.043,Simcolourproject_2stim_asymm_v5,2020.2.10,Win32,60,60e52e7cfedb1dae636df45f,,,,,,,,,1200,23,64,1,0,0,response1disk,,7,9,4,1,0,0,rectangle,9,4,1,0,0,9,4,1,0,0,1,127,287,39,1,,,,,,,,
,,,,,,,,,,,,,FF,,,,,,,,0.8126,,,,,,,,,,,,,,,,,,,,,,601cded3e354de6a40b60637,60e5625602e03dde9cdc163c,2021-07-07_18h16.31.043,Simcolourproject_2stim_asymm_v5,2020.2.10,Win32,60,60e52e7cfedb1dae636df45f,,,,,,,,,1298,-36,62,1,0,0,response7disk,,0,-4,11,1,0,0,rectangle,63,-20,1,0,0,-4,-1,1,0,0,1,128,288,31,1,,response3disk_3,TRUE,5,5,"[57,147,95,289,116,27,243,244,84,218,234,169,86,143,113,53,269,182,163,266]",1.2291,rectangle
,,,,,,,,,,,,,FF,,,,,,,,2.7225,,,,,,,,,,,,,,,,,,,,,,601cded3e354de6a40b60637,60e5625602e03dde9cdc163c,2021-07-07_18h16.31.043,Simcolourproject_2stim_asymm_v5,2020.2.10,Win32,60,60e52e7cfedb1dae636df45f,,,,,,,,,3676,77,-38,1,0,0,response3disk,,5,-1,-3,1,0,0,rectangle,-1,-3,1,0,0,-1,-3,1,0,0,1,129,289,151,1,,,,,,,,
,,,,,,,,,,,,,FF,,,,,,,,1.1979,,,,,,,,,,,,,,,,,,,,,,601cded3e354de6a40b60637,60e5625602e03dde9cdc163c,2021-07-07_18h16.31.043,Simcolourproject_2stim_asymm_v5,2020.2.10,Win32,60,60e52e7cfedb1dae636df45f,,,,,,,,,1727,106,46,1,0,0,response1disk,,6,1,-11,1,0,0,rectangle,1,-11,1,0,0,1,-11,1,0,0,1,130,290,87,1,,,,,,,,
,,,,,,,,,,,,,FF,,,,,,,,1.004,,,,,,,,,,,,,,,,,,,,,,601cded3e354de6a40b60637,60e5625602e03dde9cdc163c,2021-07-07_18h16.31.043,Simcolourproject_2stim_asymm_v5,2020.2.10,Win32,60,60e52e7cfedb1dae636df45f,,,,,,,,,1172,54,51,1,0,0,response1disk,,6,0,2,1,0,0,rectangle,0,2,1,0,0,0,2,1,0,0,1,131,291,70,1,,,,,,,,
,,,,,,,,,,,,,FF,,,,,,,,1.5417,,,,,,,,,,,,,,,,,,,,,,601cded3e354de6a40b60637,60e5625602e03dde9cdc163c,2021-07-07_18h16.31.043,Simcolourproject_2stim_asymm_v5,2020.2.10,Win32,60,60e52e7cfedb1dae636df45f,,,,,,,,,2811,30,64,1,0,0,response1disk,,7,7,11,1,0,0,rectangle,7,11,1,0,0,7,11,1,0,0,1,132,292,13,1,,,,,,,,
,,,,,,,,,,,,,FF,,,,,,,,1.0452,,,,,,,,,,,,,,,,,,,,,,601cded3e354de6a40b60637,60e5625602e03dde9cdc163c,2021-07-07_18h16.31.043,Simcolourproject_2stim_asymm_v5,2020.2.10,Win32,60,60e52e7cfedb1dae636df45f,,,,,,,,,6,-78,-53,1,0,0,response5disk,,2,-7,-3,1,0,0,rectangle,-7,-3,1,0,0,-7,-3,1,0,0,1,133,293,122,1,,,,,,,,
,,,,,,,,,,,,,FF,,,,,,,,0.8967,,,,,,,,,,,,,,,,,,,,,,601cded3e354de6a40b60637,60e5625602e03dde9cdc163c,2021-07-07_18h16.31.043,Simcolourproject_2stim_asymm_v5,2020.2.10,Win32,60,60e52e7cfedb1dae636df45f,,,,,,,,,1418,49,-24,1,0,0,response3disk,,5,-13,6,1,0,0,rectangle,-13,6,1,0,0,-13,6,1,0,0,1,134,294,8,1,,,,,,,,
,,,,,,,,,,,,,FF,,,,,,,,0.7779,,,,,,,,,,,,,,,,,,,,,,601cded3e354de6a40b60637,60e5625602e03dde9cdc163c,2021-07-07_18h16.31.043,Simcolourproject_2stim_asymm_v5,2020.2.10,Win32,60,60e52e7cfedb1dae636df45f,,,,,,,,,950,43,-19,1,0,0,response3disk,,5,6,-3,1,0,0,rectangle,6,-3,1,0,0,6,-3,1,0,0,1,135,295,144,1,,,,,,,,
,,,,,,,,,,,,,FF,,,,,,,,0.8957,,,,,,,,,,,,,,,,,,,,,,601cded3e354de6a40b60637,60e5625602e03dde9cdc163c,2021-07-07_18h16.31.043,Simcolourproject_2stim_asymm_v5,2020.2.10,Win32,60,60e52e7cfedb1dae636df45f,,,,,,,,,3504,-32,-44,1,0,0,response5disk,,3,-15,-5,1,0,0,rectangle,-15,-5,1,0,0,-15,-5,1,0,0,1,136,296,85,1,,,,,,,,
,,,,,,,,,,,,,FF,,,,,,,,1.2464,,,,,,,,,,,,,,,,,,,,,,601cded3e354de6a40b60637,60e5625602e03dde9cdc163c,2021-07-07_18h16.31.043,Simcolourproject_2stim_asymm_v5,2020.2.10,Win32,60,60e52e7cfedb1dae636df45f,,,,,,,,,3184,48,-40,1,0,0,response3disk,,5,-1,-2,1,0,0,rectangle,-1,-2,1,0,0,-1,-2,1,0,0,1,137,297,126,1,,,,,,,,
,,,,,,,,,,,,,FF,,,,,,,,0.8958,,,,,,,,,,,,,,,,,,,,,,601cded3e354de6a40b60637,60e5625602e03dde9cdc163c,2021-07-07_18h16.31.043,Simcolourproject_2stim_asymm_v5,2020.2.10,Win32,60,60e52e7cfedb1dae636df45f,,,,,,,,,2540,65,41,1,0,0,response1disk,,6,6,7,1,0,0,rectangle,6,7,1,0,0,6,7,1,0,0,1,138,298,25,1,,,,,,,,
,,,,,,,,,,,,,FF,,,,,,,,0.684,,,,,,,,,,,,,,,,,,,,,,601cded3e354de6a40b60637,60e5625602e03dde9cdc163c,2021-07-07_18h16.31.043,Simcolourproject_2stim_asymm_v5,2020.2.10,Win32,60,60e52e7cfedb1dae636df45f,,,,,,,,,3356,40,22,1,0,0,response1disk,,6,-7,5,1,0,0,rectangle,-7,5,1,0,0,-7,5,1,0,0,1,139,299,139,1,,,,,,,,
,,,,,,,,,,,,,FF,,,,,,,,1.1807,,,,,,,,,,,,,,,,,,,,,,601cded3e354de6a40b60637,60e5625602e03dde9cdc163c,2021-07-07_18h16.31.043,Simcolourproject_2stim_asymm_v5,2020.2.10,Win32,60,60e52e7cfedb1dae636df45f,,,,,,,,,3982,-71,-23,1,0,0,response5disk,,2,-21,-9,1,0,0,rectangle,-21,-9,1,0,0,-21,-9,1,0,0,1,140,300,83,1,,,,,,,,
,,,,,,,,,,,,,FF,,,,,,,,2.9931,,,,,,,,,,,,,,,,,,,,,,601cded3e354de6a40b60637,60e5625602e03dde9cdc163c,2021-07-07_18h16.31.043,Simcolourproject_2stim_asymm_v5,2020.2.10,Win32,60,60e52e7cfedb1dae636df45f,,,,,,,,,1132,-35,-45,1,0,0,response5disk,,3,-10,14,1,0,0,rectangle,-10,14,1,0,0,-10,14,1,0,0,1,141,301,88,1,,,,,,,,
