key_resp.keys,key_resp.rt,key_resp_14.keys,key_resp_14.rt,key_resp_15.keys,key_resp_15.rt,key_resp_17.keys,key_resp_17.rt,key_resp_9.keys,key_resp_9.rt,key_resp_10.keys,key_resp_10.rt,practice_comparison,Ecc,mouse_5.x,mouse_5.y,mouse_5.leftButton,mouse_5.midButton,mouse_5.rightButton,mouse_5.clicked_name,pracsimilarity,response_time,mouse_10.x,mouse_10.y,mouse_10.leftButton,mouse_10.midButton,mouse_10.rightButton,mouse_10.clicked_name,mouse_7.x,mouse_7.y,mouse_7.leftButton,mouse_7.midButton,mouse_7.rightButton,mouse_6.x,mouse_6.y,mouse_6.leftButton,mouse_6.midButton,mouse_6.rightButton,duringprac.thisRepN,duringprac.thisTrialN,duringprac.thisN,duringprac.thisIndex,duringprac.ran,participant,session,date,expName,psychopyVersion,OS,frameRate,study_id,mouse_7.clicked_name,catchpracsimilarity,catch_response_time,catchnumberprac,catchtrialorderprac,mouse_6.clicked_name,key_resp_22.keys,key_resp_22.rt,realcomparison,mouse.x,mouse.y,mouse.leftButton,mouse.midButton,mouse.rightButton,mouse.clicked_name,Colour2,similarity,mouse_2.x,mouse_2.y,mouse_2.leftButton,mouse_2.midButton,mouse_2.rightButton,mouse_2.clicked_name,mouse_3.x,mouse_3.y,mouse_3.leftButton,mouse_3.midButton,mouse_3.rightButton,mouse_11.x,mouse_11.y,mouse_11.leftButton,mouse_11.midButton,mouse_11.rightButton,trials_2.thisRepN,trials_2.thisTrialN,trials_2.thisN,trials_2.thisIndex,trials_2.ran,Colour1,mouse_3.clicked_name,catchornah,catchsimilarity,catchnumber,catchtrialorder,catchRT,mouse_11.clicked_name
space,1.6887,space,6.0443,space,33.5387,space,4.8006,space,2.418,space,5.8381,89,PF,-43.99998921,82.39999479,1,0,0,response7disk_5,0,2.8042,-5.999988645,7.19999367,1,0,0,rectangle_8,-5.999988645,7.19999367,1,0,0,-5.999988645,7.19999367,1,0,0,0,0,0,4,1,605b29e2f13cbd20e9be8834,60e560d6be3c26a30d44d4c6,2021-07-07_10h17.03.405,Simcolourproject_2stim_asymm_v5,2020.2.10,Win32,60,60e52e7cfedb1dae636df45f,,,,,,,,,,,,,,,,,,,,,,,,,,,,,,,,,,,,,,,,,,,,,,
,,,,,,,,,,,,98,PF,-37.99998912,67.19997015,1,0,0,response7disk_5,0,0.9067,-7.199988663,6.399993658,1,0,0,rectangle_8,-38.79998913,-99.60005675,1,0,0,17.2000117,-7.600006551,1,0,0,0,1,1,6,1,605b29e2f13cbd20e9be8834,60e560d6be3c26a30d44d4c6,2021-07-07_10h17.03.405,Simcolourproject_2stim_asymm_v5,2020.2.10,Win32,60,60e52e7cfedb1dae636df45f,response5disk_7,3,4.7191,3,"[2,5]",rectangle_4,,,,,,,,,,,,,,,,,,,,,,,,,,,,,,,,,,,,,,,,
,,,,,,,,,,,,17,FF,-58.79998943,27.19996955,1,0,0,response7disk_5,1,4.368,1.200011462,-4.800006509,1,0,0,rectangle_8,1.200011462,-4.800006509,1,0,0,1.200011462,-4.800006509,1,0,0,0,2,2,0,1,605b29e2f13cbd20e9be8834,60e560d6be3c26a30d44d4c6,2021-07-07_10h17.03.405,Simcolourproject_2stim_asymm_v5,2020.2.10,Win32,60,60e52e7cfedb1dae636df45f,,,,,,,,,,,,,,,,,,,,,,,,,,,,,,,,,,,,,,,,,,,,,,
,,,,,,,,,,,,4,PF,-25.99998894,69.19997018,1,0,0,response7disk_5,0,1.0336,-3.999988616,-2.800006479,1,0,0,rectangle_8,-3.999988616,-2.800006479,1,0,0,-3.999988616,-2.800006479,1,0,0,0,3,3,1,1,605b29e2f13cbd20e9be8834,60e560d6be3c26a30d44d4c6,2021-07-07_10h17.03.405,Simcolourproject_2stim_asymm_v5,2020.2.10,Win32,60,60e52e7cfedb1dae636df45f,,,,,,,,,,,,,,,,,,,,,,,,,,,,,,,,,,,,,,,,,,,,,,
,,,,,,,,,,,,110,FF,-73.19998965,31.19996961,1,0,0,response7disk_5,1,1.5832,-13.99998876,15.19999379,1,0,0,rectangle_8,-40.79998916,-87.60005657,1,0,0,4.000011504,-1.600006461,1,0,0,0,4,4,5,1,605b29e2f13cbd20e9be8834,60e560d6be3c26a30d44d4c6,2021-07-07_10h17.03.405,Simcolourproject_2stim_asymm_v5,2020.2.10,Win32,60,60e52e7cfedb1dae636df45f,response5disk_7,3,2.1672,3,"[2,5]",rectangle_4,,,,,,,,,,,,,,,,,,,,,,,,,,,,,,,,,,,,,,,,
,,,,,,,,,,,,87,FF,-30.79998901,58.39999443,1,0,0,response7disk_5,0,1.2503,15.20001167,-10.8000066,1,0,0,rectangle_8,15.20001167,-10.8000066,1,0,0,15.20001167,-10.8000066,1,0,0,0,5,5,3,1,605b29e2f13cbd20e9be8834,60e560d6be3c26a30d44d4c6,2021-07-07_10h17.03.405,Simcolourproject_2stim_asymm_v5,2020.2.10,Win32,60,60e52e7cfedb1dae636df45f,,,,,,,,,,,,,,,,,,,,,,,,,,,,,,,,,,,,,,,,,,,,,,
,,,,,,,,,,,,72,PF,44.80001211,86.39999485,1,0,0,response1disk_5,7,5.2178,25.20001182,14.39999378,1,0,0,rectangle_8,25.20001182,14.39999378,1,0,0,25.20001182,14.39999378,1,0,0,0,6,6,2,1,605b29e2f13cbd20e9be8834,60e560d6be3c26a30d44d4c6,2021-07-07_10h17.03.405,Simcolourproject_2stim_asymm_v5,2020.2.10,Win32,60,60e52e7cfedb1dae636df45f,,,,,,,,,,,,,,,,,,,,,,,,,,,,,,,,,,,,,,,,,,,,,,
,,,,,,,,,,,,,FF,,,,,,,,4.7191,,,,,,,,,,,,,,,,,,,,,,605b29e2f13cbd20e9be8834,60e560d6be3c26a30d44d4c6,2021-07-07_10h17.03.405,Simcolourproject_2stim_asymm_v5,2020.2.10,Win32,60,60e52e7cfedb1dae636df45f,,,,,,,space,3.2056,3967,-76.7999897,26.39999396,1,0,0,response7disk,,1,0.800011456,-10.40000659,1,0,0,rectangle,0.800011456,-10.40000659,1,0,0,0.800011456,-10.40000659,1,0,0,0,0,0,134,1,,,,,,,,
,,,,,,,,,,,,,FF,,,,,,,,1.4114,,,,,,,,,,,,,,,,,,,,,,605b29e2f13cbd20e9be8834,60e560d6be3c26a30d44d4c6,2021-07-07_10h17.03.405,Simcolourproject_2stim_asymm_v5,2020.2.10,Win32,60,60e52e7cfedb1dae636df45f,,,,,,,,,282,-83.99998981,51.19996991,1,0,0,response7disk,,1,-11.19998872,7.599993676,1,0,0,rectangle,-11.19998872,7.599993676,1,0,0,-11.19998872,7.599993676,1,0,0,0,1,1,148,1,,,,,,,,
,,,,,,,,,,,,,FF,,,,,,,,2.7508,,,,,,,,,,,,,,,,,,,,,,605b29e2f13cbd20e9be8834,60e560d6be3c26a30d44d4c6,2021-07-07_10h17.03.405,Simcolourproject_2stim_asymm_v5,2020.2.10,Win32,60,60e52e7cfedb1dae636df45f,,,,,,,,,4047,-83.1999898,43.19996979,1,0,0,response7disk,,1,-17.99998882,0.399993569,1,0,0,rectangle,-17.99998882,0.399993569,1,0,0,-17.99998882,0.399993569,1,0,0,0,2,2,16,1,,,,,,,,
,,,,,,,,,,,,,FF,,,,,,,,1.501,,,,,,,,,,,,,,,,,,,,,,605b29e2f13cbd20e9be8834,60e560d6be3c26a30d44d4c6,2021-07-07_10h17.03.405,Simcolourproject_2stim_asymm_v5,2020.2.10,Win32,60,60e52e7cfedb1dae636df45f,,,,,,,,,4102,-80.79998976,-36.80000699,1,0,0,response5disk,,2,-3.199988604,-10.8000066,1,0,0,rectangle,-3.199988604,-10.8000066,1,0,0,-3.199988604,-10.8000066,1,0,0,0,3,3,87,1,,,,,,,,
,,,,,,,,,,,,,FF,,,,,,,,2.9506,,,,,,,,,,,,,,,,,,,,,,605b29e2f13cbd20e9be8834,60e560d6be3c26a30d44d4c6,2021-07-07_10h17.03.405,Simcolourproject_2stim_asymm_v5,2020.2.10,Win32,60,60e52e7cfedb1dae636df45f,,,,,,,,,1570,-73.19998965,40.39999416,1,0,0,response7disk,,1,-1.999988586,6.399993658,1,0,0,rectangle,-1.999988586,6.399993658,1,0,0,-1.999988586,6.399993658,1,0,0,0,4,4,155,1,,,,,,,,
,,,,,,,,,,,,,FF,,,,,,,,1.9171,,,,,,,,,,,,,,,,,,,,,,605b29e2f13cbd20e9be8834,60e560d6be3c26a30d44d4c6,2021-07-07_10h17.03.405,Simcolourproject_2stim_asymm_v5,2020.2.10,Win32,60,60e52e7cfedb1dae636df45f,,,,,,,,,57,84.80001271,38.39999413,1,0,0,response1disk,,6,-9.999988705,3.19999361,1,0,0,rectangle,-9.999988705,3.19999361,1,0,0,-9.999988705,3.19999361,1,0,0,0,5,5,96,1,,,,,,,,
,,,,,,,,,,,,,FF,,,,,,,,2.1659,,,,,,,,,,,,,,,,,,,,,,605b29e2f13cbd20e9be8834,60e560d6be3c26a30d44d4c6,2021-07-07_10h17.03.405,Simcolourproject_2stim_asymm_v5,2020.2.10,Win32,60,60e52e7cfedb1dae636df45f,,,,,,,,,3115,48.80001217,-115.600057,1,0,0,response3disk,,4,18.00001171,5.19999364,1,0,0,rectangle,-99.99999005,-44.4000071,1,0,0,10.80001161,5.19999364,1,0,0,0,6,6,5,1,,response5disk_3,TRUE,2,2,"[197,100,200,199,102,83,109,7,260,189,92,41,284,119,302,18,197,118,312,192]",1.5678,rectangle
,,,,,,,,,,,,,FF,,,,,,,,5.9931,,,,,,,,,,,,,,,,,,,,,,605b29e2f13cbd20e9be8834,60e560d6be3c26a30d44d4c6,2021-07-07_10h17.03.405,Simcolourproject_2stim_asymm_v5,2020.2.10,Win32,60,60e52e7cfedb1dae636df45f,,,,,,,,,332,62.80001238,115.5999953,1,0,0,response1disk,,7,25.20001182,-0.400006443,1,0,0,rectangle,25.20001182,-0.400006443,1,0,0,25.20001182,-0.400006443,1,0,0,0,7,7,80,1,,,,,,,,
,,,,,,,,,,,,,FF,,,,,,,,6.8851,,,,,,,,,,,,,,,,,,,,,,605b29e2f13cbd20e9be8834,60e560d6be3c26a30d44d4c6,2021-07-07_10h17.03.405,Simcolourproject_2stim_asymm_v5,2020.2.10,Win32,60,60e52e7cfedb1dae636df45f,,,,,,,,,3204,-85.19998983,27.19996955,1,0,0,response7disk,,1,1.14441E-05,8.399993688,1,0,0,rectangle,1.14441E-05,8.399993688,1,0,0,1.14441E-05,8.399993688,1,0,0,0,8,8,92,1,,,,,,,,
,,,,,,,,,,,,,FF,,,,,,,,1.5176,,,,,,,,,,,,,,,,,,,,,,605b29e2f13cbd20e9be8834,60e560d6be3c26a30d44d4c6,2021-07-07_10h17.03.405,Simcolourproject_2stim_asymm_v5,2020.2.10,Win32,60,60e52e7cfedb1dae636df45f,,,,,,,,,1207,44.80001211,99.19997063,1,0,0,response1disk,,7,18.00001171,1.599993587,1,0,0,rectangle,18.00001171,1.599993587,1,0,0,18.00001171,1.599993587,1,0,0,0,9,9,21,1,,,,,,,,
,,,,,,,,,,,,,FF,,,,,,,,0.7834,,,,,,,,,,,,,,,,,,,,,,605b29e2f13cbd20e9be8834,60e560d6be3c26a30d44d4c6,2021-07-07_10h17.03.405,Simcolourproject_2stim_asymm_v5,2020.2.10,Win32,60,60e52e7cfedb1dae636df45f,,,,,,,,,1006,44.0000121,96.399995,1,0,0,response1disk,,7,13.20001164,-5.600006521,1,0,0,rectangle,13.20001164,-5.600006521,1,0,0,13.20001164,-5.600006521,1,0,0,0,10,10,18,1,,,,,,,,
,,,,,,,,,,,,,FF,,,,,,,,1.4506,,,,,,,,,,,,,,,,,,,,,,605b29e2f13cbd20e9be8834,60e560d6be3c26a30d44d4c6,2021-07-07_10h17.03.405,Simcolourproject_2stim_asymm_v5,2020.2.10,Win32,60,60e52e7cfedb1dae636df45f,,,,,,,,,3250,-101.9999901,-41.60000706,1,0,0,response5disk,,2,0.800011456,-7.600006551,1,0,0,rectangle,0.800011456,-7.600006551,1,0,0,0.800011456,-7.600006551,1,0,0,0,11,11,90,1,,,,,,,,
,,,,,,,,,,,,,FF,,,,,,,,4.0342,,,,,,,,,,,,,,,,,,,,,,605b29e2f13cbd20e9be8834,60e560d6be3c26a30d44d4c6,2021-07-07_10h17.03.405,Simcolourproject_2stim_asymm_v5,2020.2.10,Win32,60,60e52e7cfedb1dae636df45f,,,,,,,,,1267,-35.99998909,-105.6000568,1,0,0,response5disk,,3,10.00001159,-5.600006521,1,0,0,rectangle,10.00001159,-5.600006521,1,0,0,10.00001159,-5.600006521,1,0,0,0,12,12,136,1,,,,,,,,
,,,,,,,,,,,,,FF,,,,,,,,2.0005,,,,,,,,,,,,,,,,,,,,,,605b29e2f13cbd20e9be8834,60e560d6be3c26a30d44d4c6,2021-07-07_10h17.03.405,Simcolourproject_2stim_asymm_v5,2020.2.10,Win32,60,60e52e7cfedb1dae636df45f,,,,,,,,,2557,-90.79998991,-45.60000712,1,0,0,response5disk,,2,-5.199988633,-8.800006568,1,0,0,rectangle,-5.199988633,-8.800006568,1,0,0,-5.199988633,-8.800006568,1,0,0,0,13,13,70,1,,,,,,,,
,,,,,,,,,,,,,FF,,,,,,,,1.1,,,,,,,,,,,,,,,,,,,,,,605b29e2f13cbd20e9be8834,60e560d6be3c26a30d44d4c6,2021-07-07_10h17.03.405,Simcolourproject_2stim_asymm_v5,2020.2.10,Win32,60,60e52e7cfedb1dae636df45f,,,,,,,,,4323,-31.99998903,111.1999708,1,0,0,response7disk,,0,20.00001174,8.399993688,1,0,0,rectangle,20.00001174,8.399993688,1,0,0,20.00001174,8.399993688,1,0,0,0,14,14,157,1,,,,,,,,
,,,,,,,,,,,,,FF,,,,,,,,1.584,,,,,,,,,,,,,,,,,,,,,,605b29e2f13cbd20e9be8834,60e560d6be3c26a30d44d4c6,2021-07-07_10h17.03.405,Simcolourproject_2stim_asymm_v5,2020.2.10,Win32,60,60e52e7cfedb1dae636df45f,,,,,,,,,4163,91.2000128,-51.60000721,1,0,0,response3disk,,5,0.800011456,4.399993628,1,0,0,rectangle,0.800011456,4.399993628,1,0,0,0.800011456,4.399993628,1,0,0,0,15,15,89,1,,,,,,,,
,,,,,,,,,,,,,FF,,,,,,,,1.584,,,,,,,,,,,,,,,,,,,,,,605b29e2f13cbd20e9be8834,60e560d6be3c26a30d44d4c6,2021-07-07_10h17.03.405,Simcolourproject_2stim_asymm_v5,2020.2.10,Win32,60,60e52e7cfedb1dae636df45f,,,,,,,,,4159,88.80001277,-31.60000691,1,0,0,response3disk,,5,-1.999988586,1.199993581,1,0,0,rectangle,-1.999988586,1.199993581,1,0,0,-1.999988586,1.199993581,1,0,0,0,16,16,106,1,,,,,,,,
,,,,,,,,,,,,,FF,,,,,,,,1.8508,,,,,,,,,,,,,,,,,,,,,,605b29e2f13cbd20e9be8834,60e560d6be3c26a30d44d4c6,2021-07-07_10h17.03.405,Simcolourproject_2stim_asymm_v5,2020.2.10,Win32,60,60e52e7cfedb1dae636df45f,,,,,,,,,998,41.20001206,-121.6000571,1,0,0,response3disk,,4,-3.999988616,1.199993581,1,0,0,rectangle,95.20001286,-38.80000702,1,0,0,-0.799988568,-3.600006491,1,0,0,0,17,17,119,1,,response3disk_3,TRUE,5,5,"[197,100,200,199,102,83,109,7,260,189,92,41,284,119,302,18,197,118,312,192]",1.9672,rectangle
,,,,,,,,,,,,,FF,,,,,,,,1.8004,,,,,,,,,,,,,,,,,,,,,,605b29e2f13cbd20e9be8834,60e560d6be3c26a30d44d4c6,2021-07-07_10h17.03.405,Simcolourproject_2stim_asymm_v5,2020.2.10,Win32,60,60e52e7cfedb1dae636df45f,,,,,,,,,648,96.80001289,-40.80000705,1,0,0,response3disk,,5,16.00001168,-16.80000669,1,0,0,rectangle,16.00001168,-16.80000669,1,0,0,16.00001168,-16.80000669,1,0,0,0,18,18,100,1,,,,,,,,
,,,,,,,,,,,,,FF,,,,,,,,1.2021,,,,,,,,,,,,,,,,,,,,,,605b29e2f13cbd20e9be8834,60e560d6be3c26a30d44d4c6,2021-07-07_10h17.03.405,Simcolourproject_2stim_asymm_v5,2020.2.10,Win32,60,60e52e7cfedb1dae636df45f,,,,,,,,,2741,46.00001213,92.39999494,1,0,0,response1disk,,7,17.2000117,6.399993658,1,0,0,rectangle,17.2000117,6.399993658,1,0,0,17.2000117,6.399993658,1,0,0,0,19,19,115,1,,,,,,,,
,,,,,,,,,,,,,FF,,,,,,,,0.8168,,,,,,,,,,,,,,,,,,,,,,605b29e2f13cbd20e9be8834,60e560d6be3c26a30d44d4c6,2021-07-07_10h17.03.405,Simcolourproject_2stim_asymm_v5,2020.2.10,Win32,60,60e52e7cfedb1dae636df45f,,,,,,,,,1087,44.80001211,105.1999707,1,0,0,response1disk,,7,27.20001185,8.399993688,1,0,0,rectangle,27.20001185,8.399993688,1,0,0,27.20001185,8.399993688,1,0,0,0,20,20,46,1,,,,,,,,
,,,,,,,,,,,,,FF,,,,,,,,2.5505,,,,,,,,,,,,,,,,,,,,,,605b29e2f13cbd20e9be8834,60e560d6be3c26a30d44d4c6,2021-07-07_10h17.03.405,Simcolourproject_2stim_asymm_v5,2020.2.10,Win32,60,60e52e7cfedb1dae636df45f,,,,,,,,,3868,42.00001207,105.5999951,1,0,0,response1disk,,7,28.00001186,-1.600006461,1,0,0,rectangle,28.00001186,-1.600006461,1,0,0,28.00001186,-1.600006461,1,0,0,0,21,21,14,1,,,,,,,,
,,,,,,,,,,,,,FF,,,,,,,,1.584,,,,,,,,,,,,,,,,,,,,,,605b29e2f13cbd20e9be8834,60e560d6be3c26a30d44d4c6,2021-07-07_10h17.03.405,Simcolourproject_2stim_asymm_v5,2020.2.10,Win32,60,60e52e7cfedb1dae636df45f,,,,,,,,,74,98.80001292,-36.80000699,1,0,0,response3disk,,5,12.00001162,-7.600006551,1,0,0,rectangle,12.00001162,-7.600006551,1,0,0,12.00001162,-7.600006551,1,0,0,0,22,22,125,1,,,,,,,,
,,,,,,,,,,,,,FF,,,,,,,,0.967,,,,,,,,,,,,,,,,,,,,,,605b29e2f13cbd20e9be8834,60e560d6be3c26a30d44d4c6,2021-07-07_10h17.03.405,Simcolourproject_2stim_asymm_v5,2020.2.10,Win32,60,60e52e7cfedb1dae636df45f,,,,,,,,,3800,28.00001186,92.39999494,1,0,0,response1disk,,7,15.20001167,-2.400006473,1,0,0,rectangle,15.20001167,-2.400006473,1,0,0,15.20001167,-2.400006473,1,0,0,0,23,23,29,1,,,,,,,,
,,,,,,,,,,,,,FF,,,,,,,,0.7333,,,,,,,,,,,,,,,,,,,,,,605b29e2f13cbd20e9be8834,60e560d6be3c26a30d44d4c6,2021-07-07_10h17.03.405,Simcolourproject_2stim_asymm_v5,2020.2.10,Win32,60,60e52e7cfedb1dae636df45f,,,,,,,,,4062,52.80001223,105.1999707,1,0,0,response1disk,,7,29.20001188,-2.400006473,1,0,0,rectangle,29.20001188,-2.400006473,1,0,0,29.20001188,-2.400006473,1,0,0,0,24,24,142,1,,,,,,,,
,,,,,,,,,,,,,FF,,,,,,,,1.0003,,,,,,,,,,,,,,,,,,,,,,605b29e2f13cbd20e9be8834,60e560d6be3c26a30d44d4c6,2021-07-07_10h17.03.405,Simcolourproject_2stim_asymm_v5,2020.2.10,Win32,60,60e52e7cfedb1dae636df45f,,,,,,,,,3864,96.00001287,27.19996955,1,0,0,response1disk,,6,35.20001197,8.399993688,1,0,0,rectangle,35.20001197,8.399993688,1,0,0,35.20001197,8.399993688,1,0,0,0,25,25,27,1,,,,,,,,
,,,,,,,,,,,,,FF,,,,,,,,4.1845,,,,,,,,,,,,,,,,,,,,,,605b29e2f13cbd20e9be8834,60e560d6be3c26a30d44d4c6,2021-07-07_10h17.03.405,Simcolourproject_2stim_asymm_v5,2020.2.10,Win32,60,60e52e7cfedb1dae636df45f,,,,,,,,,832,110.0000131,41.19996976,1,0,0,response1disk,,6,-8.799988687,9.599993706,1,0,0,rectangle,-8.799988687,9.599993706,1,0,0,-8.799988687,9.599993706,1,0,0,0,26,26,25,1,,,,,,,,
,,,,,,,,,,,,,FF,,,,,,,,0.667,,,,,,,,,,,,,,,,,,,,,,605b29e2f13cbd20e9be8834,60e560d6be3c26a30d44d4c6,2021-07-07_10h17.03.405,Simcolourproject_2stim_asymm_v5,2020.2.10,Win32,60,60e52e7cfedb1dae636df45f,,,,,,,,,2618,36.00001198,88.39999488,1,0,0,response1disk,,7,10.00001159,-9.60000658,1,0,0,rectangle,10.00001159,-9.60000658,1,0,0,10.00001159,-9.60000658,1,0,0,0,27,27,121,1,,,,,,,,
,,,,,,,,,,,,,FF,,,,,,,,1.1003,,,,,,,,,,,,,,,,,,,,,,605b29e2f13cbd20e9be8834,60e560d6be3c26a30d44d4c6,2021-07-07_10h17.03.405,Simcolourproject_2stim_asymm_v5,2020.2.10,Win32,60,60e52e7cfedb1dae636df45f,,,,,,,,,3964,69.20001248,113.1999708,1,0,0,response1disk,,7,25.20001182,8.399993688,1,0,0,rectangle,25.20001182,8.399993688,1,0,0,25.20001182,8.399993688,1,0,0,0,28,28,52,1,,,,,,,,
,,,,,,,,,,,,,FF,,,,,,,,1.6336,,,,,,,,,,,,,,,,,,,,,,605b29e2f13cbd20e9be8834,60e560d6be3c26a30d44d4c6,2021-07-07_10h17.03.405,Simcolourproject_2stim_asymm_v5,2020.2.10,Win32,60,60e52e7cfedb1dae636df45f,,,,,,,,,2268,100.0000129,38.39999413,1,0,0,response1disk,,6,11.20001161,-8.400006562,1,0,0,rectangle,11.20001161,-8.400006562,1,0,0,11.20001161,-8.400006562,1,0,0,0,29,29,156,1,,,,,,,,
,,,,,,,,,,,,,FF,,,,,,,,2.4503,,,,,,,,,,,,,,,,,,,,,,605b29e2f13cbd20e9be8834,60e560d6be3c26a30d44d4c6,2021-07-07_10h17.03.405,Simcolourproject_2stim_asymm_v5,2020.2.10,Win32,60,60e52e7cfedb1dae636df45f,,,,,,,,,4104,-97.99999002,-31.60000691,1,0,0,response5disk,,2,16.00001168,7.599993676,1,0,0,rectangle,16.00001168,7.599993676,1,0,0,16.00001168,7.599993676,1,0,0,0,30,30,0,1,,,,,,,,
,,,,,,,,,,,,,FF,,,,,,,,0.8505,,,,,,,,,,,,,,,,,,,,,,605b29e2f13cbd20e9be8834,60e560d6be3c26a30d44d4c6,2021-07-07_10h17.03.405,Simcolourproject_2stim_asymm_v5,2020.2.10,Win32,60,60e52e7cfedb1dae636df45f,,,,,,,,,390,54.00001225,114.3999953,1,0,0,response1disk,,7,22.00001177,3.19999361,1,0,0,rectangle,22.00001177,3.19999361,1,0,0,22.00001177,3.19999361,1,0,0,0,31,31,38,1,,,,,,,,
,,,,,,,,,,,,,FF,,,,,,,,0.8669,,,,,,,,,,,,,,,,,,,,,,605b29e2f13cbd20e9be8834,60e560d6be3c26a30d44d4c6,2021-07-07_10h17.03.405,Simcolourproject_2stim_asymm_v5,2020.2.10,Win32,60,60e52e7cfedb1dae636df45f,,,,,,,,,1128,40.00001204,114.3999953,1,0,0,response1disk,,7,-1.999988586,1.199993581,1,0,0,rectangle,-1.999988586,1.199993581,1,0,0,-1.999988586,1.199993581,1,0,0,0,32,32,110,1,,,,,,,,
,,,,,,,,,,,,,FF,,,,,,,,2.2837,,,,,,,,,,,,,,,,,,,,,,605b29e2f13cbd20e9be8834,60e560d6be3c26a30d44d4c6,2021-07-07_10h17.03.405,Simcolourproject_2stim_asymm_v5,2020.2.10,Win32,60,60e52e7cfedb1dae636df45f,,,,,,,,,4360,36.80001199,97.1999706,1,0,0,response1disk,,7,22.00001177,4.399993628,1,0,0,rectangle,22.00001177,4.399993628,1,0,0,22.00001177,4.399993628,1,0,0,0,33,33,23,1,,,,,,,,
,,,,,,,,,,,,,FF,,,,,,,,1.217,,,,,,,,,,,,,,,,,,,,,,605b29e2f13cbd20e9be8834,60e560d6be3c26a30d44d4c6,2021-07-07_10h17.03.405,Simcolourproject_2stim_asymm_v5,2020.2.10,Win32,60,60e52e7cfedb1dae636df45f,,,,,,,,,1633,54.00001225,114.3999953,1,0,0,response1disk,,7,6.800011545,-1.600006461,1,0,0,rectangle,6.800011545,-1.600006461,1,0,0,6.800011545,-1.600006461,1,0,0,0,34,34,36,1,,,,,,,,
,,,,,,,,,,,,,FF,,,,,,,,1.4669,,,,,,,,,,,,,,,,,,,,,,605b29e2f13cbd20e9be8834,60e560d6be3c26a30d44d4c6,2021-07-07_10h17.03.405,Simcolourproject_2stim_asymm_v5,2020.2.10,Win32,60,60e52e7cfedb1dae636df45f,,,,,,,,,48,46.80001214,100.3999951,1,0,0,response1disk,,7,9.200011581,-4.400006503,1,0,0,rectangle,9.200011581,-4.400006503,1,0,0,9.200011581,-4.400006503,1,0,0,0,35,35,128,1,,,,,,,,
,,,,,,,,,,,,,FF,,,,,,,,2.6841,,,,,,,,,,,,,,,,,,,,,,605b29e2f13cbd20e9be8834,60e560d6be3c26a30d44d4c6,2021-07-07_10h17.03.405,Simcolourproject_2stim_asymm_v5,2020.2.10,Win32,60,60e52e7cfedb1dae636df45f,,,,,,,,,3993,-43.99998921,110.3999952,1,0,0,response7disk,,0,-5.999988645,-5.600006521,1,0,0,rectangle,-5.999988645,-5.600006521,1,0,0,-5.999988645,-5.600006521,1,0,0,0,36,36,144,1,,,,,,,,
,,,,,,,,,,,,,FF,,,,,,,,2.9672,,,,,,,,,,,,,,,,,,,,,,605b29e2f13cbd20e9be8834,60e560d6be3c26a30d44d4c6,2021-07-07_10h17.03.405,Simcolourproject_2stim_asymm_v5,2020.2.10,Win32,60,60e52e7cfedb1dae636df45f,,,,,,,,,3166,52.80001223,-114.4000081,1,0,0,response3disk,,4,-3.999988616,15.19999379,1,0,0,rectangle,-3.999988616,15.19999379,1,0,0,-3.999988616,15.19999379,1,0,0,0,37,37,105,1,,,,,,,,
,,,,,,,,,,,,,FF,,,,,,,,1.3068,,,,,,,,,,,,,,,,,,,,,,605b29e2f13cbd20e9be8834,60e560d6be3c26a30d44d4c6,2021-07-07_10h17.03.405,Simcolourproject_2stim_asymm_v5,2020.2.10,Win32,60,60e52e7cfedb1dae636df45f,,,,,,,,,189,113.2000131,47.19996985,1,0,0,response1disk,,6,5.200011522,-1.600006461,1,0,0,rectangle,5.200011522,-1.600006461,1,0,0,5.200011522,-1.600006461,1,0,0,0,38,38,11,1,,,,,,,,
,,,,,,,,,,,,,FF,,,,,,,,1.0666,,,,,,,,,,,,,,,,,,,,,,605b29e2f13cbd20e9be8834,60e560d6be3c26a30d44d4c6,2021-07-07_10h17.03.405,Simcolourproject_2stim_asymm_v5,2020.2.10,Win32,60,60e52e7cfedb1dae636df45f,,,,,,,,,3294,98.80001292,40.39999416,1,0,0,response1disk,,6,9.200011581,-4.800006509,1,0,0,rectangle,9.200011581,-4.800006509,1,0,0,9.200011581,-4.800006509,1,0,0,0,39,39,149,1,,,,,,,,
,,,,,,,,,,,,,FF,,,,,,,,0.9005,,,,,,,,,,,,,,,,,,,,,,605b29e2f13cbd20e9be8834,60e560d6be3c26a30d44d4c6,2021-07-07_10h17.03.405,Simcolourproject_2stim_asymm_v5,2020.2.10,Win32,60,60e52e7cfedb1dae636df45f,,,,,,,,,4264,42.80001208,102.3999951,1,0,0,response1disk,,7,1.14441E-05,6.399993658,1,0,0,rectangle,-103.9999901,36.39999411,1,0,0,-5.999988645,12.39999375,1,0,0,0,40,40,39,1,,response7disk_3,TRUE,1,1,"[197,100,200,199,102,83,109,7,260,189,92,41,284,119,302,18,197,118,312,192]",1.8183,rectangle
,,,,,,,,,,,,,FF,,,,,,,,5.8518,,,,,,,,,,,,,,,,,,,,,,605b29e2f13cbd20e9be8834,60e560d6be3c26a30d44d4c6,2021-07-07_10h17.03.405,Simcolourproject_2stim_asymm_v5,2020.2.10,Win32,60,60e52e7cfedb1dae636df45f,,,,,,,,,2089,56.80001229,-103.6000568,1,0,0,response3disk,,4,14.00001165,-8.800006568,1,0,0,rectangle,14.00001165,-8.800006568,1,0,0,14.00001165,-8.800006568,1,0,0,0,41,41,20,1,,,,,,,,
,,,,,,,,,,,,,FF,,,,,,,,0.7835,,,,,,,,,,,,,,,,,,,,,,605b29e2f13cbd20e9be8834,60e560d6be3c26a30d44d4c6,2021-07-07_10h17.03.405,Simcolourproject_2stim_asymm_v5,2020.2.10,Win32,60,60e52e7cfedb1dae636df45f,,,,,,,,,226,30.00001189,93.19997054,1,0,0,response1disk,,7,25.20001182,-4.400006503,1,0,0,rectangle,25.20001182,-4.400006503,1,0,0,25.20001182,-4.400006503,1,0,0,0,42,42,61,1,,,,,,,,
,,,,,,,,,,,,,FF,,,,,,,,1.7582,,,,,,,,,,,,,,,,,,,,,,605b29e2f13cbd20e9be8834,60e560d6be3c26a30d44d4c6,2021-07-07_10h17.03.405,Simcolourproject_2stim_asymm_v5,2020.2.10,Win32,60,60e52e7cfedb1dae636df45f,,,,,,,,,2815,38.00001201,92.39999494,1,0,0,response1disk,,7,2.000011474,-10.40000659,1,0,0,rectangle,2.000011474,-10.40000659,1,0,0,2.000011474,-10.40000659,1,0,0,0,43,43,103,1,,,,,,,,
,,,,,,,,,,,,,FF,,,,,,,,0.9666,,,,,,,,,,,,,,,,,,,,,,605b29e2f13cbd20e9be8834,60e560d6be3c26a30d44d4c6,2021-07-07_10h17.03.405,Simcolourproject_2stim_asymm_v5,2020.2.10,Win32,60,60e52e7cfedb1dae636df45f,,,,,,,,,4370,-39.19998914,123.199971,1,0,0,response7disk,,0,-15.19998878,2.399993598,1,0,0,rectangle,-15.19998878,2.399993598,1,0,0,-15.19998878,2.399993598,1,0,0,0,44,44,81,1,,,,,,,,
,,,,,,,,,,,,,FF,,,,,,,,1.0506,,,,,,,,,,,,,,,,,,,,,,605b29e2f13cbd20e9be8834,60e560d6be3c26a30d44d4c6,2021-07-07_10h17.03.405,Simcolourproject_2stim_asymm_v5,2020.2.10,Win32,60,60e52e7cfedb1dae636df45f,,,,,,,,,2636,41.20001206,117.1999709,1,0,0,response1disk,,7,1.14441E-05,-2.400006473,1,0,0,rectangle,1.14441E-05,-2.400006473,1,0,0,1.14441E-05,-2.400006473,1,0,0,0,45,45,9,1,,,,,,,,
,,,,,,,,,,,,,FF,,,,,,,,1.6505,,,,,,,,,,,,,,,,,,,,,,605b29e2f13cbd20e9be8834,60e560d6be3c26a30d44d4c6,2021-07-07_10h17.03.405,Simcolourproject_2stim_asymm_v5,2020.2.10,Win32,60,60e52e7cfedb1dae636df45f,,,,,,,,,4336,-91.19998991,30.39999402,1,0,0,response7disk,,1,8.000011563,-5.600006521,1,0,0,rectangle,8.000011563,-5.600006521,1,0,0,8.000011563,-5.600006521,1,0,0,0,46,46,8,1,,,,,,,,
,,,,,,,,,,,,,FF,,,,,,,,2.502,,,,,,,,,,,,,,,,,,,,,,605b29e2f13cbd20e9be8834,60e560d6be3c26a30d44d4c6,2021-07-07_10h17.03.405,Simcolourproject_2stim_asymm_v5,2020.2.10,Win32,60,60e52e7cfedb1dae636df45f,,,,,,,,,3796,97.20001289,-25.60000682,1,0,0,response3disk,,5,2.000011474,-1.600006461,1,0,0,rectangle,2.000011474,-1.600006461,1,0,0,2.000011474,-1.600006461,1,0,0,0,47,47,77,1,,,,,,,,
,,,,,,,,,,,,,FF,,,,,,,,0.917,,,,,,,,,,,,,,,,,,,,,,605b29e2f13cbd20e9be8834,60e560d6be3c26a30d44d4c6,2021-07-07_10h17.03.405,Simcolourproject_2stim_asymm_v5,2020.2.10,Win32,60,60e52e7cfedb1dae636df45f,,,,,,,,,1417,54.80001226,119.1999709,1,0,0,response1disk,,7,6.000011533,2.399993598,1,0,0,rectangle,6.000011533,2.399993598,1,0,0,6.000011533,2.399993598,1,0,0,0,48,48,74,1,,,,,,,,
,,,,,,,,,,,,,FF,,,,,,,,0.8335,,,,,,,,,,,,,,,,,,,,,,605b29e2f13cbd20e9be8834,60e560d6be3c26a30d44d4c6,2021-07-07_10h17.03.405,Simcolourproject_2stim_asymm_v5,2020.2.10,Win32,60,60e52e7cfedb1dae636df45f,,,,,,,,,1998,50.8000122,115.1999709,1,0,0,response1disk,,7,19.20001173,-4.400006503,1,0,0,rectangle,19.20001173,-4.400006503,1,0,0,19.20001173,-4.400006503,1,0,0,0,49,49,63,1,,,,,,,,
,,,,,,,,,,,,,FF,,,,,,,,0.9421,,,,,,,,,,,,,,,,,,,,,,605b29e2f13cbd20e9be8834,60e560d6be3c26a30d44d4c6,2021-07-07_10h17.03.405,Simcolourproject_2stim_asymm_v5,2020.2.10,Win32,60,60e52e7cfedb1dae636df45f,,,,,,,,,4017,100.0000129,33.19996964,1,0,0,response1disk,,6,33.20001194,-1.600006461,1,0,0,rectangle,33.20001194,-1.600006461,1,0,0,33.20001194,-1.600006461,1,0,0,0,50,50,99,1,,,,,,,,
,,,,,,,,,,,,,FF,,,,,,,,0.9169,,,,,,,,,,,,,,,,,,,,,,605b29e2f13cbd20e9be8834,60e560d6be3c26a30d44d4c6,2021-07-07_10h17.03.405,Simcolourproject_2stim_asymm_v5,2020.2.10,Win32,60,60e52e7cfedb1dae636df45f,,,,,,,,,1822,-36.7999891,111.1999708,1,0,0,response7disk,,0,6.000011533,1.599993587,1,0,0,rectangle,6.000011533,1.599993587,1,0,0,6.000011533,1.599993587,1,0,0,0,51,51,51,1,,,,,,,,
,,,,,,,,,,,,,FF,,,,,,,,1.2338,,,,,,,,,,,,,,,,,,,,,,605b29e2f13cbd20e9be8834,60e560d6be3c26a30d44d4c6,2021-07-07_10h17.03.405,Simcolourproject_2stim_asymm_v5,2020.2.10,Win32,60,60e52e7cfedb1dae636df45f,,,,,,,,,2306,-47.99998927,-103.6000568,1,0,0,response5disk,,3,3.200011492,4.399993628,1,0,0,rectangle,3.200011492,4.399993628,1,0,0,3.200011492,4.399993628,1,0,0,0,52,52,62,1,,,,,,,,
,,,,,,,,,,,,,FF,,,,,,,,0.9405,,,,,,,,,,,,,,,,,,,,,,605b29e2f13cbd20e9be8834,60e560d6be3c26a30d44d4c6,2021-07-07_10h17.03.405,Simcolourproject_2stim_asymm_v5,2020.2.10,Win32,60,60e52e7cfedb1dae636df45f,,,,,,,,,1527,58.00001231,-108.4000081,1,0,0,response3disk,,4,13.20001164,-0.800006449,1,0,0,rectangle,13.20001164,-0.800006449,1,0,0,13.20001164,-0.800006449,1,0,0,0,53,53,42,1,,,,,,,,
,,,,,,,,,,,,,FF,,,,,,,,1.1835,,,,,,,,,,,,,,,,,,,,,,605b29e2f13cbd20e9be8834,60e560d6be3c26a30d44d4c6,2021-07-07_10h17.03.405,Simcolourproject_2stim_asymm_v5,2020.2.10,Win32,60,60e52e7cfedb1dae636df45f,,,,,,,,,1775,108.0000131,48.39999428,1,0,0,response1disk,,6,26.00001183,-8.400006562,1,0,0,rectangle,26.00001183,-8.400006562,1,0,0,26.00001183,-8.400006562,1,0,0,0,54,54,131,1,,,,,,,,
,,,,,,,,,,,,,FF,,,,,,,,1.7242,,,,,,,,,,,,,,,,,,,,,,605b29e2f13cbd20e9be8834,60e560d6be3c26a30d44d4c6,2021-07-07_10h17.03.405,Simcolourproject_2stim_asymm_v5,2020.2.10,Win32,60,60e52e7cfedb1dae636df45f,,,,,,,,,209,28.00001186,100.3999951,1,0,0,response1disk,,7,-6.799988657,6.399993658,1,0,0,rectangle,-6.799988657,6.399993658,1,0,0,-6.799988657,6.399993658,1,0,0,0,55,55,43,1,,,,,,,,
,,,,,,,,,,,,,FF,,,,,,,,1.0169,,,,,,,,,,,,,,,,,,,,,,605b29e2f13cbd20e9be8834,60e560d6be3c26a30d44d4c6,2021-07-07_10h17.03.405,Simcolourproject_2stim_asymm_v5,2020.2.10,Win32,60,60e52e7cfedb1dae636df45f,,,,,,,,,2699,42.00001207,115.1999709,1,0,0,response1disk,,7,27.20001185,-2.400006473,1,0,0,rectangle,27.20001185,-2.400006473,1,0,0,27.20001185,-2.400006473,1,0,0,0,56,56,86,1,,,,,,,,
,,,,,,,,,,,,,FF,,,,,,,,0.6836,,,,,,,,,,,,,,,,,,,,,,605b29e2f13cbd20e9be8834,60e560d6be3c26a30d44d4c6,2021-07-07_10h17.03.405,Simcolourproject_2stim_asymm_v5,2020.2.10,Win32,60,60e52e7cfedb1dae636df45f,,,,,,,,,147,52.00001222,114.3999953,1,0,0,response1disk,,7,21.20001176,-2.400006473,1,0,0,rectangle,21.20001176,-2.400006473,1,0,0,21.20001176,-2.400006473,1,0,0,0,57,57,12,1,,,,,,,,
,,,,,,,,,,,,,FF,,,,,,,,0.6999,,,,,,,,,,,,,,,,,,,,,,605b29e2f13cbd20e9be8834,60e560d6be3c26a30d44d4c6,2021-07-07_10h17.03.405,Simcolourproject_2stim_asymm_v5,2020.2.10,Win32,60,60e52e7cfedb1dae636df45f,,,,,,,,,473,46.00001213,110.3999952,1,0,0,response1disk,,7,34.00001195,12.39999375,1,0,0,rectangle,34.00001195,12.39999375,1,0,0,34.00001195,12.39999375,1,0,0,0,58,58,55,1,,,,,,,,
,,,,,,,,,,,,,FF,,,,,,,,0.6669,,,,,,,,,,,,,,,,,,,,,,605b29e2f13cbd20e9be8834,60e560d6be3c26a30d44d4c6,2021-07-07_10h17.03.405,Simcolourproject_2stim_asymm_v5,2020.2.10,Win32,60,60e52e7cfedb1dae636df45f,,,,,,,,,581,32.80001193,111.1999708,1,0,0,response1disk,,7,4.000011504,-11.60000661,1,0,0,rectangle,4.000011504,-11.60000661,1,0,0,4.000011504,-11.60000661,1,0,0,0,59,59,82,1,,,,,,,,
,,,,,,,,,,,,,FF,,,,,,,,1.1332,,,,,,,,,,,,,,,,,,,,,,605b29e2f13cbd20e9be8834,60e560d6be3c26a30d44d4c6,2021-07-07_10h17.03.405,Simcolourproject_2stim_asymm_v5,2020.2.10,Win32,60,60e52e7cfedb1dae636df45f,,,,,,,,,4294,119.2000132,49.19996988,1,0,0,response1disk,,6,7.200011551,-0.800006449,1,0,0,rectangle,7.200011551,-0.800006449,1,0,0,7.200011551,-0.800006449,1,0,0,0,60,60,158,1,,,,,,,,
,,,,,,,,,,,,,FF,,,,,,,,1.484,,,,,,,,,,,,,,,,,,,,,,605b29e2f13cbd20e9be8834,60e560d6be3c26a30d44d4c6,2021-07-07_10h17.03.405,Simcolourproject_2stim_asymm_v5,2020.2.10,Win32,60,60e52e7cfedb1dae636df45f,,,,,,,,,96,120.8000132,51.19996991,1,0,0,response1disk,,6,15.20001167,-11.60000661,1,0,0,rectangle,15.20001167,-11.60000661,1,0,0,15.20001167,-11.60000661,1,0,0,0,61,61,65,1,,,,,,,,
,,,,,,,,,,,,,FF,,,,,,,,1.3168,,,,,,,,,,,,,,,,,,,,,,605b29e2f13cbd20e9be8834,60e560d6be3c26a30d44d4c6,2021-07-07_10h17.03.405,Simcolourproject_2stim_asymm_v5,2020.2.10,Win32,60,60e52e7cfedb1dae636df45f,,,,,,,,,4048,42.80001208,102.3999951,1,0,0,response1disk,,7,8.000011563,-9.60000658,1,0,0,rectangle,8.000011563,-9.60000658,1,0,0,8.000011563,-9.60000658,1,0,0,0,62,62,68,1,,,,,,,,
,,,,,,,,,,,,,FF,,,,,,,,1.2506,,,,,,,,,,,,,,,,,,,,,,605b29e2f13cbd20e9be8834,60e560d6be3c26a30d44d4c6,2021-07-07_10h17.03.405,Simcolourproject_2stim_asymm_v5,2020.2.10,Win32,60,60e52e7cfedb1dae636df45f,,,,,,,,,856,51.20001221,116.3999953,1,0,0,response1disk,,7,20.80001175,6.399993658,1,0,0,rectangle,20.80001175,6.399993658,1,0,0,20.80001175,6.399993658,1,0,0,0,63,63,140,1,,,,,,,,
,,,,,,,,,,,,,FF,,,,,,,,0.7831,,,,,,,,,,,,,,,,,,,,,,605b29e2f13cbd20e9be8834,60e560d6be3c26a30d44d4c6,2021-07-07_10h17.03.405,Simcolourproject_2stim_asymm_v5,2020.2.10,Win32,60,60e52e7cfedb1dae636df45f,,,,,,,,,392,52.00001222,111.1999708,1,0,0,response1disk,,7,26.00001183,-2.400006473,1,0,0,rectangle,26.00001183,-2.400006473,1,0,0,26.00001183,-2.400006473,1,0,0,0,64,64,114,1,,,,,,,,
,,,,,,,,,,,,,FF,,,,,,,,1.5007,,,,,,,,,,,,,,,,,,,,,,605b29e2f13cbd20e9be8834,60e560d6be3c26a30d44d4c6,2021-07-07_10h17.03.405,Simcolourproject_2stim_asymm_v5,2020.2.10,Win32,60,60e52e7cfedb1dae636df45f,,,,,,,,,1838,46.80001214,113.1999708,1,0,0,response1disk,,7,29.20001188,-1.600006461,1,0,0,rectangle,29.20001188,-1.600006461,1,0,0,29.20001188,-1.600006461,1,0,0,0,65,65,153,1,,,,,,,,
,,,,,,,,,,,,,FF,,,,,,,,1.2239,,,,,,,,,,,,,,,,,,,,,,605b29e2f13cbd20e9be8834,60e560d6be3c26a30d44d4c6,2021-07-07_10h17.03.405,Simcolourproject_2stim_asymm_v5,2020.2.10,Win32,60,60e52e7cfedb1dae636df45f,,,,,,,,,4238,100.0000129,-30.40000689,1,0,0,response3disk,,5,15.20001167,1.599993587,1,0,0,rectangle,15.20001167,1.599993587,1,0,0,15.20001167,1.599993587,1,0,0,0,66,66,129,1,,,,,,,,
,,,,,,,,,,,,,FF,,,,,,,,0.7847,,,,,,,,,,,,,,,,,,,,,,605b29e2f13cbd20e9be8834,60e560d6be3c26a30d44d4c6,2021-07-07_10h17.03.405,Simcolourproject_2stim_asymm_v5,2020.2.10,Win32,60,60e52e7cfedb1dae636df45f,,,,,,,,,1994,32.80001193,123.199971,1,0,0,response1disk,,7,10.00001159,-2.400006473,1,0,0,rectangle,10.00001159,-2.400006473,1,0,0,10.00001159,-2.400006473,1,0,0,0,67,67,6,1,,,,,,,,
,,,,,,,,,,,,,FF,,,,,,,,1.1335,,,,,,,,,,,,,,,,,,,,,,605b29e2f13cbd20e9be8834,60e560d6be3c26a30d44d4c6,2021-07-07_10h17.03.405,Simcolourproject_2stim_asymm_v5,2020.2.10,Win32,60,60e52e7cfedb1dae636df45f,,,,,,,,,1011,54.00001225,87.19997045,1,0,0,response1disk,,7,5.200011522,-2.400006473,1,0,0,rectangle,5.200011522,-2.400006473,1,0,0,5.200011522,-2.400006473,1,0,0,0,68,68,53,1,,,,,,,,
,,,,,,,,,,,,,FF,,,,,,,,1.2068,,,,,,,,,,,,,,,,,,,,,,605b29e2f13cbd20e9be8834,60e560d6be3c26a30d44d4c6,2021-07-07_10h17.03.405,Simcolourproject_2stim_asymm_v5,2020.2.10,Win32,60,60e52e7cfedb1dae636df45f,,,,,,,,,1119,40.00001204,87.19997045,1,0,0,response1disk,,7,16.00001168,-1.600006461,1,0,0,rectangle,16.00001168,-1.600006461,1,0,0,16.00001168,-1.600006461,1,0,0,0,69,69,67,1,,,,,,,,
,,,,,,,,,,,,,FF,,,,,,,,0.5669,,,,,,,,,,,,,,,,,,,,,,605b29e2f13cbd20e9be8834,60e560d6be3c26a30d44d4c6,2021-07-07_10h17.03.405,Simcolourproject_2stim_asymm_v5,2020.2.10,Win32,60,60e52e7cfedb1dae636df45f,,,,,,,,,995,54.80001226,96.399995,1,0,0,response1disk,,7,22.00001177,-10.40000659,1,0,0,rectangle,22.00001177,-10.40000659,1,0,0,22.00001177,-10.40000659,1,0,0,0,70,70,120,1,,,,,,,,
,,,,,,,,,,,,,FF,,,,,,,,0.767,,,,,,,,,,,,,,,,,,,,,,605b29e2f13cbd20e9be8834,60e560d6be3c26a30d44d4c6,2021-07-07_10h17.03.405,Simcolourproject_2stim_asymm_v5,2020.2.10,Win32,60,60e52e7cfedb1dae636df45f,,,,,,,,,3216,86.80001274,32.39999405,1,0,0,response1disk,,6,20.00001174,-5.600006521,1,0,0,rectangle,20.00001174,-5.600006521,1,0,0,20.00001174,-5.600006521,1,0,0,0,71,71,137,1,,,,,,,,
,,,,,,,,,,,,,FF,,,,,,,,0.6171,,,,,,,,,,,,,,,,,,,,,,605b29e2f13cbd20e9be8834,60e560d6be3c26a30d44d4c6,2021-07-07_10h17.03.405,Simcolourproject_2stim_asymm_v5,2020.2.10,Win32,60,60e52e7cfedb1dae636df45f,,,,,,,,,2450,28.80001187,77.1999703,1,0,0,response1disk,,7,32.00001192,7.599993676,1,0,0,rectangle,32.00001192,7.599993676,1,0,0,32.00001192,7.599993676,1,0,0,0,72,72,133,1,,,,,,,,
,,,,,,,,,,,,,FF,,,,,,,,0.8667,,,,,,,,,,,,,,,,,,,,,,605b29e2f13cbd20e9be8834,60e560d6be3c26a30d44d4c6,2021-07-07_10h17.03.405,Simcolourproject_2stim_asymm_v5,2020.2.10,Win32,60,60e52e7cfedb1dae636df45f,,,,,,,,,1614,106.000013,44.39999422,1,0,0,response1disk,,6,25.20001182,-2.800006479,1,0,0,rectangle,25.20001182,-2.800006479,1,0,0,25.20001182,-2.800006479,1,0,0,0,73,73,35,1,,,,,,,,
,,,,,,,,,,,,,FF,,,,,,,,1.1671,,,,,,,,,,,,,,,,,,,,,,605b29e2f13cbd20e9be8834,60e560d6be3c26a30d44d4c6,2021-07-07_10h17.03.405,Simcolourproject_2stim_asymm_v5,2020.2.10,Win32,60,60e52e7cfedb1dae636df45f,,,,,,,,,4146,-75.99998969,-47.60000715,1,0,0,response5disk,,2,6.000011533,-1.600006461,1,0,0,rectangle,6.000011533,-1.600006461,1,0,0,6.000011533,-1.600006461,1,0,0,0,74,74,112,1,,,,,,,,
,,,,,,,,,,,,,FF,,,,,,,,1.925,,,,,,,,,,,,,,,,,,,,,,605b29e2f13cbd20e9be8834,60e560d6be3c26a30d44d4c6,2021-07-07_10h17.03.405,Simcolourproject_2stim_asymm_v5,2020.2.10,Win32,60,60e52e7cfedb1dae636df45f,,,,,,,,,2347,92.00001281,-36.40000698,1,0,0,response3disk,,5,12.00001162,10.39999372,1,0,0,rectangle,12.00001162,10.39999372,1,0,0,12.00001162,10.39999372,1,0,0,0,75,75,50,1,,,,,,,,
,,,,,,,,,,,,,FF,,,,,,,,1.1668,,,,,,,,,,,,,,,,,,,,,,605b29e2f13cbd20e9be8834,60e560d6be3c26a30d44d4c6,2021-07-07_10h17.03.405,Simcolourproject_2stim_asymm_v5,2020.2.10,Win32,60,60e52e7cfedb1dae636df45f,,,,,,,,,836,56.80001229,81.19997036,1,0,0,response1disk,,7,23.20001179,1.599993587,1,0,0,rectangle,23.20001179,1.599993587,1,0,0,23.20001179,1.599993587,1,0,0,0,76,76,47,1,,,,,,,,
,,,,,,,,,,,,,FF,,,,,,,,1.1504,,,,,,,,,,,,,,,,,,,,,,605b29e2f13cbd20e9be8834,60e560d6be3c26a30d44d4c6,2021-07-07_10h17.03.405,Simcolourproject_2stim_asymm_v5,2020.2.10,Win32,60,60e52e7cfedb1dae636df45f,,,,,,,,,519,101.200013,31.19996961,1,0,0,response1disk,,6,10.00001159,-7.600006551,1,0,0,rectangle,10.00001159,-7.600006551,1,0,0,10.00001159,-7.600006551,1,0,0,0,77,77,13,1,,,,,,,,
,,,,,,,,,,,,,FF,,,,,,,,0.7579,,,,,,,,,,,,,,,,,,,,,,605b29e2f13cbd20e9be8834,60e560d6be3c26a30d44d4c6,2021-07-07_10h17.03.405,Simcolourproject_2stim_asymm_v5,2020.2.10,Win32,60,60e52e7cfedb1dae636df45f,,,,,,,,,1699,42.80001208,103.1999707,1,0,0,response1disk,,7,11.20001161,-14.40000665,1,0,0,rectangle,11.20001161,-14.40000665,1,0,0,11.20001161,-14.40000665,1,0,0,0,78,78,56,1,,,,,,,,
,,,,,,,,,,,,,FF,,,,,,,,0.8171,,,,,,,,,,,,,,,,,,,,,,605b29e2f13cbd20e9be8834,60e560d6be3c26a30d44d4c6,2021-07-07_10h17.03.405,Simcolourproject_2stim_asymm_v5,2020.2.10,Win32,60,60e52e7cfedb1dae636df45f,,,,,,,,,2840,82.80001268,35.19996967,1,0,0,response1disk,,6,9.200011581,-4.400006503,1,0,0,rectangle,9.200011581,-4.400006503,1,0,0,9.200011581,-4.400006503,1,0,0,0,79,79,57,1,,,,,,,,
,,,,,,,,,,,,,FF,,,,,,,,2.634,,,,,,,,,,,,,,,,,,,,,,605b29e2f13cbd20e9be8834,60e560d6be3c26a30d44d4c6,2021-07-07_10h17.03.405,Simcolourproject_2stim_asymm_v5,2020.2.10,Win32,60,60e52e7cfedb1dae636df45f,,,,,,,,,1524,58.00001231,-96.40000787,1,0,0,response3disk,,4,7.200011551,-0.800006449,1,0,0,rectangle,7.200011551,-0.800006449,1,0,0,7.200011551,-0.800006449,1,0,0,0,80,80,28,1,,,,,,,,
,,,,,,,,,,,,,FF,,,,,,,,0.8334,,,,,,,,,,,,,,,,,,,,,,605b29e2f13cbd20e9be8834,60e560d6be3c26a30d44d4c6,2021-07-07_10h17.03.405,Simcolourproject_2stim_asymm_v5,2020.2.10,Win32,60,60e52e7cfedb1dae636df45f,,,,,,,,,460,48.80001217,79.19997033,1,0,0,response1disk,,7,20.00001174,3.599993616,1,0,0,rectangle,20.00001174,3.599993616,1,0,0,20.00001174,3.599993616,1,0,0,0,81,81,59,1,,,,,,,,
,,,,,,,,,,,,,FF,,,,,,,,0.5835,,,,,,,,,,,,,,,,,,,,,,605b29e2f13cbd20e9be8834,60e560d6be3c26a30d44d4c6,2021-07-07_10h17.03.405,Simcolourproject_2stim_asymm_v5,2020.2.10,Win32,60,60e52e7cfedb1dae636df45f,,,,,,,,,4314,52.00001222,98.39999503,1,0,0,response1disk,,7,27.20001185,1.599993587,1,0,0,rectangle,94.00001284,-42.40000707,1,0,0,25.20001182,-4.800006509,1,0,0,0,82,82,48,1,,response3disk_3,TRUE,5,5,"[197,100,200,199,102,83,109,7,260,189,92,41,284,119,302,18,197,118,312,192]",2.8844,rectangle
,,,,,,,,,,,,,FF,,,,,,,,1.7836,,,,,,,,,,,,,,,,,,,,,,605b29e2f13cbd20e9be8834,60e560d6be3c26a30d44d4c6,2021-07-07_10h17.03.405,Simcolourproject_2stim_asymm_v5,2020.2.10,Win32,60,60e52e7cfedb1dae636df45f,,,,,,,,,255,-49.9999893,-81.60005648,1,0,0,response5disk,,3,4.800011516,-4.800006509,1,0,0,rectangle,4.800011516,-4.800006509,1,0,0,4.800011516,-4.800006509,1,0,0,0,83,83,78,1,,,,,,,,
,,,,,,,,,,,,,FF,,,,,,,,1.4674,,,,,,,,,,,,,,,,,,,,,,605b29e2f13cbd20e9be8834,60e560d6be3c26a30d44d4c6,2021-07-07_10h17.03.405,Simcolourproject_2stim_asymm_v5,2020.2.10,Win32,60,60e52e7cfedb1dae636df45f,,,,,,,,,356,36.00001198,-93.60005666,1,0,0,response3disk,,4,9.200011581,-3.600006491,1,0,0,rectangle,9.200011581,-3.600006491,1,0,0,9.200011581,-3.600006491,1,0,0,0,84,84,138,1,,,,,,,,
,,,,,,,,,,,,,FF,,,,,,,,0.6836,,,,,,,,,,,,,,,,,,,,,,605b29e2f13cbd20e9be8834,60e560d6be3c26a30d44d4c6,2021-07-07_10h17.03.405,Simcolourproject_2stim_asymm_v5,2020.2.10,Win32,60,60e52e7cfedb1dae636df45f,,,,,,,,,2022,30.00001189,86.39999485,1,0,0,response1disk,,7,7.200011551,-4.800006509,1,0,0,rectangle,7.200011551,-4.800006509,1,0,0,7.200011551,-4.800006509,1,0,0,0,85,85,26,1,,,,,,,,
,,,,,,,,,,,,,FF,,,,,,,,1.0666,,,,,,,,,,,,,,,,,,,,,,605b29e2f13cbd20e9be8834,60e560d6be3c26a30d44d4c6,2021-07-07_10h17.03.405,Simcolourproject_2stim_asymm_v5,2020.2.10,Win32,60,60e52e7cfedb1dae636df45f,,,,,,,,,2256,44.80001211,77.1999703,1,0,0,response1disk,,7,14.00001165,-0.400006443,1,0,0,rectangle,14.00001165,-0.400006443,1,0,0,14.00001165,-0.400006443,1,0,0,0,86,86,159,1,,,,,,,,
,,,,,,,,,,,,,FF,,,,,,,,0.617,,,,,,,,,,,,,,,,,,,,,,605b29e2f13cbd20e9be8834,60e560d6be3c26a30d44d4c6,2021-07-07_10h17.03.405,Simcolourproject_2stim_asymm_v5,2020.2.10,Win32,60,60e52e7cfedb1dae636df45f,,,,,,,,,2176,30.00001189,50.39999431,1,0,0,response1disk,,7,19.20001173,-2.400006473,1,0,0,rectangle,19.20001173,-2.400006473,1,0,0,19.20001173,-2.400006473,1,0,0,0,87,87,95,1,,,,,,,,
,,,,,,,,,,,,,FF,,,,,,,,0.9668,,,,,,,,,,,,,,,,,,,,,,605b29e2f13cbd20e9be8834,60e560d6be3c26a30d44d4c6,2021-07-07_10h17.03.405,Simcolourproject_2stim_asymm_v5,2020.2.10,Win32,60,60e52e7cfedb1dae636df45f,,,,,,,,,3159,112.0000131,32.39999405,1,0,0,response1disk,,6,29.20001188,-2.800006479,1,0,0,rectangle,29.20001188,-2.800006479,1,0,0,29.20001188,-2.800006479,1,0,0,0,88,88,94,1,,,,,,,,
,,,,,,,,,,,,,FF,,,,,,,,0.8502,,,,,,,,,,,,,,,,,,,,,,605b29e2f13cbd20e9be8834,60e560d6be3c26a30d44d4c6,2021-07-07_10h17.03.405,Simcolourproject_2stim_asymm_v5,2020.2.10,Win32,60,60e52e7cfedb1dae636df45f,,,,,,,,,3281,46.00001213,113.1999708,1,0,0,response1disk,,7,22.00001177,7.599993676,1,0,0,rectangle,22.00001177,7.599993676,1,0,0,22.00001177,7.599993676,1,0,0,0,89,89,118,1,,,,,,,,
,,,,,,,,,,,,,FF,,,,,,,,1.4335,,,,,,,,,,,,,,,,,,,,,,605b29e2f13cbd20e9be8834,60e560d6be3c26a30d44d4c6,2021-07-07_10h17.03.405,Simcolourproject_2stim_asymm_v5,2020.2.10,Win32,60,60e52e7cfedb1dae636df45f,,,,,,,,,2548,28.80001187,61.19997006,1,0,0,response1disk,,7,30.00001189,-0.400006443,1,0,0,rectangle,30.00001189,-0.400006443,1,0,0,30.00001189,-0.400006443,1,0,0,0,90,90,72,1,,,,,,,,
,,,,,,,,,,,,,FF,,,,,,,,1.3004,,,,,,,,,,,,,,,,,,,,,,605b29e2f13cbd20e9be8834,60e560d6be3c26a30d44d4c6,2021-07-07_10h17.03.405,Simcolourproject_2stim_asymm_v5,2020.2.10,Win32,60,60e52e7cfedb1dae636df45f,,,,,,,,,558,86.80001274,-33.60000694,1,0,0,response3disk,,5,21.20001176,-3.600006491,1,0,0,rectangle,100.0000129,-42.40000707,1,0,0,19.20001173,-5.600006521,1,0,0,0,91,91,154,1,,response3disk_3,TRUE,5,5,"[197,100,200,199,102,83,109,7,260,189,92,41,284,119,302,18,197,118,312,192]",1.5662,rectangle
,,,,,,,,,,,,,FF,,,,,,,,2.1341,,,,,,,,,,,,,,,,,,,,,,605b29e2f13cbd20e9be8834,60e560d6be3c26a30d44d4c6,2021-07-07_10h17.03.405,Simcolourproject_2stim_asymm_v5,2020.2.10,Win32,60,60e52e7cfedb1dae636df45f,,,,,,,,,2757,38.00001201,64.39999452,1,0,0,response1disk,,7,22.00001177,-11.60000661,1,0,0,rectangle,22.00001177,-11.60000661,1,0,0,22.00001177,-11.60000661,1,0,0,0,92,92,64,1,,,,,,,,
,,,,,,,,,,,,,FF,,,,,,,,1.434,,,,,,,,,,,,,,,,,,,,,,605b29e2f13cbd20e9be8834,60e560d6be3c26a30d44d4c6,2021-07-07_10h17.03.405,Simcolourproject_2stim_asymm_v5,2020.2.10,Win32,60,60e52e7cfedb1dae636df45f,,,,,,,,,2333,92.00001281,-28.40000686,1,0,0,response3disk,,5,4.000011504,0.399993569,1,0,0,rectangle,4.000011504,0.399993569,1,0,0,4.000011504,0.399993569,1,0,0,0,93,93,132,1,,,,,,,,
,,,,,,,,,,,,,FF,,,,,,,,0.9,,,,,,,,,,,,,,,,,,,,,,605b29e2f13cbd20e9be8834,60e560d6be3c26a30d44d4c6,2021-07-07_10h17.03.405,Simcolourproject_2stim_asymm_v5,2020.2.10,Win32,60,60e52e7cfedb1dae636df45f,,,,,,,,,1338,112.0000131,-24.4000068,1,0,0,response3disk,,5,22.00001177,12.39999375,1,0,0,rectangle,22.00001177,12.39999375,1,0,0,22.00001177,12.39999375,1,0,0,0,94,94,85,1,,,,,,,,
,,,,,,,,,,,,,FF,,,,,,,,3.2345,,,,,,,,,,,,,,,,,,,,,,605b29e2f13cbd20e9be8834,60e560d6be3c26a30d44d4c6,2021-07-07_10h17.03.405,Simcolourproject_2stim_asymm_v5,2020.2.10,Win32,60,60e52e7cfedb1dae636df45f,,,,,,,,,3942,42.80001208,-99.60005675,1,0,0,response3disk,,4,19.20001173,3.19999361,1,0,0,rectangle,19.20001173,3.19999361,1,0,0,19.20001173,3.19999361,1,0,0,0,95,95,146,1,,,,,,,,
,,,,,,,,,,,,,FF,,,,,,,,1.5835,,,,,,,,,,,,,,,,,,,,,,605b29e2f13cbd20e9be8834,60e560d6be3c26a30d44d4c6,2021-07-07_10h17.03.405,Simcolourproject_2stim_asymm_v5,2020.2.10,Win32,60,60e52e7cfedb1dae636df45f,,,,,,,,,4194,92.80001283,33.59999406,1,0,0,response1disk,,6,16.00001168,5.599993646,1,0,0,rectangle,16.00001168,5.599993646,1,0,0,16.00001168,5.599993646,1,0,0,0,96,96,83,1,,,,,,,,
,,,,,,,,,,,,,FF,,,,,,,,1.0503,,,,,,,,,,,,,,,,,,,,,,605b29e2f13cbd20e9be8834,60e560d6be3c26a30d44d4c6,2021-07-07_10h17.03.405,Simcolourproject_2stim_asymm_v5,2020.2.10,Win32,60,60e52e7cfedb1dae636df45f,,,,,,,,,60,47.20001215,90.39999491,1,0,0,response1disk,,7,18.00001171,-8.400006562,1,0,0,rectangle,18.00001171,-8.400006562,1,0,0,18.00001171,-8.400006562,1,0,0,0,97,97,37,1,,,,,,,,
,,,,,,,,,,,,,FF,,,,,,,,0.6836,,,,,,,,,,,,,,,,,,,,,,605b29e2f13cbd20e9be8834,60e560d6be3c26a30d44d4c6,2021-07-07_10h17.03.405,Simcolourproject_2stim_asymm_v5,2020.2.10,Win32,60,60e52e7cfedb1dae636df45f,,,,,,,,,2003,40.00001204,86.39999485,1,0,0,response1disk,,7,18.00001171,-12.40000662,1,0,0,rectangle,18.00001171,-12.40000662,1,0,0,18.00001171,-12.40000662,1,0,0,0,98,98,75,1,,,,,,,,
,,,,,,,,,,,,,FF,,,,,,,,1.0168,,,,,,,,,,,,,,,,,,,,,,605b29e2f13cbd20e9be8834,60e560d6be3c26a30d44d4c6,2021-07-07_10h17.03.405,Simcolourproject_2stim_asymm_v5,2020.2.10,Win32,60,60e52e7cfedb1dae636df45f,,,,,,,,,3843,-43.99998921,86.39999485,1,0,0,response7disk,,0,-11.99998873,-2.400006473,1,0,0,rectangle,-43.99998921,-106.400008,1,0,0,14.00001165,6.399993658,1,0,0,0,99,99,40,1,,response5disk_3,TRUE,3,3,"[197,100,200,199,102,83,109,7,260,189,92,41,284,119,302,18,197,118,312,192]",1.2832,rectangle
,,,,,,,,,,,,,FF,,,,,,,,1.9836,,,,,,,,,,,,,,,,,,,,,,605b29e2f13cbd20e9be8834,60e560d6be3c26a30d44d4c6,2021-07-07_10h17.03.405,Simcolourproject_2stim_asymm_v5,2020.2.10,Win32,60,60e52e7cfedb1dae636df45f,,,,,,,,,453,50.00001219,99.19997063,1,0,0,response1disk,,7,24.0000118,0.399993569,1,0,0,rectangle,24.0000118,0.399993569,1,0,0,24.0000118,0.399993569,1,0,0,0,100,100,152,1,,,,,,,,
,,,,,,,,,,,,,FF,,,,,,,,2.5582,,,,,,,,,,,,,,,,,,,,,,605b29e2f13cbd20e9be8834,60e560d6be3c26a30d44d4c6,2021-07-07_10h17.03.405,Simcolourproject_2stim_asymm_v5,2020.2.10,Win32,60,60e52e7cfedb1dae636df45f,,,,,,,,,1230,57.2000123,94.39999497,1,0,0,response1disk,,7,10.00001159,-0.400006443,1,0,0,rectangle,40.80001205,-112.4000081,1,0,0,12.80001163,-1.600006461,1,0,0,0,101,101,30,1,,response3disk_3,TRUE,4,4,"[197,100,200,199,102,83,109,7,260,189,92,41,284,119,302,18,197,118,312,192]",1.5834,rectangle
,,,,,,,,,,,,,FF,,,,,,,,1.9505,,,,,,,,,,,,,,,,,,,,,,605b29e2f13cbd20e9be8834,60e560d6be3c26a30d44d4c6,2021-07-07_10h17.03.405,Simcolourproject_2stim_asymm_v5,2020.2.10,Win32,60,60e52e7cfedb1dae636df45f,,,,,,,,,673,64.80001241,-101.6000568,1,0,0,response3disk,,4,34.00001195,-4.800006509,1,0,0,rectangle,34.00001195,-4.800006509,1,0,0,34.00001195,-4.800006509,1,0,0,0,102,102,44,1,,,,,,,,
,,,,,,,,,,,,,FF,,,,,,,,1.7172,,,,,,,,,,,,,,,,,,,,,,605b29e2f13cbd20e9be8834,60e560d6be3c26a30d44d4c6,2021-07-07_10h17.03.405,Simcolourproject_2stim_asymm_v5,2020.2.10,Win32,60,60e52e7cfedb1dae636df45f,,,,,,,,,2443,114.0000131,26.39999396,1,0,0,response1disk,,6,14.00001165,3.19999361,1,0,0,rectangle,14.00001165,3.19999361,1,0,0,14.00001165,3.19999361,1,0,0,0,103,103,17,1,,,,,,,,
,,,,,,,,,,,,,FF,,,,,,,,0.7165,,,,,,,,,,,,,,,,,,,,,,605b29e2f13cbd20e9be8834,60e560d6be3c26a30d44d4c6,2021-07-07_10h17.03.405,Simcolourproject_2stim_asymm_v5,2020.2.10,Win32,60,60e52e7cfedb1dae636df45f,,,,,,,,,3353,32.00001192,65.19997012,1,0,0,response1disk,,7,24.0000118,8.399993688,1,0,0,rectangle,24.0000118,8.399993688,1,0,0,24.0000118,8.399993688,1,0,0,0,104,104,33,1,,,,,,,,
,,,,,,,,,,,,,FF,,,,,,,,0.9835,,,,,,,,,,,,,,,,,,,,,,605b29e2f13cbd20e9be8834,60e560d6be3c26a30d44d4c6,2021-07-07_10h17.03.405,Simcolourproject_2stim_asymm_v5,2020.2.10,Win32,60,60e52e7cfedb1dae636df45f,,,,,,,,,1317,96.00001287,32.39999405,1,0,0,response1disk,,6,24.0000118,-0.400006443,1,0,0,rectangle,24.0000118,-0.400006443,1,0,0,24.0000118,-0.400006443,1,0,0,0,105,105,124,1,,,,,,,,
,,,,,,,,,,,,,FF,,,,,,,,0.8943,,,,,,,,,,,,,,,,,,,,,,605b29e2f13cbd20e9be8834,60e560d6be3c26a30d44d4c6,2021-07-07_10h17.03.405,Simcolourproject_2stim_asymm_v5,2020.2.10,Win32,60,60e52e7cfedb1dae636df45f,,,,,,,,,30,90.00001279,-57.6000073,1,0,0,response3disk,,5,12.00001162,-6.800006539,1,0,0,rectangle,12.00001162,-6.800006539,1,0,0,12.00001162,-6.800006539,1,0,0,0,106,106,141,1,,,,,,,,
,,,,,,,,,,,,,FF,,,,,,,,0.683,,,,,,,,,,,,,,,,,,,,,,605b29e2f13cbd20e9be8834,60e560d6be3c26a30d44d4c6,2021-07-07_10h17.03.405,Simcolourproject_2stim_asymm_v5,2020.2.10,Win32,60,60e52e7cfedb1dae636df45f,,,,,,,,,2691,82.80001268,-34.40000695,1,0,0,response3disk,,5,31.20001191,-4.800006509,1,0,0,rectangle,31.20001191,-4.800006509,1,0,0,31.20001191,-4.800006509,1,0,0,0,107,107,151,1,,,,,,,,
,,,,,,,,,,,,,FF,,,,,,,,1.6004,,,,,,,,,,,,,,,,,,,,,,605b29e2f13cbd20e9be8834,60e560d6be3c26a30d44d4c6,2021-07-07_10h17.03.405,Simcolourproject_2stim_asymm_v5,2020.2.10,Win32,60,60e52e7cfedb1dae636df45f,,,,,,,,,3383,-42.79998919,-110.8000081,1,0,0,response5disk,,3,0.800011456,-6.800006539,1,0,0,rectangle,88.80001277,-44.4000071,1,0,0,17.2000117,4.399993628,1,0,0,0,108,108,116,1,,response3disk_3,TRUE,5,5,"[197,100,200,199,102,83,109,7,260,189,92,41,284,119,302,18,197,118,312,192]",1.3503,rectangle
,,,,,,,,,,,,,FF,,,,,,,,3.1009,,,,,,,,,,,,,,,,,,,,,,605b29e2f13cbd20e9be8834,60e560d6be3c26a30d44d4c6,2021-07-07_10h17.03.405,Simcolourproject_2stim_asymm_v5,2020.2.10,Win32,60,60e52e7cfedb1dae636df45f,,,,,,,,,1769,88.00001276,25.19996952,1,0,0,response1disk,,6,13.20001164,0.399993569,1,0,0,rectangle,13.20001164,0.399993569,1,0,0,13.20001164,0.399993569,1,0,0,0,109,109,10,1,,,,,,,,
,,,,,,,,,,,,,FF,,,,,,,,1.0336,,,,,,,,,,,,,,,,,,,,,,605b29e2f13cbd20e9be8834,60e560d6be3c26a30d44d4c6,2021-07-07_10h17.03.405,Simcolourproject_2stim_asymm_v5,2020.2.10,Win32,60,60e52e7cfedb1dae636df45f,,,,,,,,,1523,76.80001259,33.19996964,1,0,0,response1disk,,6,32.00001192,-6.400006533,1,0,0,rectangle,32.00001192,-6.400006533,1,0,0,32.00001192,-6.400006533,1,0,0,0,110,110,4,1,,,,,,,,
,,,,,,,,,,,,,FF,,,,,,,,3.001,,,,,,,,,,,,,,,,,,,,,,605b29e2f13cbd20e9be8834,60e560d6be3c26a30d44d4c6,2021-07-07_10h17.03.405,Simcolourproject_2stim_asymm_v5,2020.2.10,Win32,60,60e52e7cfedb1dae636df45f,,,,,,,,,454,84.80001271,17.19999382,1,0,0,response1disk,,6,12.00001162,-8.400006562,1,0,0,rectangle,12.00001162,-8.400006562,1,0,0,12.00001162,-8.400006562,1,0,0,0,111,111,79,1,,,,,,,,
,,,,,,,,,,,,,FF,,,,,,,,1.7337,,,,,,,,,,,,,,,,,,,,,,605b29e2f13cbd20e9be8834,60e560d6be3c26a30d44d4c6,2021-07-07_10h17.03.405,Simcolourproject_2stim_asymm_v5,2020.2.10,Win32,60,60e52e7cfedb1dae636df45f,,,,,,,,,3156,-66.79998955,35.59999409,1,0,0,response7disk,,1,13.20001164,1.199993581,1,0,0,rectangle,13.20001164,1.199993581,1,0,0,13.20001164,1.199993581,1,0,0,0,112,112,84,1,,,,,,,,
,,,,,,,,,,,,,FF,,,,,,,,1.5837,,,,,,,,,,,,,,,,,,,,,,605b29e2f13cbd20e9be8834,60e560d6be3c26a30d44d4c6,2021-07-07_10h17.03.405,Simcolourproject_2stim_asymm_v5,2020.2.10,Win32,60,60e52e7cfedb1dae636df45f,,,,,,,,,3959,-49.9999893,-88.40000775,1,0,0,response5disk,,3,2.000011474,-4.800006509,1,0,0,rectangle,2.000011474,-4.800006509,1,0,0,2.000011474,-4.800006509,1,0,0,0,113,113,97,1,,,,,,,,
,,,,,,,,,,,,,FF,,,,,,,,2.7174,,,,,,,,,,,,,,,,,,,,,,605b29e2f13cbd20e9be8834,60e560d6be3c26a30d44d4c6,2021-07-07_10h17.03.405,Simcolourproject_2stim_asymm_v5,2020.2.10,Win32,60,60e52e7cfedb1dae636df45f,,,,,,,,,3710,66.00001243,-98.4000079,1,0,0,response3disk,,4,38.00001201,0.399993569,1,0,0,rectangle,38.00001201,0.399993569,1,0,0,38.00001201,0.399993569,1,0,0,0,114,114,145,1,,,,,,,,
,,,,,,,,,,,,,FF,,,,,,,,3.2339,,,,,,,,,,,,,,,,,,,,,,605b29e2f13cbd20e9be8834,60e560d6be3c26a30d44d4c6,2021-07-07_10h17.03.405,Simcolourproject_2stim_asymm_v5,2020.2.10,Win32,60,60e52e7cfedb1dae636df45f,,,,,,,,,2295,76.00001258,28.39999399,1,0,0,response1disk,,6,9.200011581,0.399993569,1,0,0,rectangle,9.200011581,0.399993569,1,0,0,9.200011581,0.399993569,1,0,0,0,115,115,73,1,,,,,,,,
,,,,,,,,,,,,,FF,,,,,,,,0.7167,,,,,,,,,,,,,,,,,,,,,,605b29e2f13cbd20e9be8834,60e560d6be3c26a30d44d4c6,2021-07-07_10h17.03.405,Simcolourproject_2stim_asymm_v5,2020.2.10,Win32,60,60e52e7cfedb1dae636df45f,,,,,,,,,1708,30.8000119,70.39999461,1,0,0,response1disk,,7,12.00001162,-1.600006461,1,0,0,rectangle,12.00001162,-1.600006461,1,0,0,12.00001162,-1.600006461,1,0,0,0,116,116,45,1,,,,,,,,
,,,,,,,,,,,,,FF,,,,,,,,0.9671,,,,,,,,,,,,,,,,,,,,,,605b29e2f13cbd20e9be8834,60e560d6be3c26a30d44d4c6,2021-07-07_10h17.03.405,Simcolourproject_2stim_asymm_v5,2020.2.10,Win32,60,60e52e7cfedb1dae636df45f,,,,,,,,,2348,39.20001203,57.19997,1,0,0,response1disk,,7,13.20001164,-1.600006461,1,0,0,rectangle,-97.99999002,-35.60000697,1,0,0,0.800011456,-4.800006509,1,0,0,0,117,117,122,1,,response5disk_3,TRUE,2,2,"[197,100,200,199,102,83,109,7,260,189,92,41,284,119,302,18,197,118,312,192]",1.6502,rectangle
,,,,,,,,,,,,,FF,,,,,,,,0.7168,,,,,,,,,,,,,,,,,,,,,,605b29e2f13cbd20e9be8834,60e560d6be3c26a30d44d4c6,2021-07-07_10h17.03.405,Simcolourproject_2stim_asymm_v5,2020.2.10,Win32,60,60e52e7cfedb1dae636df45f,,,,,,,,,2527,34.00001195,77.1999703,1,0,0,response1disk,,7,18.00001171,-1.600006461,1,0,0,rectangle,87.20001274,40.39999416,1,0,0,18.00001171,6.399993658,1,0,0,0,118,118,60,1,,response1disk_3,TRUE,6,6,"[197,100,200,199,102,83,109,7,260,189,92,41,284,119,302,18,197,118,312,192]",1.6005,rectangle
,,,,,,,,,,,,,FF,,,,,,,,2.3507,,,,,,,,,,,,,,,,,,,,,,605b29e2f13cbd20e9be8834,60e560d6be3c26a30d44d4c6,2021-07-07_10h17.03.405,Simcolourproject_2stim_asymm_v5,2020.2.10,Win32,60,60e52e7cfedb1dae636df45f,,,,,,,,,2722,-30.79998901,-100.4000079,1,0,0,response5disk,,3,13.20001164,0.399993569,1,0,0,rectangle,13.20001164,0.399993569,1,0,0,13.20001164,0.399993569,1,0,0,0,119,119,101,1,,,,,,,,
,,,,,,,,,,,,,FF,,,,,,,,1.9008,,,,,,,,,,,,,,,,,,,,,,605b29e2f13cbd20e9be8834,60e560d6be3c26a30d44d4c6,2021-07-07_10h17.03.405,Simcolourproject_2stim_asymm_v5,2020.2.10,Win32,60,60e52e7cfedb1dae636df45f,,,,,,,,,956,-75.99998969,-33.60000694,1,0,0,response5disk,,2,16.80001169,-5.600006521,1,0,0,rectangle,16.80001169,-5.600006521,1,0,0,16.80001169,-5.600006521,1,0,0,0,120,120,41,1,,,,,,,,
,,,,,,,,,,,,,FF,,,,,,,,1.7339,,,,,,,,,,,,,,,,,,,,,,605b29e2f13cbd20e9be8834,60e560d6be3c26a30d44d4c6,2021-07-07_10h17.03.405,Simcolourproject_2stim_asymm_v5,2020.2.10,Win32,60,60e52e7cfedb1dae636df45f,,,,,,,,,3820,48.80001217,-110.4000081,1,0,0,response3disk,,4,29.20001188,4.399993628,1,0,0,rectangle,29.20001188,4.399993628,1,0,0,29.20001188,4.399993628,1,0,0,0,121,121,2,1,,,,,,,,
,,,,,,,,,,,,,FF,,,,,,,,3.7842,,,,,,,,,,,,,,,,,,,,,,605b29e2f13cbd20e9be8834,60e560d6be3c26a30d44d4c6,2021-07-07_10h17.03.405,Simcolourproject_2stim_asymm_v5,2020.2.10,Win32,60,60e52e7cfedb1dae636df45f,,,,,,,,,340,46.80001214,-93.60005666,1,0,0,response3disk,,4,14.00001165,6.399993658,1,0,0,rectangle,14.00001165,6.399993658,1,0,0,14.00001165,6.399993658,1,0,0,0,122,122,19,1,,,,,,,,
,,,,,,,,,,,,,FF,,,,,,,,1.7842,,,,,,,,,,,,,,,,,,,,,,605b29e2f13cbd20e9be8834,60e560d6be3c26a30d44d4c6,2021-07-07_10h17.03.405,Simcolourproject_2stim_asymm_v5,2020.2.10,Win32,60,60e52e7cfedb1dae636df45f,,,,,,,,,4158,-41.99998918,-109.6000569,1,0,0,response5disk,,3,-3.999988616,-4.800006509,1,0,0,rectangle,-3.999988616,-4.800006509,1,0,0,-3.999988616,-4.800006509,1,0,0,0,123,123,71,1,,,,,,,,
,,,,,,,,,,,,,FF,,,,,,,,1,,,,,,,,,,,,,,,,,,,,,,605b29e2f13cbd20e9be8834,60e560d6be3c26a30d44d4c6,2021-07-07_10h17.03.405,Simcolourproject_2stim_asymm_v5,2020.2.10,Win32,60,60e52e7cfedb1dae636df45f,,,,,,,,,1939,32.80001193,80.39999476,1,0,0,response1disk,,7,4.000011504,5.599993646,1,0,0,rectangle,4.000011504,5.599993646,1,0,0,4.000011504,5.599993646,1,0,0,0,124,124,123,1,,,,,,,,
,,,,,,,,,,,,,FF,,,,,,,,0.7168,,,,,,,,,,,,,,,,,,,,,,605b29e2f13cbd20e9be8834,60e560d6be3c26a30d44d4c6,2021-07-07_10h17.03.405,Simcolourproject_2stim_asymm_v5,2020.2.10,Win32,60,60e52e7cfedb1dae636df45f,,,,,,,,,1439,28.80001187,59.19997003,1,0,0,response1disk,,7,22.00001177,-2.400006473,1,0,0,rectangle,22.00001177,-2.400006473,1,0,0,22.00001177,-2.400006473,1,0,0,0,125,125,76,1,,,,,,,,
,,,,,,,,,,,,,FF,,,,,,,,0.7,,,,,,,,,,,,,,,,,,,,,,605b29e2f13cbd20e9be8834,60e560d6be3c26a30d44d4c6,2021-07-07_10h17.03.405,Simcolourproject_2stim_asymm_v5,2020.2.10,Win32,60,60e52e7cfedb1dae636df45f,,,,,,,,,3390,-28.79998899,82.39999479,1,0,0,response7disk,,0,16.80001169,-2.400006473,1,0,0,rectangle,16.80001169,-2.400006473,1,0,0,16.80001169,-2.400006473,1,0,0,0,126,126,126,1,,,,,,,,
,,,,,,,,,,,,,FF,,,,,,,,1.3502,,,,,,,,,,,,,,,,,,,,,,605b29e2f13cbd20e9be8834,60e560d6be3c26a30d44d4c6,2021-07-07_10h17.03.405,Simcolourproject_2stim_asymm_v5,2020.2.10,Win32,60,60e52e7cfedb1dae636df45f,,,,,,,,,20,30.8000119,60.39999446,1,0,0,response1disk,,7,10.00001159,-1.600006461,1,0,0,rectangle,10.00001159,-1.600006461,1,0,0,10.00001159,-1.600006461,1,0,0,0,127,127,111,1,,,,,,,,
,,,,,,,,,,,,,FF,,,,,,,,1.8005,,,,,,,,,,,,,,,,,,,,,,605b29e2f13cbd20e9be8834,60e560d6be3c26a30d44d4c6,2021-07-07_10h17.03.405,Simcolourproject_2stim_asymm_v5,2020.2.10,Win32,60,60e52e7cfedb1dae636df45f,,,,,,,,,3439,-77.99998972,39.19996973,1,0,0,response7disk,,1,10.00001159,4.399993628,1,0,0,rectangle,10.00001159,4.399993628,1,0,0,10.00001159,4.399993628,1,0,0,0,128,128,117,1,,,,,,,,
,,,,,,,,,,,,,FF,,,,,,,,1.1502,,,,,,,,,,,,,,,,,,,,,,605b29e2f13cbd20e9be8834,60e560d6be3c26a30d44d4c6,2021-07-07_10h17.03.405,Simcolourproject_2stim_asymm_v5,2020.2.10,Win32,60,60e52e7cfedb1dae636df45f,,,,,,,,,4297,79.20001262,-37.600007,1,0,0,response3disk,,5,12.00001162,6.399993658,1,0,0,rectangle,12.00001162,6.399993658,1,0,0,12.00001162,6.399993658,1,0,0,0,129,129,69,1,,,,,,,,
,,,,,,,,,,,,,FF,,,,,,,,0.6172,,,,,,,,,,,,,,,,,,,,,,605b29e2f13cbd20e9be8834,60e560d6be3c26a30d44d4c6,2021-07-07_10h17.03.405,Simcolourproject_2stim_asymm_v5,2020.2.10,Win32,60,60e52e7cfedb1dae636df45f,,,,,,,,,2149,54.80001226,81.19997036,1,0,0,response1disk,,7,22.00001177,5.599993646,1,0,0,rectangle,22.00001177,5.599993646,1,0,0,22.00001177,5.599993646,1,0,0,0,130,130,91,1,,,,,,,,
,,,,,,,,,,,,,FF,,,,,,,,0.6338,,,,,,,,,,,,,,,,,,,,,,605b29e2f13cbd20e9be8834,60e560d6be3c26a30d44d4c6,2021-07-07_10h17.03.405,Simcolourproject_2stim_asymm_v5,2020.2.10,Win32,60,60e52e7cfedb1dae636df45f,,,,,,,,,1085,22.00001177,65.19997012,1,0,0,response1disk,,7,17.2000117,-0.400006443,1,0,0,rectangle,17.2000117,-0.400006443,1,0,0,17.2000117,-0.400006443,1,0,0,0,131,131,113,1,,,,,,,,
,,,,,,,,,,,,,FF,,,,,,,,2.0334,,,,,,,,,,,,,,,,,,,,,,605b29e2f13cbd20e9be8834,60e560d6be3c26a30d44d4c6,2021-07-07_10h17.03.405,Simcolourproject_2stim_asymm_v5,2020.2.10,Win32,60,60e52e7cfedb1dae636df45f,,,,,,,,,2720,52.80001223,-102.800008,1,0,0,response3disk,,4,10.00001159,4.399993628,1,0,0,rectangle,10.00001159,4.399993628,1,0,0,10.00001159,4.399993628,1,0,0,0,132,132,93,1,,,,,,,,
,,,,,,,,,,,,,FF,,,,,,,,1.5173,,,,,,,,,,,,,,,,,,,,,,605b29e2f13cbd20e9be8834,60e560d6be3c26a30d44d4c6,2021-07-07_10h17.03.405,Simcolourproject_2stim_asymm_v5,2020.2.10,Win32,60,60e52e7cfedb1dae636df45f,,,,,,,,,2622,48.00001216,-87.60005657,1,0,0,response3disk,,4,12.00001162,-10.8000066,1,0,0,rectangle,12.00001162,-10.8000066,1,0,0,12.00001162,-10.8000066,1,0,0,0,133,133,127,1,,,,,,,,
,,,,,,,,,,,,,FF,,,,,,,,0.8668,,,,,,,,,,,,,,,,,,,,,,605b29e2f13cbd20e9be8834,60e560d6be3c26a30d44d4c6,2021-07-07_10h17.03.405,Simcolourproject_2stim_asymm_v5,2020.2.10,Win32,60,60e52e7cfedb1dae636df45f,,,,,,,,,1722,48.00001216,71.19997021,1,0,0,response1disk,,7,37.200012,5.599993646,1,0,0,rectangle,37.200012,5.599993646,1,0,0,37.200012,5.599993646,1,0,0,0,134,134,49,1,,,,,,,,
,,,,,,,,,,,,,FF,,,,,,,,1.2836,,,,,,,,,,,,,,,,,,,,,,605b29e2f13cbd20e9be8834,60e560d6be3c26a30d44d4c6,2021-07-07_10h17.03.405,Simcolourproject_2stim_asymm_v5,2020.2.10,Win32,60,60e52e7cfedb1dae636df45f,,,,,,,,,773,46.00001213,64.39999452,1,0,0,response1disk,,7,6.000011533,4.399993628,1,0,0,rectangle,6.000011533,4.399993628,1,0,0,6.000011533,4.399993628,1,0,0,0,135,135,102,1,,,,,,,,
,,,,,,,,,,,,,FF,,,,,,,,1.5169,,,,,,,,,,,,,,,,,,,,,,605b29e2f13cbd20e9be8834,60e560d6be3c26a30d44d4c6,2021-07-07_10h17.03.405,Simcolourproject_2stim_asymm_v5,2020.2.10,Win32,60,60e52e7cfedb1dae636df45f,,,,,,,,,644,40.00001204,-78.80000761,1,0,0,response3disk,,4,28.00001186,0.399993569,1,0,0,rectangle,28.00001186,0.399993569,1,0,0,28.00001186,0.399993569,1,0,0,0,136,136,107,1,,,,,,,,
,,,,,,,,,,,,,FF,,,,,,,,0.8499,,,,,,,,,,,,,,,,,,,,,,605b29e2f13cbd20e9be8834,60e560d6be3c26a30d44d4c6,2021-07-07_10h17.03.405,Simcolourproject_2stim_asymm_v5,2020.2.10,Win32,60,60e52e7cfedb1dae636df45f,,,,,,,,,2767,41.20001206,65.19997012,1,0,0,response1disk,,7,18.00001171,-2.400006473,1,0,0,rectangle,18.00001171,-2.400006473,1,0,0,18.00001171,-2.400006473,1,0,0,0,137,137,130,1,,,,,,,,
,,,,,,,,,,,,,FF,,,,,,,,0.6336,,,,,,,,,,,,,,,,,,,,,,605b29e2f13cbd20e9be8834,60e560d6be3c26a30d44d4c6,2021-07-07_10h17.03.405,Simcolourproject_2stim_asymm_v5,2020.2.10,Win32,60,60e52e7cfedb1dae636df45f,,,,,,,,,4061,28.80001187,52.39999434,1,0,0,response1disk,,7,14.00001165,-4.800006509,1,0,0,rectangle,14.00001165,-4.800006509,1,0,0,14.00001165,-4.800006509,1,0,0,0,138,138,1,1,,,,,,,,
,,,,,,,,,,,,,FF,,,,,,,,1.4504,,,,,,,,,,,,,,,,,,,,,,605b29e2f13cbd20e9be8834,60e560d6be3c26a30d44d4c6,2021-07-07_10h17.03.405,Simcolourproject_2stim_asymm_v5,2020.2.10,Win32,60,60e52e7cfedb1dae636df45f,,,,,,,,,3382,-47.99998927,82.39999479,1,0,0,response7disk,,0,6.800011545,3.599993616,1,0,0,rectangle,6.800011545,3.599993616,1,0,0,6.800011545,3.599993616,1,0,0,0,139,139,150,1,,,,,,,,
,,,,,,,,,,,,,FF,,,,,,,,1.2834,,,,,,,,,,,,,,,,,,,,,,605b29e2f13cbd20e9be8834,60e560d6be3c26a30d44d4c6,2021-07-07_10h17.03.405,Simcolourproject_2stim_asymm_v5,2020.2.10,Win32,60,60e52e7cfedb1dae636df45f,,,,,,,,,1378,-37.99998912,-66.40000743,1,0,0,response5disk,,3,7.200011551,4.399993628,1,0,0,rectangle,7.200011551,4.399993628,1,0,0,7.200011551,4.399993628,1,0,0,0,140,140,58,1,,,,,,,,
,,,,,,,,,,,,,FF,,,,,,,,1.9004,,,,,,,,,,,,,,,,,,,,,,605b29e2f13cbd20e9be8834,60e560d6be3c26a30d44d4c6,2021-07-07_10h17.03.405,Simcolourproject_2stim_asymm_v5,2020.2.10,Win32,60,60e52e7cfedb1dae636df45f,,,,,,,,,565,83.20001268,25.19996952,1,0,0,response1disk,,6,14.00001165,-4.400006503,1,0,0,rectangle,14.00001165,-4.400006503,1,0,0,14.00001165,-4.400006503,1,0,0,0,141,141,31,1,,,,,,,,
,,,,,,,,,,,,,FF,,,,,,,,0.9338,,,,,,,,,,,,,,,,,,,,,,605b29e2f13cbd20e9be8834,60e560d6be3c26a30d44d4c6,2021-07-07_10h17.03.405,Simcolourproject_2stim_asymm_v5,2020.2.10,Win32,60,60e52e7cfedb1dae636df45f,,,,,,,,,1285,51.20001221,85.19997042,1,0,0,response1disk,,7,10.00001159,-9.60000658,1,0,0,rectangle,10.00001159,-9.60000658,1,0,0,10.00001159,-9.60000658,1,0,0,0,142,142,54,1,,,,,,,,
,,,,,,,,,,,,,FF,,,,,,,,0.7337,,,,,,,,,,,,,,,,,,,,,,605b29e2f13cbd20e9be8834,60e560d6be3c26a30d44d4c6,2021-07-07_10h17.03.405,Simcolourproject_2stim_asymm_v5,2020.2.10,Win32,60,60e52e7cfedb1dae636df45f,,,,,,,,,276,-36.7999891,72.39999464,1,0,0,response7disk,,0,6.800011545,-13.60000664,1,0,0,rectangle,6.800011545,-13.60000664,1,0,0,6.800011545,-13.60000664,1,0,0,0,143,143,143,1,,,,,,,,
,,,,,,,,,,,,,FF,,,,,,,,1.167,,,,,,,,,,,,,,,,,,,,,,605b29e2f13cbd20e9be8834,60e560d6be3c26a30d44d4c6,2021-07-07_10h17.03.405,Simcolourproject_2stim_asymm_v5,2020.2.10,Win32,60,60e52e7cfedb1dae636df45f,,,,,,,,,1806,52.00001222,61.19997006,1,0,0,response1disk,,7,29.20001188,3.599993616,1,0,0,rectangle,29.20001188,3.599993616,1,0,0,29.20001188,3.599993616,1,0,0,0,144,144,139,1,,,,,,,,
,,,,,,,,,,,,,FF,,,,,,,,1.8506,,,,,,,,,,,,,,,,,,,,,,605b29e2f13cbd20e9be8834,60e560d6be3c26a30d44d4c6,2021-07-07_10h17.03.405,Simcolourproject_2stim_asymm_v5,2020.2.10,Win32,60,60e52e7cfedb1dae636df45f,,,,,,,,,3374,66.00001243,26.39999396,1,0,0,response1disk,,6,8.000011563,-8.400006562,1,0,0,rectangle,8.000011563,-8.400006562,1,0,0,8.000011563,-8.400006562,1,0,0,0,145,145,104,1,,,,,,,,
,,,,,,,,,,,,,FF,,,,,,,,1.384,,,,,,,,,,,,,,,,,,,,,,605b29e2f13cbd20e9be8834,60e560d6be3c26a30d44d4c6,2021-07-07_10h17.03.405,Simcolourproject_2stim_asymm_v5,2020.2.10,Win32,60,60e52e7cfedb1dae636df45f,,,,,,,,,403,31.20001191,56.3999944,1,0,0,response1disk,,7,14.80001166,6.399993658,1,0,0,rectangle,14.80001166,6.399993658,1,0,0,14.80001166,6.399993658,1,0,0,0,146,146,109,1,,,,,,,,
,,,,,,,,,,,,,FF,,,,,,,,1.3169,,,,,,,,,,,,,,,,,,,,,,605b29e2f13cbd20e9be8834,60e560d6be3c26a30d44d4c6,2021-07-07_10h17.03.405,Simcolourproject_2stim_asymm_v5,2020.2.10,Win32,60,60e52e7cfedb1dae636df45f,,,,,,,,,2646,28.80001187,42.39999419,1,0,0,response1disk,,7,24.80001181,1.599993587,1,0,0,rectangle,24.80001181,1.599993587,1,0,0,24.80001181,1.599993587,1,0,0,0,147,147,15,1,,,,,,,,
,,,,,,,,,,,,,FF,,,,,,,,3.3507,,,,,,,,,,,,,,,,,,,,,,605b29e2f13cbd20e9be8834,60e560d6be3c26a30d44d4c6,2021-07-07_10h17.03.405,Simcolourproject_2stim_asymm_v5,2020.2.10,Win32,60,60e52e7cfedb1dae636df45f,,,,,,,,,126,30.00001189,43.19996979,1,0,0,response1disk,,7,29.20001188,-5.600006521,1,0,0,rectangle,29.20001188,-5.600006521,1,0,0,29.20001188,-5.600006521,1,0,0,0,148,148,3,1,,,,,,,,
,,,,,,,,,,,,,FF,,,,,,,,2.2838,,,,,,,,,,,,,,,,,,,,,,605b29e2f13cbd20e9be8834,60e560d6be3c26a30d44d4c6,2021-07-07_10h17.03.405,Simcolourproject_2stim_asymm_v5,2020.2.10,Win32,60,60e52e7cfedb1dae636df45f,,,,,,,,,1497,50.8000122,19.19999385,1,0,0,response1disk,,6,37.200012,-4.400006503,1,0,0,rectangle,37.200012,-4.400006503,1,0,0,37.200012,-4.400006503,1,0,0,0,149,149,7,1,,,,,,,,
,,,,,,,,,,,,,FF,,,,,,,,2.4008,,,,,,,,,,,,,,,,,,,,,,605b29e2f13cbd20e9be8834,60e560d6be3c26a30d44d4c6,2021-07-07_10h17.03.405,Simcolourproject_2stim_asymm_v5,2020.2.10,Win32,60,60e52e7cfedb1dae636df45f,,,,,,,,,223,58.00001231,-29.60000688,1,0,0,response3disk,,5,8.000011563,-5.600006521,1,0,0,rectangle,8.000011563,-5.600006521,1,0,0,8.000011563,-5.600006521,1,0,0,0,150,150,135,1,,,,,,,,
,,,,,,,,,,,,,FF,,,,,,,,1.417,,,,,,,,,,,,,,,,,,,,,,605b29e2f13cbd20e9be8834,60e560d6be3c26a30d44d4c6,2021-07-07_10h17.03.405,Simcolourproject_2stim_asymm_v5,2020.2.10,Win32,60,60e52e7cfedb1dae636df45f,,,,,,,,,1824,-72.79998964,23.19996949,1,0,0,response7disk,,1,6.000011533,-8.400006562,1,0,0,rectangle,6.000011533,-8.400006562,1,0,0,6.000011533,-8.400006562,1,0,0,0,151,151,147,1,,,,,,,,
,,,,,,,,,,,,,FF,,,,,,,,0.9171,,,,,,,,,,,,,,,,,,,,,,605b29e2f13cbd20e9be8834,60e560d6be3c26a30d44d4c6,2021-07-07_10h17.03.405,Simcolourproject_2stim_asymm_v5,2020.2.10,Win32,60,60e52e7cfedb1dae636df45f,,,,,,,,,85,49.20001218,74.39999467,1,0,0,response1disk,,7,12.80001163,-2.400006473,1,0,0,rectangle,12.80001163,-2.400006473,1,0,0,12.80001163,-2.400006473,1,0,0,0,152,152,32,1,,,,,,,,
,,,,,,,,,,,,,FF,,,,,,,,1.0336,,,,,,,,,,,,,,,,,,,,,,605b29e2f13cbd20e9be8834,60e560d6be3c26a30d44d4c6,2021-07-07_10h17.03.405,Simcolourproject_2stim_asymm_v5,2020.2.10,Win32,60,60e52e7cfedb1dae636df45f,,,,,,,,,576,36.80001199,46.39999425,1,0,0,response1disk,,7,11.20001161,6.399993658,1,0,0,rectangle,11.20001161,6.399993658,1,0,0,11.20001161,6.399993658,1,0,0,0,153,153,66,1,,,,,,,,
,,,,,,,,,,,,,FF,,,,,,,,1.4673,,,,,,,,,,,,,,,,,,,,,,605b29e2f13cbd20e9be8834,60e560d6be3c26a30d44d4c6,2021-07-07_10h17.03.405,Simcolourproject_2stim_asymm_v5,2020.2.10,Win32,60,60e52e7cfedb1dae636df45f,,,,,,,,,3953,63.20001239,-35.60000697,1,0,0,response3disk,,5,-4.799988627,2.399993598,1,0,0,rectangle,-4.799988627,2.399993598,1,0,0,-4.799988627,2.399993598,1,0,0,0,154,154,22,1,,,,,,,,
,,,,,,,,,,,,,FF,,,,,,,,0.8003,,,,,,,,,,,,,,,,,,,,,,605b29e2f13cbd20e9be8834,60e560d6be3c26a30d44d4c6,2021-07-07_10h17.03.405,Simcolourproject_2stim_asymm_v5,2020.2.10,Win32,60,60e52e7cfedb1dae636df45f,,,,,,,,,919,48.80001217,51.59999433,1,0,0,response1disk,,7,3.200011492,-3.600006491,1,0,0,rectangle,3.200011492,-3.600006491,1,0,0,3.200011492,-3.600006491,1,0,0,0,155,155,108,1,,,,,,,,
,,,,,,,,,,,,,FF,,,,,,,,0.7332,,,,,,,,,,,,,,,,,,,,,,605b29e2f13cbd20e9be8834,60e560d6be3c26a30d44d4c6,2021-07-07_10h17.03.405,Simcolourproject_2stim_asymm_v5,2020.2.10,Win32,60,60e52e7cfedb1dae636df45f,,,,,,,,,1229,32.80001193,55.19996997,1,0,0,response1disk,,7,19.20001173,8.399993688,1,0,0,rectangle,19.20001173,8.399993688,1,0,0,19.20001173,8.399993688,1,0,0,0,156,156,88,1,,,,,,,,
,,,,,,,,,,,,,FF,,,,,,,,0.5733,,,,,,,,,,,,,,,,,,,,,,605b29e2f13cbd20e9be8834,60e560d6be3c26a30d44d4c6,2021-07-07_10h17.03.405,Simcolourproject_2stim_asymm_v5,2020.2.10,Win32,60,60e52e7cfedb1dae636df45f,,,,,,,,,583,30.8000119,56.3999944,1,0,0,response1disk,,7,22.00001177,8.399993688,1,0,0,rectangle,22.00001177,8.399993688,1,0,0,22.00001177,8.399993688,1,0,0,0,157,157,98,1,,,,,,,,
,,,,,,,,,,,,,FF,,,,,,,,0.9503,,,,,,,,,,,,,,,,,,,,,,605b29e2f13cbd20e9be8834,60e560d6be3c26a30d44d4c6,2021-07-07_10h17.03.405,Simcolourproject_2stim_asymm_v5,2020.2.10,Win32,60,60e52e7cfedb1dae636df45f,,,,,,,,,990,32.80001193,58.39999443,1,0,0,response1disk,,7,18.00001171,5.599993646,1,0,0,rectangle,18.00001171,5.599993646,1,0,0,18.00001171,5.599993646,1,0,0,0,158,158,34,1,,,,,,,,
,,,,,,,,,,,,,FF,,,,,,,,1.5005,,,,,,,,,,,,,,,,,,,,,,605b29e2f13cbd20e9be8834,60e560d6be3c26a30d44d4c6,2021-07-07_10h17.03.405,Simcolourproject_2stim_asymm_v5,2020.2.10,Win32,60,60e52e7cfedb1dae636df45f,,,,,,,,,3826,60.80001235,24.39999393,1,0,0,response1disk,,6,32.00001192,2.399993598,1,0,0,rectangle,32.00001192,2.399993598,1,0,0,32.00001192,2.399993598,1,0,0,0,159,159,24,1,,,,,,,,
,,,,,,,,,,,,,FF,,,,,,,,1.5166,,,,,,,,,,,,,,,,,,,,,,605b29e2f13cbd20e9be8834,60e560d6be3c26a30d44d4c6,2021-07-07_10h17.03.405,Simcolourproject_2stim_asymm_v5,2020.2.10,Win32,60,60e52e7cfedb1dae636df45f,,,,,,,,,3967,-47.99998927,32.39999405,1,0,0,response7disk,,1,0.800011456,6.399993658,1,0,0,rectangle,0.800011456,6.399993658,1,0,0,0.800011456,6.399993658,1,0,0,1,0,160,53,1,,,,,,,,
,,,,,,,,,,,,,FF,,,,,,,,2.0671,,,,,,,,,,,,,,,,,,,,,,605b29e2f13cbd20e9be8834,60e560d6be3c26a30d44d4c6,2021-07-07_10h17.03.405,Simcolourproject_2stim_asymm_v5,2020.2.10,Win32,60,60e52e7cfedb1dae636df45f,,,,,,,,,282,46.80001214,-74.40000755,1,0,0,response3disk,,4,10.00001159,7.19999367,1,0,0,rectangle,10.00001159,7.19999367,1,0,0,10.00001159,7.19999367,1,0,0,1,1,161,74,1,,,,,,,,
,,,,,,,,,,,,,FF,,,,,,,,1.3338,,,,,,,,,,,,,,,,,,,,,,605b29e2f13cbd20e9be8834,60e560d6be3c26a30d44d4c6,2021-07-07_10h17.03.405,Simcolourproject_2stim_asymm_v5,2020.2.10,Win32,60,60e52e7cfedb1dae636df45f,,,,,,,,,4047,-47.19998926,-79.60000762,1,0,0,response5disk,,3,19.20001173,0.399993569,1,0,0,rectangle,19.20001173,0.399993569,1,0,0,19.20001173,0.399993569,1,0,0,1,2,162,101,1,,,,,,,,
,,,,,,,,,,,,,FF,,,,,,,,1.1836,,,,,,,,,,,,,,,,,,,,,,605b29e2f13cbd20e9be8834,60e560d6be3c26a30d44d4c6,2021-07-07_10h17.03.405,Simcolourproject_2stim_asymm_v5,2020.2.10,Win32,60,60e52e7cfedb1dae636df45f,,,,,,,,,4102,-43.1999892,-62.40000737,1,0,0,response5disk,,3,-3.199988604,-9.60000658,1,0,0,rectangle,-3.199988604,-9.60000658,1,0,0,-3.199988604,-9.60000658,1,0,0,1,3,163,52,1,,,,,,,,
,,,,,,,,,,,,,FF,,,,,,,,0.9835,,,,,,,,,,,,,,,,,,,,,,605b29e2f13cbd20e9be8834,60e560d6be3c26a30d44d4c6,2021-07-07_10h17.03.405,Simcolourproject_2stim_asymm_v5,2020.2.10,Win32,60,60e52e7cfedb1dae636df45f,,,,,,,,,1570,32.00001192,64.39999452,1,0,0,response1disk,,7,8.800011575,0.399993569,1,0,0,rectangle,8.800011575,0.399993569,1,0,0,8.800011575,0.399993569,1,0,0,1,4,164,0,1,,,,,,,,
,,,,,,,,,,,,,FF,,,,,,,,1.8841,,,,,,,,,,,,,,,,,,,,,,605b29e2f13cbd20e9be8834,60e560d6be3c26a30d44d4c6,2021-07-07_10h17.03.405,Simcolourproject_2stim_asymm_v5,2020.2.10,Win32,60,60e52e7cfedb1dae636df45f,,,,,,,,,57,82.00001267,34.39999408,1,0,0,response1disk,,6,-2.799988598,1.199993581,1,0,0,rectangle,-2.799988598,1.199993581,1,0,0,-2.799988598,1.199993581,1,0,0,1,5,165,132,1,,,,,,,,
,,,,,,,,,,,,,FF,,,,,,,,0.7001,,,,,,,,,,,,,,,,,,,,,,605b29e2f13cbd20e9be8834,60e560d6be3c26a30d44d4c6,2021-07-07_10h17.03.405,Simcolourproject_2stim_asymm_v5,2020.2.10,Win32,60,60e52e7cfedb1dae636df45f,,,,,,,,,3115,26.00001183,54.39999437,1,0,0,response1disk,,7,9.200011581,-2.400006473,1,0,0,rectangle,9.200011581,-2.400006473,1,0,0,9.200011581,-2.400006473,1,0,0,1,6,166,19,1,,,,,,,,
,,,,,,,,,,,,,FF,,,,,,,,0.6833,,,,,,,,,,,,,,,,,,,,,,605b29e2f13cbd20e9be8834,60e560d6be3c26a30d44d4c6,2021-07-07_10h17.03.405,Simcolourproject_2stim_asymm_v5,2020.2.10,Win32,60,60e52e7cfedb1dae636df45f,,,,,,,,,332,39.20001203,61.19997006,1,0,0,response1disk,,7,16.00001168,0.399993569,1,0,0,rectangle,16.00001168,0.399993569,1,0,0,16.00001168,0.399993569,1,0,0,1,7,167,42,1,,,,,,,,
,,,,,,,,,,,,,FF,,,,,,,,0.9501,,,,,,,,,,,,,,,,,,,,,,605b29e2f13cbd20e9be8834,60e560d6be3c26a30d44d4c6,2021-07-07_10h17.03.405,Simcolourproject_2stim_asymm_v5,2020.2.10,Win32,60,60e52e7cfedb1dae636df45f,,,,,,,,,3204,-39.99998915,58.39999443,1,0,0,response7disk,,0,-1.199988574,4.399993628,1,0,0,rectangle,-1.199988574,4.399993628,1,0,0,-1.199988574,4.399993628,1,0,0,1,8,168,91,1,,,,,,,,
,,,,,,,,,,,,,FF,,,,,,,,2.1672,,,,,,,,,,,,,,,,,,,,,,605b29e2f13cbd20e9be8834,60e560d6be3c26a30d44d4c6,2021-07-07_10h17.03.405,Simcolourproject_2stim_asymm_v5,2020.2.10,Win32,60,60e52e7cfedb1dae636df45f,,,,,,,,,1207,-51.99998933,-52.40000722,1,0,0,response5disk,,3,8.000011563,0.399993569,1,0,0,rectangle,8.000011563,0.399993569,1,0,0,8.000011563,0.399993569,1,0,0,1,9,169,4,1,,,,,,,,
,,,,,,,,,,,,,FF,,,,,,,,0.6505,,,,,,,,,,,,,,,,,,,,,,605b29e2f13cbd20e9be8834,60e560d6be3c26a30d44d4c6,2021-07-07_10h17.03.405,Simcolourproject_2stim_asymm_v5,2020.2.10,Win32,60,60e52e7cfedb1dae636df45f,,,,,,,,,1006,36.00001198,58.39999443,1,0,0,response1disk,,7,11.20001161,6.399993658,1,0,0,rectangle,11.20001161,6.399993658,1,0,0,11.20001161,6.399993658,1,0,0,1,10,170,116,1,,,,,,,,
,,,,,,,,,,,,,FF,,,,,,,,1.2169,,,,,,,,,,,,,,,,,,,,,,605b29e2f13cbd20e9be8834,60e560d6be3c26a30d44d4c6,2021-07-07_10h17.03.405,Simcolourproject_2stim_asymm_v5,2020.2.10,Win32,60,60e52e7cfedb1dae636df45f,,,,,,,,,3250,-55.99998939,-32.80000693,1,0,0,response5disk,,2,1.14441E-05,-6.800006539,1,0,0,rectangle,1.14441E-05,-6.800006539,1,0,0,1.14441E-05,-6.800006539,1,0,0,1,11,171,49,1,,,,,,,,
,,,,,,,,,,,,,FF,,,,,,,,1.0671,,,,,,,,,,,,,,,,,,,,,,605b29e2f13cbd20e9be8834,60e560d6be3c26a30d44d4c6,2021-07-07_10h17.03.405,Simcolourproject_2stim_asymm_v5,2020.2.10,Win32,60,60e52e7cfedb1dae636df45f,,,,,,,,,1267,26.00001183,60.39999446,1,0,0,response1disk,,7,7.200011551,-3.600006491,1,0,0,rectangle,7.200011551,-3.600006491,1,0,0,7.200011551,-3.600006491,1,0,0,1,12,172,121,1,,,,,,,,
,,,,,,,,,,,,,FF,,,,,,,,0.7501,,,,,,,,,,,,,,,,,,,,,,605b29e2f13cbd20e9be8834,60e560d6be3c26a30d44d4c6,2021-07-07_10h17.03.405,Simcolourproject_2stim_asymm_v5,2020.2.10,Win32,60,60e52e7cfedb1dae636df45f,,,,,,,,,2557,26.00001183,50.39999431,1,0,0,response1disk,,7,13.20001164,0.399993569,1,0,0,rectangle,13.20001164,0.399993569,1,0,0,13.20001164,0.399993569,1,0,0,1,13,173,88,1,,,,,,,,
,,,,,,,,,,,,,FF,,,,,,,,0.5669,,,,,,,,,,,,,,,,,,,,,,605b29e2f13cbd20e9be8834,60e560d6be3c26a30d44d4c6,2021-07-07_10h17.03.405,Simcolourproject_2stim_asymm_v5,2020.2.10,Win32,60,60e52e7cfedb1dae636df45f,,,,,,,,,4323,28.00001186,57.19997,1,0,0,response1disk,,7,15.20001167,7.599993676,1,0,0,rectangle,15.20001167,7.599993676,1,0,0,15.20001167,7.599993676,1,0,0,1,14,174,58,1,,,,,,,,
,,,,,,,,,,,,,FF,,,,,,,,1.3172,,,,,,,,,,,,,,,,,,,,,,605b29e2f13cbd20e9be8834,60e560d6be3c26a30d44d4c6,2021-07-07_10h17.03.405,Simcolourproject_2stim_asymm_v5,2020.2.10,Win32,60,60e52e7cfedb1dae636df45f,,,,,,,,,4163,-52.79998934,25.19996952,1,0,0,response7disk,,1,0.800011456,-0.400006443,1,0,0,rectangle,0.800011456,-0.400006443,1,0,0,0.800011456,-0.400006443,1,0,0,1,15,175,111,1,,,,,,,,
,,,,,,,,,,,,,FF,,,,,,,,1.6505,,,,,,,,,,,,,,,,,,,,,,605b29e2f13cbd20e9be8834,60e560d6be3c26a30d44d4c6,2021-07-07_10h17.03.405,Simcolourproject_2stim_asymm_v5,2020.2.10,Win32,60,60e52e7cfedb1dae636df45f,,,,,,,,,4159,42.80001208,-90.80000779,1,0,0,response3disk,,4,-3.999988616,4.399993628,1,0,0,rectangle,-3.999988616,4.399993628,1,0,0,-3.999988616,4.399993628,1,0,0,1,16,176,8,1,,,,,,,,
,,,,,,,,,,,,,FF,,,,,,,,1.3169,,,,,,,,,,,,,,,,,,,,,,605b29e2f13cbd20e9be8834,60e560d6be3c26a30d44d4c6,2021-07-07_10h17.03.405,Simcolourproject_2stim_asymm_v5,2020.2.10,Win32,60,60e52e7cfedb1dae636df45f,,,,,,,,,998,42.00001207,-75.60000756,1,0,0,response3disk,,4,-3.999988616,-1.600006461,1,0,0,rectangle,-3.999988616,-1.600006461,1,0,0,-3.999988616,-1.600006461,1,0,0,1,17,177,14,1,,,,,,,,
,,,,,,,,,,,,,FF,,,,,,,,1.0836,,,,,,,,,,,,,,,,,,,,,,605b29e2f13cbd20e9be8834,60e560d6be3c26a30d44d4c6,2021-07-07_10h17.03.405,Simcolourproject_2stim_asymm_v5,2020.2.10,Win32,60,60e52e7cfedb1dae636df45f,,,,,,,,,648,78.00001261,20.39999387,1,0,0,response1disk,,6,23.20001179,-3.600006491,1,0,0,rectangle,23.20001179,-3.600006491,1,0,0,23.20001179,-3.600006491,1,0,0,1,18,178,28,1,,,,,,,,
,,,,,,,,,,,,,FF,,,,,,,,0.7336,,,,,,,,,,,,,,,,,,,,,,605b29e2f13cbd20e9be8834,60e560d6be3c26a30d44d4c6,2021-07-07_10h17.03.405,Simcolourproject_2stim_asymm_v5,2020.2.10,Win32,60,60e52e7cfedb1dae636df45f,,,,,,,,,2741,42.00001207,22.3999939,1,0,0,response1disk,,6,15.20001167,-4.400006503,1,0,0,rectangle,15.20001167,-4.400006503,1,0,0,15.20001167,-4.400006503,1,0,0,1,19,179,59,1,,,,,,,,
,,,,,,,,,,,,,FF,,,,,,,,0.5333,,,,,,,,,,,,,,,,,,,,,,605b29e2f13cbd20e9be8834,60e560d6be3c26a30d44d4c6,2021-07-07_10h17.03.405,Simcolourproject_2stim_asymm_v5,2020.2.10,Win32,60,60e52e7cfedb1dae636df45f,,,,,,,,,1087,26.80001184,47.19996985,1,0,0,response1disk,,7,19.20001173,7.599993676,1,0,0,rectangle,19.20001173,7.599993676,1,0,0,19.20001173,7.599993676,1,0,0,1,20,180,13,1,,,,,,,,
,,,,,,,,,,,,,FF,,,,,,,,0.6667,,,,,,,,,,,,,,,,,,,,,,605b29e2f13cbd20e9be8834,60e560d6be3c26a30d44d4c6,2021-07-07_10h17.03.405,Simcolourproject_2stim_asymm_v5,2020.2.10,Win32,60,60e52e7cfedb1dae636df45f,,,,,,,,,3868,30.8000119,58.39999443,1,0,0,response1disk,,7,11.20001161,10.39999372,1,0,0,rectangle,11.20001161,10.39999372,1,0,0,11.20001161,10.39999372,1,0,0,1,21,181,141,1,,,,,,,,
,,,,,,,,,,,,,FF,,,,,,,,1.1837,,,,,,,,,,,,,,,,,,,,,,605b29e2f13cbd20e9be8834,60e560d6be3c26a30d44d4c6,2021-07-07_10h17.03.405,Simcolourproject_2stim_asymm_v5,2020.2.10,Win32,60,60e52e7cfedb1dae636df45f,,,,,,,,,74,71.20001251,-23.60000679,1,0,0,response3disk,,5,33.20001194,6.399993658,1,0,0,rectangle,33.20001194,6.399993658,1,0,0,33.20001194,6.399993658,1,0,0,1,22,182,98,1,,,,,,,,
,,,,,,,,,,,,,FF,,,,,,,,0.517,,,,,,,,,,,,,,,,,,,,,,605b29e2f13cbd20e9be8834,60e560d6be3c26a30d44d4c6,2021-07-07_10h17.03.405,Simcolourproject_2stim_asymm_v5,2020.2.10,Win32,60,60e52e7cfedb1dae636df45f,,,,,,,,,3800,34.00001195,60.39999446,1,0,0,response1disk,,7,11.20001161,3.599993616,1,0,0,rectangle,11.20001161,3.599993616,1,0,0,11.20001161,3.599993616,1,0,0,1,23,183,117,1,,,,,,,,
,,,,,,,,,,,,,FF,,,,,,,,0.667,,,,,,,,,,,,,,,,,,,,,,605b29e2f13cbd20e9be8834,60e560d6be3c26a30d44d4c6,2021-07-07_10h17.03.405,Simcolourproject_2stim_asymm_v5,2020.2.10,Win32,60,60e52e7cfedb1dae636df45f,,,,,,,,,4062,28.80001187,49.19996988,1,0,0,response1disk,,7,28.00001186,12.39999375,1,0,0,rectangle,28.00001186,12.39999375,1,0,0,28.00001186,12.39999375,1,0,0,1,24,184,70,1,,,,,,,,
,,,,,,,,,,,,,FF,,,,,,,,0.7833,,,,,,,,,,,,,,,,,,,,,,605b29e2f13cbd20e9be8834,60e560d6be3c26a30d44d4c6,2021-07-07_10h17.03.405,Simcolourproject_2stim_asymm_v5,2020.2.10,Win32,60,60e52e7cfedb1dae636df45f,,,,,,,,,3864,34.80001196,57.19997,1,0,0,response1disk,,7,28.80001187,-1.600006461,1,0,0,rectangle,28.80001187,-1.600006461,1,0,0,28.80001187,-1.600006461,1,0,0,1,25,185,131,1,,,,,,,,
,,,,,,,,,,,,,FF,,,,,,,,1.2173,,,,,,,,,,,,,,,,,,,,,,605b29e2f13cbd20e9be8834,60e560d6be3c26a30d44d4c6,2021-07-07_10h17.03.405,Simcolourproject_2stim_asymm_v5,2020.2.10,Win32,60,60e52e7cfedb1dae636df45f,,,,,,,,,832,44.0000121,53.59999436,1,0,0,response1disk,,7,22.00001177,-3.600006491,1,0,0,rectangle,22.00001177,-3.600006491,1,0,0,22.00001177,-3.600006491,1,0,0,1,26,186,158,1,,,,,,,,
,,,,,,,,,,,,,FF,,,,,,,,0.7501,,,,,,,,,,,,,,,,,,,,,,605b29e2f13cbd20e9be8834,60e560d6be3c26a30d44d4c6,2021-07-07_10h17.03.405,Simcolourproject_2stim_asymm_v5,2020.2.10,Win32,60,60e52e7cfedb1dae636df45f,,,,,,,,,2618,30.8000119,49.19996988,1,0,0,response1disk,,7,26.00001183,2.399993598,1,0,0,rectangle,26.00001183,2.399993598,1,0,0,26.00001183,2.399993598,1,0,0,1,27,187,23,1,,,,,,,,
,,,,,,,,,,,,,FF,,,,,,,,1.6672,,,,,,,,,,,,,,,,,,,,,,605b29e2f13cbd20e9be8834,60e560d6be3c26a30d44d4c6,2021-07-07_10h17.03.405,Simcolourproject_2stim_asymm_v5,2020.2.10,Win32,60,60e52e7cfedb1dae636df45f,,,,,,,,,3964,30.8000119,57.19997,1,0,0,response1disk,,7,-6.799988657,0.399993569,1,0,0,rectangle,-93.99998996,39.19996973,1,0,0,-3.999988616,-3.600006491,1,0,0,1,28,188,51,1,,response7disk_3,TRUE,1,1,"[197,100,200,199,102,83,109,7,260,189,92,41,284,119,302,18,197,118,312,192]",1.6999,rectangle
,,,,,,,,,,,,,FF,,,,,,,,2.2836,,,,,,,,,,,,,,,,,,,,,,605b29e2f13cbd20e9be8834,60e560d6be3c26a30d44d4c6,2021-07-07_10h17.03.405,Simcolourproject_2stim_asymm_v5,2020.2.10,Win32,60,60e52e7cfedb1dae636df45f,,,,,,,,,2268,-17.19998881,-64.4000074,1,0,0,response5disk,,3,25.20001182,2.399993598,1,0,0,rectangle,25.20001182,2.399993598,1,0,0,25.20001182,2.399993598,1,0,0,1,29,189,130,1,,,,,,,,
,,,,,,,,,,,,,FF,,,,,,,,0.7332,,,,,,,,,,,,,,,,,,,,,,605b29e2f13cbd20e9be8834,60e560d6be3c26a30d44d4c6,2021-07-07_10h17.03.405,Simcolourproject_2stim_asymm_v5,2020.2.10,Win32,60,60e52e7cfedb1dae636df45f,,,,,,,,,4104,-26.79998896,-62.40000737,1,0,0,response5disk,,3,6.800011545,-8.800006568,1,0,0,rectangle,6.800011545,-8.800006568,1,0,0,6.800011545,-8.800006568,1,0,0,1,30,190,93,1,,,,,,,,
,,,,,,,,,,,,,FF,,,,,,,,0.6335,,,,,,,,,,,,,,,,,,,,,,605b29e2f13cbd20e9be8834,60e560d6be3c26a30d44d4c6,2021-07-07_10h17.03.405,Simcolourproject_2stim_asymm_v5,2020.2.10,Win32,60,60e52e7cfedb1dae636df45f,,,,,,,,,390,66.00001243,-28.40000686,1,0,0,response3disk,,5,11.20001161,11.19999373,1,0,0,rectangle,74.80001256,-34.40000695,1,0,0,23.20001179,4.399993628,1,0,0,1,31,191,31,1,,response3disk_3,TRUE,5,5,"[197,100,200,199,102,83,109,7,260,189,92,41,284,119,302,18,197,118,312,192]",1.617,rectangle
,,,,,,,,,,,,,FF,,,,,,,,1.5506,,,,,,,,,,,,,,,,,,,,,,605b29e2f13cbd20e9be8834,60e560d6be3c26a30d44d4c6,2021-07-07_10h17.03.405,Simcolourproject_2stim_asymm_v5,2020.2.10,Win32,60,60e52e7cfedb1dae636df45f,,,,,,,,,1128,62.00001237,26.39999396,1,0,0,response1disk,,6,-2.799988598,-5.600006521,1,0,0,rectangle,-2.799988598,-5.600006521,1,0,0,-2.799988598,-5.600006521,1,0,0,1,32,192,144,1,,,,,,,,
,,,,,,,,,,,,,FF,,,,,,,,1.9172,,,,,,,,,,,,,,,,,,,,,,605b29e2f13cbd20e9be8834,60e560d6be3c26a30d44d4c6,2021-07-07_10h17.03.405,Simcolourproject_2stim_asymm_v5,2020.2.10,Win32,60,60e52e7cfedb1dae636df45f,,,,,,,,,4360,60.80001235,33.59999406,1,0,0,response1disk,,6,17.2000117,3.599993616,1,0,0,rectangle,17.2000117,3.599993616,1,0,0,17.2000117,3.599993616,1,0,0,1,33,193,36,1,,,,,,,,
,,,,,,,,,,,,,FF,,,,,,,,0.5834,,,,,,,,,,,,,,,,,,,,,,605b29e2f13cbd20e9be8834,60e560d6be3c26a30d44d4c6,2021-07-07_10h17.03.405,Simcolourproject_2stim_asymm_v5,2020.2.10,Win32,60,60e52e7cfedb1dae636df45f,,,,,,,,,1633,26.80001184,50.39999431,1,0,0,response1disk,,7,33.20001194,4.399993628,1,0,0,rectangle,33.20001194,4.399993628,1,0,0,33.20001194,4.399993628,1,0,0,1,34,194,92,1,,,,,,,,
,,,,,,,,,,,,,FF,,,,,,,,2.734,,,,,,,,,,,,,,,,,,,,,,605b29e2f13cbd20e9be8834,60e560d6be3c26a30d44d4c6,2021-07-07_10h17.03.405,Simcolourproject_2stim_asymm_v5,2020.2.10,Win32,60,60e52e7cfedb1dae636df45f,,,,,,,,,48,36.00001198,54.39999437,1,0,0,response1disk,,7,20.00001174,-8.400006562,1,0,0,rectangle,20.00001174,-8.400006562,1,0,0,20.00001174,-8.400006562,1,0,0,1,35,195,145,1,,,,,,,,
,,,,,,,,,,,,,FF,,,,,,,,0.7501,,,,,,,,,,,,,,,,,,,,,,605b29e2f13cbd20e9be8834,60e560d6be3c26a30d44d4c6,2021-07-07_10h17.03.405,Simcolourproject_2stim_asymm_v5,2020.2.10,Win32,60,60e52e7cfedb1dae636df45f,,,,,,,,,3993,-29.999989,80.39999476,1,0,0,response7disk,,0,-1.999988586,7.599993676,1,0,0,rectangle,40.00001204,-86.40000772,1,0,0,18.00001171,9.1999937,1,0,0,1,36,196,9,1,,response3disk_3,TRUE,4,4,"[197,100,200,199,102,83,109,7,260,189,92,41,284,119,302,18,197,118,312,192]",1.6728,rectangle
,,,,,,,,,,,,,FF,,,,,,,,1.3336,,,,,,,,,,,,,,,,,,,,,,605b29e2f13cbd20e9be8834,60e560d6be3c26a30d44d4c6,2021-07-07_10h17.03.405,Simcolourproject_2stim_asymm_v5,2020.2.10,Win32,60,60e52e7cfedb1dae636df45f,,,,,,,,,3166,-46.79998925,-84.40000769,1,0,0,response5disk,,3,-3.999988616,-14.80000666,1,0,0,rectangle,-3.999988616,-14.80000666,1,0,0,-3.999988616,-14.80000666,1,0,0,1,37,197,104,1,,,,,,,,
,,,,,,,,,,,,,FF,,,,,,,,1.3499,,,,,,,,,,,,,,,,,,,,,,605b29e2f13cbd20e9be8834,60e560d6be3c26a30d44d4c6,2021-07-07_10h17.03.405,Simcolourproject_2stim_asymm_v5,2020.2.10,Win32,60,60e52e7cfedb1dae636df45f,,,,,,,,,189,34.80001196,-70.40000749,1,0,0,response3disk,,4,2.000011474,1.199993581,1,0,0,rectangle,-61.99998948,115.1999709,1,0,0,-7.199988663,1.599993587,1,0,0,1,38,198,69,1,,response7disk_3,TRUE,0,0,"[197,100,200,199,102,83,109,7,260,189,92,41,284,119,302,18,197,118,312,192]",1.2831,rectangle
,,,,,,,,,,,,,FF,,,,,,,,1.0667,,,,,,,,,,,,,,,,,,,,,,605b29e2f13cbd20e9be8834,60e560d6be3c26a30d44d4c6,2021-07-07_10h17.03.405,Simcolourproject_2stim_asymm_v5,2020.2.10,Win32,60,60e52e7cfedb1dae636df45f,,,,,,,,,3294,-47.99998927,-33.60000694,1,0,0,response5disk,,2,-9.199988693,-8.800006568,1,0,0,rectangle,-49.9999893,107.1999707,1,0,0,-5.199988633,7.599993676,1,0,0,1,39,199,54,1,,response7disk_3,TRUE,0,0,"[197,100,200,199,102,83,109,7,260,189,92,41,284,119,302,18,197,118,312,192]",1.3172,rectangle
,,,,,,,,,,,,,FF,,,,,,,,1.7502,,,,,,,,,,,,,,,,,,,,,,605b29e2f13cbd20e9be8834,60e560d6be3c26a30d44d4c6,2021-07-07_10h17.03.405,Simcolourproject_2stim_asymm_v5,2020.2.10,Win32,60,60e52e7cfedb1dae636df45f,,,,,,,,,4264,-57.99998942,-38.80000702,1,0,0,response5disk,,2,16.00001168,7.19999367,1,0,0,rectangle,16.00001168,7.19999367,1,0,0,16.00001168,7.19999367,1,0,0,1,40,200,29,1,,,,,,,,
,,,,,,,,,,,,,FF,,,,,,,,1.7021,,,,,,,,,,,,,,,,,,,,,,605b29e2f13cbd20e9be8834,60e560d6be3c26a30d44d4c6,2021-07-07_10h17.03.405,Simcolourproject_2stim_asymm_v5,2020.2.10,Win32,60,60e52e7cfedb1dae636df45f,,,,,,,,,2089,46.00001213,-73.60000753,1,0,0,response3disk,,4,-7.999988675,-13.60000664,1,0,0,rectangle,-7.999988675,-13.60000664,1,0,0,-7.999988675,-13.60000664,1,0,0,1,41,201,55,1,,,,,,,,
,,,,,,,,,,,,,FF,,,,,,,,1.0672,,,,,,,,,,,,,,,,,,,,,,605b29e2f13cbd20e9be8834,60e560d6be3c26a30d44d4c6,2021-07-07_10h17.03.405,Simcolourproject_2stim_asymm_v5,2020.2.10,Win32,60,60e52e7cfedb1dae636df45f,,,,,,,,,226,31.20001191,-54.40000725,1,0,0,response3disk,,4,10.00001159,5.19999364,1,0,0,rectangle,10.00001159,5.19999364,1,0,0,10.00001159,5.19999364,1,0,0,1,42,202,136,1,,,,,,,,
,,,,,,,,,,,,,FF,,,,,,,,1.6338,,,,,,,,,,,,,,,,,,,,,,605b29e2f13cbd20e9be8834,60e560d6be3c26a30d44d4c6,2021-07-07_10h17.03.405,Simcolourproject_2stim_asymm_v5,2020.2.10,Win32,60,60e52e7cfedb1dae636df45f,,,,,,,,,2815,-51.99998933,-26.40000683,1,0,0,response5disk,,2,4.800011516,-5.600006521,1,0,0,rectangle,4.800011516,-5.600006521,1,0,0,4.800011516,-5.600006521,1,0,0,1,43,203,95,1,,,,,,,,
,,,,,,,,,,,,,FF,,,,,,,,0.7503,,,,,,,,,,,,,,,,,,,,,,605b29e2f13cbd20e9be8834,60e560d6be3c26a30d44d4c6,2021-07-07_10h17.03.405,Simcolourproject_2stim_asymm_v5,2020.2.10,Win32,60,60e52e7cfedb1dae636df45f,,,,,,,,,4370,-45.99998924,78.39999473,1,0,0,response7disk,,0,-5.199988633,-9.60000658,1,0,0,rectangle,-5.199988633,-9.60000658,1,0,0,-5.199988633,-9.60000658,1,0,0,1,44,204,38,1,,,,,,,,
,,,,,,,,,,,,,FF,,,,,,,,1.1007,,,,,,,,,,,,,,,,,,,,,,605b29e2f13cbd20e9be8834,60e560d6be3c26a30d44d4c6,2021-07-07_10h17.03.405,Simcolourproject_2stim_asymm_v5,2020.2.10,Win32,60,60e52e7cfedb1dae636df45f,,,,,,,,,2636,36.80001199,51.59999433,1,0,0,response1disk,,7,16.00001168,-9.60000658,1,0,0,rectangle,16.00001168,-9.60000658,1,0,0,16.00001168,-9.60000658,1,0,0,1,45,205,30,1,,,,,,,,
,,,,,,,,,,,,,FF,,,,,,,,1.6669,,,,,,,,,,,,,,,,,,,,,,605b29e2f13cbd20e9be8834,60e560d6be3c26a30d44d4c6,2021-07-07_10h17.03.405,Simcolourproject_2stim_asymm_v5,2020.2.10,Win32,60,60e52e7cfedb1dae636df45f,,,,,,,,,4336,-48.79998928,28.39999399,1,0,0,response7disk,,1,0.800011456,-8.400006562,1,0,0,rectangle,0.800011456,-8.400006562,1,0,0,0.800011456,-8.400006562,1,0,0,1,46,206,21,1,,,,,,,,
,,,,,,,,,,,,,FF,,,,,,,,0.9001,,,,,,,,,,,,,,,,,,,,,,605b29e2f13cbd20e9be8834,60e560d6be3c26a30d44d4c6,2021-07-07_10h17.03.405,Simcolourproject_2stim_asymm_v5,2020.2.10,Win32,60,60e52e7cfedb1dae636df45f,,,,,,,,,3796,-31.99998903,-65.60000741,1,0,0,response5disk,,3,2.000011474,-0.800006449,1,0,0,rectangle,2.000011474,-0.800006449,1,0,0,2.000011474,-0.800006449,1,0,0,1,47,207,80,1,,,,,,,,
,,,,,,,,,,,,,FF,,,,,,,,0.6,,,,,,,,,,,,,,,,,,,,,,605b29e2f13cbd20e9be8834,60e560d6be3c26a30d44d4c6,2021-07-07_10h17.03.405,Simcolourproject_2stim_asymm_v5,2020.2.10,Win32,60,60e52e7cfedb1dae636df45f,,,,,,,,,1417,32.00001192,75.19997027,1,0,0,response1disk,,7,-1.199988574,-3.600006491,1,0,0,rectangle,-1.199988574,-3.600006491,1,0,0,-1.199988574,-3.600006491,1,0,0,1,48,208,85,1,,,,,,,,
,,,,,,,,,,,,,FF,,,,,,,,0.75,,,,,,,,,,,,,,,,,,,,,,605b29e2f13cbd20e9be8834,60e560d6be3c26a30d44d4c6,2021-07-07_10h17.03.405,Simcolourproject_2stim_asymm_v5,2020.2.10,Win32,60,60e52e7cfedb1dae636df45f,,,,,,,,,1998,32.80001193,67.19997015,1,0,0,response1disk,,7,32.00001192,6.399993658,1,0,0,rectangle,32.00001192,6.399993658,1,0,0,32.00001192,6.399993658,1,0,0,1,49,209,103,1,,,,,,,,
,,,,,,,,,,,,,FF,,,,,,,,1.0333,,,,,,,,,,,,,,,,,,,,,,605b29e2f13cbd20e9be8834,60e560d6be3c26a30d44d4c6,2021-07-07_10h17.03.405,Simcolourproject_2stim_asymm_v5,2020.2.10,Win32,60,60e52e7cfedb1dae636df45f,,,,,,,,,4017,34.80001196,-65.60000741,1,0,0,response3disk,,4,18.00001171,-7.600006551,1,0,0,rectangle,18.00001171,-7.600006551,1,0,0,18.00001171,-7.600006551,1,0,0,1,50,210,66,1,,,,,,,,
,,,,,,,,,,,,,FF,,,,,,,,0.8836,,,,,,,,,,,,,,,,,,,,,,605b29e2f13cbd20e9be8834,60e560d6be3c26a30d44d4c6,2021-07-07_10h17.03.405,Simcolourproject_2stim_asymm_v5,2020.2.10,Win32,60,60e52e7cfedb1dae636df45f,,,,,,,,,1822,-35.99998909,65.19997012,1,0,0,response7disk,,0,2.800011486,0.399993569,1,0,0,rectangle,2.800011486,0.399993569,1,0,0,2.800011486,0.399993569,1,0,0,1,51,211,115,1,,,,,,,,
,,,,,,,,,,,,,FF,,,,,,,,2.1675,,,,,,,,,,,,,,,,,,,,,,605b29e2f13cbd20e9be8834,60e560d6be3c26a30d44d4c6,2021-07-07_10h17.03.405,Simcolourproject_2stim_asymm_v5,2020.2.10,Win32,60,60e52e7cfedb1dae636df45f,,,,,,,,,2306,-20.79998887,-64.4000074,1,0,0,response5disk,,3,10.80001161,13.19999376,1,0,0,rectangle,10.80001161,13.19999376,1,0,0,10.80001161,13.19999376,1,0,0,1,52,212,43,1,,,,,,,,
,,,,,,,,,,,,,FF,,,,,,,,0.9669,,,,,,,,,,,,,,,,,,,,,,605b29e2f13cbd20e9be8834,60e560d6be3c26a30d44d4c6,2021-07-07_10h17.03.405,Simcolourproject_2stim_asymm_v5,2020.2.10,Win32,60,60e52e7cfedb1dae636df45f,,,,,,,,,1527,-43.99998921,-44.8000071,1,0,0,response5disk,,3,24.80001181,0.399993569,1,0,0,rectangle,24.80001181,0.399993569,1,0,0,24.80001181,0.399993569,1,0,0,1,53,213,65,1,,,,,,,,
,,,,,,,,,,,,,FF,,,,,,,,0.767,,,,,,,,,,,,,,,,,,,,,,605b29e2f13cbd20e9be8834,60e560d6be3c26a30d44d4c6,2021-07-07_10h17.03.405,Simcolourproject_2stim_asymm_v5,2020.2.10,Win32,60,60e52e7cfedb1dae636df45f,,,,,,,,,1775,40.00001204,53.19996994,1,0,0,response1disk,,7,6.000011533,-12.40000662,1,0,0,rectangle,6.000011533,-12.40000662,1,0,0,6.000011533,-12.40000662,1,0,0,1,54,214,48,1,,,,,,,,
,,,,,,,,,,,,,FF,,,,,,,,0.6336,,,,,,,,,,,,,,,,,,,,,,605b29e2f13cbd20e9be8834,60e560d6be3c26a30d44d4c6,2021-07-07_10h17.03.405,Simcolourproject_2stim_asymm_v5,2020.2.10,Win32,60,60e52e7cfedb1dae636df45f,,,,,,,,,209,26.00001183,55.19996997,1,0,0,response1disk,,7,16.00001168,11.59999374,1,0,0,rectangle,16.00001168,11.59999374,1,0,0,16.00001168,11.59999374,1,0,0,1,55,215,72,1,,,,,,,,
,,,,,,,,,,,,,FF,,,,,,,,0.5502,,,,,,,,,,,,,,,,,,,,,,605b29e2f13cbd20e9be8834,60e560d6be3c26a30d44d4c6,2021-07-07_10h17.03.405,Simcolourproject_2stim_asymm_v5,2020.2.10,Win32,60,60e52e7cfedb1dae636df45f,,,,,,,,,2699,34.00001195,53.19996994,1,0,0,response1disk,,7,33.20001194,5.599993646,1,0,0,rectangle,33.20001194,5.599993646,1,0,0,33.20001194,5.599993646,1,0,0,1,56,216,109,1,,,,,,,,
,,,,,,,,,,,,,FF,,,,,,,,0.6666,,,,,,,,,,,,,,,,,,,,,,605b29e2f13cbd20e9be8834,60e560d6be3c26a30d44d4c6,2021-07-07_10h17.03.405,Simcolourproject_2stim_asymm_v5,2020.2.10,Win32,60,60e52e7cfedb1dae636df45f,,,,,,,,,147,36.00001198,44.39999422,1,0,0,response1disk,,7,14.00001165,-1.600006461,1,0,0,rectangle,14.00001165,-1.600006461,1,0,0,14.00001165,-1.600006461,1,0,0,1,57,217,96,1,,,,,,,,
,,,,,,,,,,,,,FF,,,,,,,,0.5999,,,,,,,,,,,,,,,,,,,,,,605b29e2f13cbd20e9be8834,60e560d6be3c26a30d44d4c6,2021-07-07_10h17.03.405,Simcolourproject_2stim_asymm_v5,2020.2.10,Win32,60,60e52e7cfedb1dae636df45f,,,,,,,,,473,36.00001198,61.19997006,1,0,0,response1disk,,7,4.000011504,5.599993646,1,0,0,rectangle,4.000011504,5.599993646,1,0,0,4.000011504,5.599993646,1,0,0,1,58,218,60,1,,,,,,,,
,,,,,,,,,,,,,FF,,,,,,,,0.9453,,,,,,,,,,,,,,,,,,,,,,605b29e2f13cbd20e9be8834,60e560d6be3c26a30d44d4c6,2021-07-07_10h17.03.405,Simcolourproject_2stim_asymm_v5,2020.2.10,Win32,60,60e52e7cfedb1dae636df45f,,,,,,,,,581,22.00001177,56.3999944,1,0,0,response1disk,,7,8.000011563,3.599993616,1,0,0,rectangle,8.000011563,3.599993616,1,0,0,8.000011563,3.599993616,1,0,0,1,59,219,39,1,,,,,,,,
,,,,,,,,,,,,,FF,,,,,,,,0.9005,,,,,,,,,,,,,,,,,,,,,,605b29e2f13cbd20e9be8834,60e560d6be3c26a30d44d4c6,2021-07-07_10h17.03.405,Simcolourproject_2stim_asymm_v5,2020.2.10,Win32,60,60e52e7cfedb1dae636df45f,,,,,,,,,4294,-76.7999897,-20.80000675,1,0,0,response5disk,,2,-9.999988705,4.399993628,1,0,0,rectangle,-9.999988705,4.399993628,1,0,0,-9.999988705,4.399993628,1,0,0,1,60,220,146,1,,,,,,,,
,,,,,,,,,,,,,FF,,,,,,,,0.7187,,,,,,,,,,,,,,,,,,,,,,605b29e2f13cbd20e9be8834,60e560d6be3c26a30d44d4c6,2021-07-07_10h17.03.405,Simcolourproject_2stim_asymm_v5,2020.2.10,Win32,60,60e52e7cfedb1dae636df45f,,,,,,,,,96,-35.99998909,-63.60000739,1,0,0,response5disk,,3,12.80001163,-9.60000658,1,0,0,rectangle,12.80001163,-9.60000658,1,0,0,12.80001163,-9.60000658,1,0,0,1,61,221,137,1,,,,,,,,
,,,,,,,,,,,,,FF,,,,,,,,1.2004,,,,,,,,,,,,,,,,,,,,,,605b29e2f13cbd20e9be8834,60e560d6be3c26a30d44d4c6,2021-07-07_10h17.03.405,Simcolourproject_2stim_asymm_v5,2020.2.10,Win32,60,60e52e7cfedb1dae636df45f,,,,,,,,,4048,34.00001195,-63.60000739,1,0,0,response3disk,,4,4.000011504,1.199993581,1,0,0,rectangle,4.000011504,1.199993581,1,0,0,4.000011504,1.199993581,1,0,0,1,62,222,113,1,,,,,,,,
,,,,,,,,,,,,,FF,,,,,,,,1.4003,,,,,,,,,,,,,,,,,,,,,,605b29e2f13cbd20e9be8834,60e560d6be3c26a30d44d4c6,2021-07-07_10h17.03.405,Simcolourproject_2stim_asymm_v5,2020.2.10,Win32,60,60e52e7cfedb1dae636df45f,,,,,,,,,856,28.00001186,37.1999697,1,0,0,response1disk,,7,2.000011474,-2.400006473,1,0,0,rectangle,2.000011474,-2.400006473,1,0,0,2.000011474,-2.400006473,1,0,0,1,63,223,82,1,,,,,,,,
,,,,,,,,,,,,,FF,,,,,,,,0.8334,,,,,,,,,,,,,,,,,,,,,,605b29e2f13cbd20e9be8834,60e560d6be3c26a30d44d4c6,2021-07-07_10h17.03.405,Simcolourproject_2stim_asymm_v5,2020.2.10,Win32,60,60e52e7cfedb1dae636df45f,,,,,,,,,392,42.00001207,43.19996979,1,0,0,response1disk,,7,12.00001162,2.399993598,1,0,0,rectangle,12.00001162,2.399993598,1,0,0,12.00001162,2.399993598,1,0,0,1,64,224,105,1,,,,,,,,
,,,,,,,,,,,,,FF,,,,,,,,0.7669,,,,,,,,,,,,,,,,,,,,,,605b29e2f13cbd20e9be8834,60e560d6be3c26a30d44d4c6,2021-07-07_10h17.03.405,Simcolourproject_2stim_asymm_v5,2020.2.10,Win32,60,60e52e7cfedb1dae636df45f,,,,,,,,,1838,28.00001186,45.19996982,1,0,0,response1disk,,7,25.20001182,0.399993569,1,0,0,rectangle,25.20001182,0.399993569,1,0,0,25.20001182,0.399993569,1,0,0,1,65,225,120,1,,,,,,,,
,,,,,,,,,,,,,FF,,,,,,,,1.1167,,,,,,,,,,,,,,,,,,,,,,605b29e2f13cbd20e9be8834,60e560d6be3c26a30d44d4c6,2021-07-07_10h17.03.405,Simcolourproject_2stim_asymm_v5,2020.2.10,Win32,60,60e52e7cfedb1dae636df45f,,,,,,,,,4238,26.00001183,-71.6000075,1,0,0,response3disk,,4,23.20001179,1.199993581,1,0,0,rectangle,23.20001179,1.199993581,1,0,0,23.20001179,1.199993581,1,0,0,1,66,226,107,1,,,,,,,,
,,,,,,,,,,,,,FF,,,,,,,,1.1331,,,,,,,,,,,,,,,,,,,,,,605b29e2f13cbd20e9be8834,60e560d6be3c26a30d44d4c6,2021-07-07_10h17.03.405,Simcolourproject_2stim_asymm_v5,2020.2.10,Win32,60,60e52e7cfedb1dae636df45f,,,,,,,,,1994,22.00001177,69.19997018,1,0,0,response1disk,,7,12.00001162,6.399993658,1,0,0,rectangle,12.00001162,6.399993658,1,0,0,12.00001162,6.399993658,1,0,0,1,67,227,37,1,,,,,,,,
,,,,,,,,,,,,,FF,,,,,,,,1.0003,,,,,,,,,,,,,,,,,,,,,,605b29e2f13cbd20e9be8834,60e560d6be3c26a30d44d4c6,2021-07-07_10h17.03.405,Simcolourproject_2stim_asymm_v5,2020.2.10,Win32,60,60e52e7cfedb1dae636df45f,,,,,,,,,1011,48.00001216,53.19996994,1,0,0,response1disk,,7,11.20001161,-3.600006491,1,0,0,rectangle,11.20001161,-3.600006491,1,0,0,11.20001161,-3.600006491,1,0,0,1,68,228,86,1,,,,,,,,
,,,,,,,,,,,,,FF,,,,,,,,0.6169,,,,,,,,,,,,,,,,,,,,,,605b29e2f13cbd20e9be8834,60e560d6be3c26a30d44d4c6,2021-07-07_10h17.03.405,Simcolourproject_2stim_asymm_v5,2020.2.10,Win32,60,60e52e7cfedb1dae636df45f,,,,,,,,,1119,30.00001189,48.39999428,1,0,0,response1disk,,7,16.00001168,11.59999374,1,0,0,rectangle,16.00001168,11.59999374,1,0,0,16.00001168,11.59999374,1,0,0,1,69,229,26,1,,,,,,,,
,,,,,,,,,,,,,FF,,,,,,,,1.6733,,,,,,,,,,,,,,,,,,,,,,605b29e2f13cbd20e9be8834,60e560d6be3c26a30d44d4c6,2021-07-07_10h17.03.405,Simcolourproject_2stim_asymm_v5,2020.2.10,Win32,60,60e52e7cfedb1dae636df45f,,,,,,,,,995,72.80001253,34.39999408,1,0,0,response1disk,,6,18.00001171,3.599993616,1,0,0,rectangle,18.00001171,3.599993616,1,0,0,18.00001171,3.599993616,1,0,0,1,70,230,45,1,,,,,,,,
,,,,,,,,,,,,,FF,,,,,,,,0.8403,,,,,,,,,,,,,,,,,,,,,,605b29e2f13cbd20e9be8834,60e560d6be3c26a30d44d4c6,2021-07-07_10h17.03.405,Simcolourproject_2stim_asymm_v5,2020.2.10,Win32,60,60e52e7cfedb1dae636df45f,,,,,,,,,3216,26.80001184,59.19997003,1,0,0,response1disk,,7,11.20001161,9.599993706,1,0,0,rectangle,11.20001161,9.599993706,1,0,0,11.20001161,9.599993706,1,0,0,1,71,231,75,1,,,,,,,,
,,,,,,,,,,,,,FF,,,,,,,,1.8171,,,,,,,,,,,,,,,,,,,,,,605b29e2f13cbd20e9be8834,60e560d6be3c26a30d44d4c6,2021-07-07_10h17.03.405,Simcolourproject_2stim_asymm_v5,2020.2.10,Win32,60,60e52e7cfedb1dae636df45f,,,,,,,,,2450,65.20001242,87.19997045,1,0,0,response1disk,,7,8.000011563,9.1999937,1,0,0,rectangle,8.000011563,9.1999937,1,0,0,8.000011563,9.1999937,1,0,0,1,72,232,11,1,,,,,,,,
,,,,,,,,,,,,,FF,,,,,,,,0.7003,,,,,,,,,,,,,,,,,,,,,,605b29e2f13cbd20e9be8834,60e560d6be3c26a30d44d4c6,2021-07-07_10h17.03.405,Simcolourproject_2stim_asymm_v5,2020.2.10,Win32,60,60e52e7cfedb1dae636df45f,,,,,,,,,1614,44.0000121,65.19997012,1,0,0,response1disk,,7,22.80001178,5.599993646,1,0,0,rectangle,22.80001178,5.599993646,1,0,0,22.80001178,5.599993646,1,0,0,1,73,233,68,1,,,,,,,,
,,,,,,,,,,,,,FF,,,,,,,,1.0336,,,,,,,,,,,,,,,,,,,,,,605b29e2f13cbd20e9be8834,60e560d6be3c26a30d44d4c6,2021-07-07_10h17.03.405,Simcolourproject_2stim_asymm_v5,2020.2.10,Win32,60,60e52e7cfedb1dae636df45f,,,,,,,,,4146,-52.79998934,29.19996958,1,0,0,response7disk,,1,-13.99998876,9.1999937,1,0,0,rectangle,-13.99998876,9.1999937,1,0,0,-13.99998876,9.1999937,1,0,0,1,74,234,139,1,,,,,,,,
,,,,,,,,,,,,,FF,,,,,,,,0.7336,,,,,,,,,,,,,,,,,,,,,,605b29e2f13cbd20e9be8834,60e560d6be3c26a30d44d4c6,2021-07-07_10h17.03.405,Simcolourproject_2stim_asymm_v5,2020.2.10,Win32,60,60e52e7cfedb1dae636df45f,,,,,,,,,2347,43.20001209,97.59999502,1,0,0,response1disk,,7,4.800011516,-8.400006562,1,0,0,rectangle,4.800011516,-8.400006562,1,0,0,4.800011516,-8.400006562,1,0,0,1,75,235,78,1,,,,,,,,
,,,,,,,,,,,,,FF,,,,,,,,1.3834,,,,,,,,,,,,,,,,,,,,,,605b29e2f13cbd20e9be8834,60e560d6be3c26a30d44d4c6,2021-07-07_10h17.03.405,Simcolourproject_2stim_asymm_v5,2020.2.10,Win32,60,60e52e7cfedb1dae636df45f,,,,,,,,,836,28.80001187,42.39999419,1,0,0,response1disk,,7,5.200011522,-5.600006521,1,0,0,rectangle,5.200011522,-5.600006521,1,0,0,5.200011522,-5.600006521,1,0,0,1,76,236,100,1,,,,,,,,
,,,,,,,,,,,,,FF,,,,,,,,3.3178,,,,,,,,,,,,,,,,,,,,,,605b29e2f13cbd20e9be8834,60e560d6be3c26a30d44d4c6,2021-07-07_10h17.03.405,Simcolourproject_2stim_asymm_v5,2020.2.10,Win32,60,60e52e7cfedb1dae636df45f,,,,,,,,,519,38.00001201,61.19997006,1,0,0,response1disk,,7,2.000011474,-16.40000668,1,0,0,rectangle,2.000011474,-16.40000668,1,0,0,2.000011474,-16.40000668,1,0,0,1,77,237,119,1,,,,,,,,
,,,,,,,,,,,,,FF,,,,,,,,0.5171,,,,,,,,,,,,,,,,,,,,,,605b29e2f13cbd20e9be8834,60e560d6be3c26a30d44d4c6,2021-07-07_10h17.03.405,Simcolourproject_2stim_asymm_v5,2020.2.10,Win32,60,60e52e7cfedb1dae636df45f,,,,,,,,,1699,40.00001204,62.39999449,1,0,0,response1disk,,7,18.00001171,11.59999374,1,0,0,rectangle,18.00001171,11.59999374,1,0,0,18.00001171,11.59999374,1,0,0,1,78,238,155,1,,,,,,,,
,,,,,,,,,,,,,FF,,,,,,,,0.8504,,,,,,,,,,,,,,,,,,,,,,605b29e2f13cbd20e9be8834,60e560d6be3c26a30d44d4c6,2021-07-07_10h17.03.405,Simcolourproject_2stim_asymm_v5,2020.2.10,Win32,60,60e52e7cfedb1dae636df45f,,,,,,,,,2840,74.80001256,32.39999405,1,0,0,response1disk,,6,19.20001173,4.399993628,1,0,0,rectangle,19.20001173,4.399993628,1,0,0,19.20001173,4.399993628,1,0,0,1,79,239,142,1,,,,,,,,
,,,,,,,,,,,,,FF,,,,,,,,0.5838,,,,,,,,,,,,,,,,,,,,,,605b29e2f13cbd20e9be8834,60e560d6be3c26a30d44d4c6,2021-07-07_10h17.03.405,Simcolourproject_2stim_asymm_v5,2020.2.10,Win32,60,60e52e7cfedb1dae636df45f,,,,,,,,,1524,56.80001229,21.19999388,1,0,0,response1disk,,6,16.00001168,-3.600006491,1,0,0,rectangle,16.00001168,-3.600006491,1,0,0,16.00001168,-3.600006491,1,0,0,1,80,240,134,1,,,,,,,,
,,,,,,,,,,,,,FF,,,,,,,,0.8833,,,,,,,,,,,,,,,,,,,,,,605b29e2f13cbd20e9be8834,60e560d6be3c26a30d44d4c6,2021-07-07_10h17.03.405,Simcolourproject_2stim_asymm_v5,2020.2.10,Win32,60,60e52e7cfedb1dae636df45f,,,,,,,,,460,30.8000119,-86.40000772,1,0,0,response3disk,,4,-2.799988598,3.19999361,1,0,0,rectangle,-2.799988598,3.19999361,1,0,0,-2.799988598,3.19999361,1,0,0,1,81,241,57,1,,,,,,,,
,,,,,,,,,,,,,FF,,,,,,,,1.5507,,,,,,,,,,,,,,,,,,,,,,605b29e2f13cbd20e9be8834,60e560d6be3c26a30d44d4c6,2021-07-07_10h17.03.405,Simcolourproject_2stim_asymm_v5,2020.2.10,Win32,60,60e52e7cfedb1dae636df45f,,,,,,,,,4314,26.00001183,66.39999455,1,0,0,response1disk,,7,10.00001159,1.599993587,1,0,0,rectangle,10.00001159,1.599993587,1,0,0,10.00001159,1.599993587,1,0,0,1,82,242,118,1,,,,,,,,
,,,,,,,,,,,,,FF,,,,,,,,0.8667,,,,,,,,,,,,,,,,,,,,,,605b29e2f13cbd20e9be8834,60e560d6be3c26a30d44d4c6,2021-07-07_10h17.03.405,Simcolourproject_2stim_asymm_v5,2020.2.10,Win32,60,60e52e7cfedb1dae636df45f,,,,,,,,,255,-29.999989,63.19997009,1,0,0,response7disk,,0,-5.199988633,12.39999375,1,0,0,rectangle,-5.199988633,12.39999375,1,0,0,-5.199988633,12.39999375,1,0,0,1,83,243,41,1,,,,,,,,
