key_resp.keys,key_resp.rt,key_resp_14.keys,key_resp_14.rt,key_resp_15.keys,key_resp_15.rt,key_resp_17.keys,key_resp_17.rt,key_resp_9.keys,key_resp_9.rt,key_resp_10.keys,key_resp_10.rt,practice_comparison,Ecc,mouse_5.x,mouse_5.y,mouse_5.leftButton,mouse_5.midButton,mouse_5.rightButton,mouse_5.clicked_name,pracsimilarity,response_time,mouse_10.x,mouse_10.y,mouse_10.leftButton,mouse_10.midButton,mouse_10.rightButton,mouse_10.clicked_name,mouse_7.x,mouse_7.y,mouse_7.leftButton,mouse_7.midButton,mouse_7.rightButton,mouse_6.x,mouse_6.y,mouse_6.leftButton,mouse_6.midButton,mouse_6.rightButton,duringprac.thisRepN,duringprac.thisTrialN,duringprac.thisN,duringprac.thisIndex,duringprac.ran,participant,session,date,expName,psychopyVersion,OS,frameRate,study_id,mouse_7.clicked_name,catchpracsimilarity,catch_response_time,catchnumberprac,catchtrialorderprac,mouse_6.clicked_name,key_resp_22.keys,key_resp_22.rt,realcomparison,mouse.x,mouse.y,mouse.leftButton,mouse.midButton,mouse.rightButton,mouse.clicked_name,Colour2,similarity,mouse_2.x,mouse_2.y,mouse_2.leftButton,mouse_2.midButton,mouse_2.rightButton,mouse_2.clicked_name,mouse_3.x,mouse_3.y,mouse_3.leftButton,mouse_3.midButton,mouse_3.rightButton,mouse_11.x,mouse_11.y,mouse_11.leftButton,mouse_11.midButton,mouse_11.rightButton,trials_2.thisRepN,trials_2.thisTrialN,trials_2.thisN,trials_2.thisIndex,trials_2.ran,Colour1,mouse_3.clicked_name,catchornah,catchsimilarity,catchnumber,catchtrialorder,catchRT,mouse_11.clicked_name
space,4.0578,space,17.488,space,37.5715,space,14.1437,space,6.4483,space,6.1918,46,FF,-39,108,1,0,0,response7disk_5,0,12.9684,-5,15,1,0,0,rectangle_8,-5,15,1,0,0,-5,15,1,0,0,0,0,0,3,1,60d77cc4fae7e5ce3611a31c,60e5631f470138a233dcb483,2021-07-07_10h21.14.306,Simcolourproject_2stim_asymm_v5,2020.2.10,Win32,60,60e52e7cfedb1dae636df45f,,,,,,,,,,,,,,,,,,,,,,,,,,,,,,,,,,,,,,,,,,,,,,
,,,,,,,,,,,,40,PF,-60,92,1,0,0,response7disk_5,0,2.871,-18,-7,1,0,0,rectangle_8,-37,-98,1,0,0,4,1,1,0,0,0,1,1,2,1,60d77cc4fae7e5ce3611a31c,60e5631f470138a233dcb483,2021-07-07_10h21.14.306,Simcolourproject_2stim_asymm_v5,2020.2.10,Win32,60,60e52e7cfedb1dae636df45f,response5disk_7,3,6.82,3,"[2,5]",rectangle_4,,,,,,,,,,,,,,,,,,,,,,,,,,,,,,,,,,,,,,,,
,,,,,,,,,,,,46,FF,-86,27,1,0,0,response7disk_5,1,5.3521,-5,1,1,0,0,rectangle_8,-5,1,1,0,0,-5,1,1,0,0,0,2,2,5,1,60d77cc4fae7e5ce3611a31c,60e5631f470138a233dcb483,2021-07-07_10h21.14.306,Simcolourproject_2stim_asymm_v5,2020.2.10,Win32,60,60e52e7cfedb1dae636df45f,,,,,,,,,,,,,,,,,,,,,,,,,,,,,,,,,,,,,,,,,,,,,,
,,,,,,,,,,,,78,PF,60,64,1,0,0,response1disk_5,7,3.3024,18,-5,1,0,0,rectangle_8,18,-5,1,0,0,18,-5,1,0,0,0,3,3,4,1,60d77cc4fae7e5ce3611a31c,60e5631f470138a233dcb483,2021-07-07_10h21.14.306,Simcolourproject_2stim_asymm_v5,2020.2.10,Win32,60,60e52e7cfedb1dae636df45f,,,,,,,,,,,,,,,,,,,,,,,,,,,,,,,,,,,,,,,,,,,,,,
,,,,,,,,,,,,122,PF,-66,35,1,0,0,response7disk_5,1,1.5175,-8,-9,1,0,0,rectangle_8,-44,-82,1,0,0,15,6,1,0,0,0,4,4,6,1,60d77cc4fae7e5ce3611a31c,60e5631f470138a233dcb483,2021-07-07_10h21.14.306,Simcolourproject_2stim_asymm_v5,2020.2.10,Win32,60,60e52e7cfedb1dae636df45f,response5disk_7,3,2.3687,3,"[2,5]",rectangle_4,,,,,,,,,,,,,,,,,,,,,,,,,,,,,,,,,,,,,,,,
,,,,,,,,,,,,129,PF,54,81,1,0,0,response1disk_5,7,2.72,-7,-11,1,0,0,rectangle_8,-7,-11,1,0,0,-7,-11,1,0,0,0,5,5,1,1,60d77cc4fae7e5ce3611a31c,60e5631f470138a233dcb483,2021-07-07_10h21.14.306,Simcolourproject_2stim_asymm_v5,2020.2.10,Win32,60,60e52e7cfedb1dae636df45f,,,,,,,,,,,,,,,,,,,,,,,,,,,,,,,,,,,,,,,,,,,,,,
,,,,,,,,,,,,92,FF,48,76,1,0,0,response1disk_5,7,1.6176,6,14,1,0,0,rectangle_8,6,14,1,0,0,6,14,1,0,0,0,6,6,0,1,60d77cc4fae7e5ce3611a31c,60e5631f470138a233dcb483,2021-07-07_10h21.14.306,Simcolourproject_2stim_asymm_v5,2020.2.10,Win32,60,60e52e7cfedb1dae636df45f,,,,,,,,,,,,,,,,,,,,,,,,,,,,,,,,,,,,,,,,,,,,,,
,,,,,,,,,,,,,FF,,,,,,,,1.2496,,,,,,,,,,,,,,,,,,,,,,60d77cc4fae7e5ce3611a31c,60e5631f470138a233dcb483,2021-07-07_10h21.14.306,Simcolourproject_2stim_asymm_v5,2020.2.10,Win32,60,60e52e7cfedb1dae636df45f,,,,,,,space,4.1162,1148,49,100,1,0,0,response1disk,,7,-29,13,1,0,0,rectangle,-29,13,1,0,0,-29,13,1,0,0,0,0,0,112,1,,,,,,,,
,,,,,,,,,,,,,FF,,,,,,,,0.9541,,,,,,,,,,,,,,,,,,,,,,60d77cc4fae7e5ce3611a31c,60e5631f470138a233dcb483,2021-07-07_10h21.14.306,Simcolourproject_2stim_asymm_v5,2020.2.10,Win32,60,60e52e7cfedb1dae636df45f,,,,,,,,,2872,17,65,1,0,0,response1disk,,7,0,14,1,0,0,rectangle,0,14,1,0,0,0,14,1,0,0,0,1,1,155,1,,,,,,,,
,,,,,,,,,,,,,FF,,,,,,,,0.9821,,,,,,,,,,,,,,,,,,,,,,60d77cc4fae7e5ce3611a31c,60e5631f470138a233dcb483,2021-07-07_10h21.14.306,Simcolourproject_2stim_asymm_v5,2020.2.10,Win32,60,60e52e7cfedb1dae636df45f,,,,,,,,,2557,62,102,1,0,0,response1disk,,7,19,0,1,0,0,rectangle,19,0,1,0,0,19,0,1,0,0,0,2,2,35,1,,,,,,,,
,,,,,,,,,,,,,FF,,,,,,,,0.8539,,,,,,,,,,,,,,,,,,,,,,60d77cc4fae7e5ce3611a31c,60e5631f470138a233dcb483,2021-07-07_10h21.14.306,Simcolourproject_2stim_asymm_v5,2020.2.10,Win32,60,60e52e7cfedb1dae636df45f,,,,,,,,,664,30,52,1,0,0,response1disk,,7,-4,-6,1,0,0,rectangle,-4,-6,1,0,0,-4,-6,1,0,0,0,3,3,1,1,,,,,,,,
,,,,,,,,,,,,,FF,,,,,,,,0.8317,,,,,,,,,,,,,,,,,,,,,,60d77cc4fae7e5ce3611a31c,60e5631f470138a233dcb483,2021-07-07_10h21.14.306,Simcolourproject_2stim_asymm_v5,2020.2.10,Win32,60,60e52e7cfedb1dae636df45f,,,,,,,,,2856,38,89,1,0,0,response1disk,,7,-9,-8,1,0,0,rectangle,-9,-8,1,0,0,-9,-8,1,0,0,0,4,4,40,1,,,,,,,,
,,,,,,,,,,,,,FF,,,,,,,,0.8499,,,,,,,,,,,,,,,,,,,,,,60d77cc4fae7e5ce3611a31c,60e5631f470138a233dcb483,2021-07-07_10h21.14.306,Simcolourproject_2stim_asymm_v5,2020.2.10,Win32,60,60e52e7cfedb1dae636df45f,,,,,,,,,2618,39,94,1,0,0,response1disk,,7,5,6,1,0,0,rectangle,5,6,1,0,0,5,6,1,0,0,0,5,5,60,1,,,,,,,,
,,,,,,,,,,,,,FF,,,,,,,,1.0325,,,,,,,,,,,,,,,,,,,,,,60d77cc4fae7e5ce3611a31c,60e5631f470138a233dcb483,2021-07-07_10h21.14.306,Simcolourproject_2stim_asymm_v5,2020.2.10,Win32,60,60e52e7cfedb1dae636df45f,,,,,,,,,1287,41,63,1,0,0,response1disk,,7,9,6,1,0,0,rectangle,9,6,1,0,0,9,6,1,0,0,0,6,6,83,1,,,,,,,,
,,,,,,,,,,,,,FF,,,,,,,,0.8593,,,,,,,,,,,,,,,,,,,,,,60d77cc4fae7e5ce3611a31c,60e5631f470138a233dcb483,2021-07-07_10h21.14.306,Simcolourproject_2stim_asymm_v5,2020.2.10,Win32,60,60e52e7cfedb1dae636df45f,,,,,,,,,3447,36,89,1,0,0,response1disk,,7,0,-6,1,0,0,rectangle,0,-6,1,0,0,0,-6,1,0,0,0,7,7,5,1,,,,,,,,
,,,,,,,,,,,,,FF,,,,,,,,0.8202,,,,,,,,,,,,,,,,,,,,,,60d77cc4fae7e5ce3611a31c,60e5631f470138a233dcb483,2021-07-07_10h21.14.306,Simcolourproject_2stim_asymm_v5,2020.2.10,Win32,60,60e52e7cfedb1dae636df45f,,,,,,,,,1282,54,98,1,0,0,response1disk,,7,8,12,1,0,0,rectangle,8,12,1,0,0,8,12,1,0,0,0,8,8,37,1,,,,,,,,
,,,,,,,,,,,,,FF,,,,,,,,0.7842,,,,,,,,,,,,,,,,,,,,,,60d77cc4fae7e5ce3611a31c,60e5631f470138a233dcb483,2021-07-07_10h21.14.306,Simcolourproject_2stim_asymm_v5,2020.2.10,Win32,60,60e52e7cfedb1dae636df45f,,,,,,,,,603,40,78,1,0,0,response1disk,,7,0,11,1,0,0,rectangle,0,11,1,0,0,0,11,1,0,0,0,9,9,84,1,,,,,,,,
,,,,,,,,,,,,,FF,,,,,,,,0.8023,,,,,,,,,,,,,,,,,,,,,,60d77cc4fae7e5ce3611a31c,60e5631f470138a233dcb483,2021-07-07_10h21.14.306,Simcolourproject_2stim_asymm_v5,2020.2.10,Win32,60,60e52e7cfedb1dae636df45f,,,,,,,,,712,40,93,1,0,0,response1disk,,7,4,14,1,0,0,rectangle,4,14,1,0,0,4,14,1,0,0,0,10,10,81,1,,,,,,,,
,,,,,,,,,,,,,FF,,,,,,,,0.7861,,,,,,,,,,,,,,,,,,,,,,60d77cc4fae7e5ce3611a31c,60e5631f470138a233dcb483,2021-07-07_10h21.14.306,Simcolourproject_2stim_asymm_v5,2020.2.10,Win32,60,60e52e7cfedb1dae636df45f,,,,,,,,,3710,51,102,1,0,0,response1disk,,7,-1,9,1,0,0,rectangle,-1,9,1,0,0,-1,9,1,0,0,0,11,11,99,1,,,,,,,,
,,,,,,,,,,,,,FF,,,,,,,,0.7344,,,,,,,,,,,,,,,,,,,,,,60d77cc4fae7e5ce3611a31c,60e5631f470138a233dcb483,2021-07-07_10h21.14.306,Simcolourproject_2stim_asymm_v5,2020.2.10,Win32,60,60e52e7cfedb1dae636df45f,,,,,,,,,1157,31,67,1,0,0,response1disk,,7,3,-2,1,0,0,rectangle,3,-2,1,0,0,3,-2,1,0,0,0,12,12,18,1,,,,,,,,
,,,,,,,,,,,,,FF,,,,,,,,0.7701,,,,,,,,,,,,,,,,,,,,,,60d77cc4fae7e5ce3611a31c,60e5631f470138a233dcb483,2021-07-07_10h21.14.306,Simcolourproject_2stim_asymm_v5,2020.2.10,Win32,60,60e52e7cfedb1dae636df45f,,,,,,,,,2122,45,79,1,0,0,response1disk,,7,8,-7,1,0,0,rectangle,8,-7,1,0,0,8,-7,1,0,0,0,13,13,132,1,,,,,,,,
,,,,,,,,,,,,,FF,,,,,,,,0.7533,,,,,,,,,,,,,,,,,,,,,,60d77cc4fae7e5ce3611a31c,60e5631f470138a233dcb483,2021-07-07_10h21.14.306,Simcolourproject_2stim_asymm_v5,2020.2.10,Win32,60,60e52e7cfedb1dae636df45f,,,,,,,,,508,53,94,1,0,0,response1disk,,7,13,10,1,0,0,rectangle,13,10,1,0,0,13,10,1,0,0,0,14,14,2,1,,,,,,,,
,,,,,,,,,,,,,FF,,,,,,,,0.7186,,,,,,,,,,,,,,,,,,,,,,60d77cc4fae7e5ce3611a31c,60e5631f470138a233dcb483,2021-07-07_10h21.14.306,Simcolourproject_2stim_asymm_v5,2020.2.10,Win32,60,60e52e7cfedb1dae636df45f,,,,,,,,,2462,61,119,1,0,0,response1disk,,7,2,11,1,0,0,rectangle,2,11,1,0,0,2,11,1,0,0,0,15,15,41,1,,,,,,,,
,,,,,,,,,,,,,FF,,,,,,,,0.8,,,,,,,,,,,,,,,,,,,,,,60d77cc4fae7e5ce3611a31c,60e5631f470138a233dcb483,2021-07-07_10h21.14.306,Simcolourproject_2stim_asymm_v5,2020.2.10,Win32,60,60e52e7cfedb1dae636df45f,,,,,,,,,3033,27,52,1,0,0,response1disk,,7,-6,-8,1,0,0,rectangle,-6,-8,1,0,0,-6,-8,1,0,0,0,16,16,128,1,,,,,,,,
,,,,,,,,,,,,,FF,,,,,,,,0.7698,,,,,,,,,,,,,,,,,,,,,,60d77cc4fae7e5ce3611a31c,60e5631f470138a233dcb483,2021-07-07_10h21.14.306,Simcolourproject_2stim_asymm_v5,2020.2.10,Win32,60,60e52e7cfedb1dae636df45f,,,,,,,,,280,40,64,1,0,0,response1disk,,7,14,14,1,0,0,rectangle,14,14,1,0,0,14,14,1,0,0,0,17,17,117,1,,,,,,,,
,,,,,,,,,,,,,FF,,,,,,,,0.7638,,,,,,,,,,,,,,,,,,,,,,60d77cc4fae7e5ce3611a31c,60e5631f470138a233dcb483,2021-07-07_10h21.14.306,Simcolourproject_2stim_asymm_v5,2020.2.10,Win32,60,60e52e7cfedb1dae636df45f,,,,,,,,,3004,47,106,1,0,0,response1disk,,7,5,7,1,0,0,rectangle,5,7,1,0,0,5,7,1,0,0,0,18,18,91,1,,,,,,,,
,,,,,,,,,,,,,FF,,,,,,,,0.735,,,,,,,,,,,,,,,,,,,,,,60d77cc4fae7e5ce3611a31c,60e5631f470138a233dcb483,2021-07-07_10h21.14.306,Simcolourproject_2stim_asymm_v5,2020.2.10,Win32,60,60e52e7cfedb1dae636df45f,,,,,,,,,1502,29,63,1,0,0,response1disk,,7,6,-9,1,0,0,rectangle,6,-9,1,0,0,6,-9,1,0,0,0,19,19,153,1,,,,,,,,
,,,,,,,,,,,,,FF,,,,,,,,0.7331,,,,,,,,,,,,,,,,,,,,,,60d77cc4fae7e5ce3611a31c,60e5631f470138a233dcb483,2021-07-07_10h21.14.306,Simcolourproject_2stim_asymm_v5,2020.2.10,Win32,60,60e52e7cfedb1dae636df45f,,,,,,,,,3755,50,86,1,0,0,response1disk,,7,9,10,1,0,0,rectangle,9,10,1,0,0,9,10,1,0,0,0,20,20,95,1,,,,,,,,
,,,,,,,,,,,,,FF,,,,,,,,0.7021,,,,,,,,,,,,,,,,,,,,,,60d77cc4fae7e5ce3611a31c,60e5631f470138a233dcb483,2021-07-07_10h21.14.306,Simcolourproject_2stim_asymm_v5,2020.2.10,Win32,60,60e52e7cfedb1dae636df45f,,,,,,,,,3654,42,95,1,0,0,response1disk,,7,-5,-6,1,0,0,rectangle,-5,-6,1,0,0,-5,-6,1,0,0,0,21,21,46,1,,,,,,,,
,,,,,,,,,,,,,FF,,,,,,,,0.6881,,,,,,,,,,,,,,,,,,,,,,60d77cc4fae7e5ce3611a31c,60e5631f470138a233dcb483,2021-07-07_10h21.14.306,Simcolourproject_2stim_asymm_v5,2020.2.10,Win32,60,60e52e7cfedb1dae636df45f,,,,,,,,,3125,44,79,1,0,0,response1disk,,7,17,14,1,0,0,rectangle,17,14,1,0,0,17,14,1,0,0,0,22,22,11,1,,,,,,,,
,,,,,,,,,,,,,FF,,,,,,,,0.6553,,,,,,,,,,,,,,,,,,,,,,60d77cc4fae7e5ce3611a31c,60e5631f470138a233dcb483,2021-07-07_10h21.14.306,Simcolourproject_2stim_asymm_v5,2020.2.10,Win32,60,60e52e7cfedb1dae636df45f,,,,,,,,,3768,38,57,1,0,0,response1disk,,7,8,-5,1,0,0,rectangle,8,-5,1,0,0,8,-5,1,0,0,0,23,23,116,1,,,,,,,,
,,,,,,,,,,,,,FF,,,,,,,,1.9013,,,,,,,,,,,,,,,,,,,,,,60d77cc4fae7e5ce3611a31c,60e5631f470138a233dcb483,2021-07-07_10h21.14.306,Simcolourproject_2stim_asymm_v5,2020.2.10,Win32,60,60e52e7cfedb1dae636df45f,,,,,,,,,3515,-68,-31,1,0,0,response5disk,,2,0,-6,1,0,0,rectangle,0,-6,1,0,0,0,-6,1,0,0,0,24,24,157,1,,,,,,,,
,,,,,,,,,,,,,FF,,,,,,,,2.6181,,,,,,,,,,,,,,,,,,,,,,60d77cc4fae7e5ce3611a31c,60e5631f470138a233dcb483,2021-07-07_10h21.14.306,Simcolourproject_2stim_asymm_v5,2020.2.10,Win32,60,60e52e7cfedb1dae636df45f,,,,,,,,,3787,39,66,1,0,0,response1disk,,7,3,-7,1,0,0,rectangle,3,-7,1,0,0,3,-7,1,0,0,0,25,25,82,1,,,,,,,,
,,,,,,,,,,,,,FF,,,,,,,,1.0006,,,,,,,,,,,,,,,,,,,,,,60d77cc4fae7e5ce3611a31c,60e5631f470138a233dcb483,2021-07-07_10h21.14.306,Simcolourproject_2stim_asymm_v5,2020.2.10,Win32,60,60e52e7cfedb1dae636df45f,,,,,,,,,425,16,45,1,0,0,response1disk,,7,8,7,1,0,0,rectangle,8,7,1,0,0,8,7,1,0,0,0,26,26,96,1,,,,,,,,
,,,,,,,,,,,,,FF,,,,,,,,0.85,,,,,,,,,,,,,,,,,,,,,,60d77cc4fae7e5ce3611a31c,60e5631f470138a233dcb483,2021-07-07_10h21.14.306,Simcolourproject_2stim_asymm_v5,2020.2.10,Win32,60,60e52e7cfedb1dae636df45f,,,,,,,,,818,31,88,1,0,0,response1disk,,7,-4,-14,1,0,0,rectangle,-4,-14,1,0,0,-4,-14,1,0,0,0,27,27,143,1,,,,,,,,
,,,,,,,,,,,,,FF,,,,,,,,0.7516,,,,,,,,,,,,,,,,,,,,,,60d77cc4fae7e5ce3611a31c,60e5631f470138a233dcb483,2021-07-07_10h21.14.306,Simcolourproject_2stim_asymm_v5,2020.2.10,Win32,60,60e52e7cfedb1dae636df45f,,,,,,,,,4209,35,84,1,0,0,response1disk,,7,7,10,1,0,0,rectangle,7,10,1,0,0,7,10,1,0,0,0,28,28,31,1,,,,,,,,
,,,,,,,,,,,,,FF,,,,,,,,0.7864,,,,,,,,,,,,,,,,,,,,,,60d77cc4fae7e5ce3611a31c,60e5631f470138a233dcb483,2021-07-07_10h21.14.306,Simcolourproject_2stim_asymm_v5,2020.2.10,Win32,60,60e52e7cfedb1dae636df45f,,,,,,,,,3117,35,79,1,0,0,response1disk,,7,8,11,1,0,0,rectangle,8,11,1,0,0,8,11,1,0,0,0,29,29,130,1,,,,,,,,
,,,,,,,,,,,,,FF,,,,,,,,0.7844,,,,,,,,,,,,,,,,,,,,,,60d77cc4fae7e5ce3611a31c,60e5631f470138a233dcb483,2021-07-07_10h21.14.306,Simcolourproject_2stim_asymm_v5,2020.2.10,Win32,60,60e52e7cfedb1dae636df45f,,,,,,,,,1345,37,73,1,0,0,response1disk,,7,-4,-8,1,0,0,rectangle,-4,-8,1,0,0,-4,-8,1,0,0,0,30,30,141,1,,,,,,,,
,,,,,,,,,,,,,FF,,,,,,,,0.7996,,,,,,,,,,,,,,,,,,,,,,60d77cc4fae7e5ce3611a31c,60e5631f470138a233dcb483,2021-07-07_10h21.14.306,Simcolourproject_2stim_asymm_v5,2020.2.10,Win32,60,60e52e7cfedb1dae636df45f,,,,,,,,,2763,31,54,1,0,0,response1disk,,7,13,10,1,0,0,rectangle,13,10,1,0,0,13,10,1,0,0,0,31,31,149,1,,,,,,,,
,,,,,,,,,,,,,FF,,,,,,,,0.8996,,,,,,,,,,,,,,,,,,,,,,60d77cc4fae7e5ce3611a31c,60e5631f470138a233dcb483,2021-07-07_10h21.14.306,Simcolourproject_2stim_asymm_v5,2020.2.10,Win32,60,60e52e7cfedb1dae636df45f,,,,,,,,,585,28,47,1,0,0,response1disk,,7,13,-4,1,0,0,rectangle,13,-4,1,0,0,13,-4,1,0,0,0,32,32,124,1,,,,,,,,
,,,,,,,,,,,,,FF,,,,,,,,0.7041,,,,,,,,,,,,,,,,,,,,,,60d77cc4fae7e5ce3611a31c,60e5631f470138a233dcb483,2021-07-07_10h21.14.306,Simcolourproject_2stim_asymm_v5,2020.2.10,Win32,60,60e52e7cfedb1dae636df45f,,,,,,,,,250,47,85,1,0,0,response1disk,,7,14,9,1,0,0,rectangle,14,9,1,0,0,14,9,1,0,0,0,33,33,80,1,,,,,,,,
,,,,,,,,,,,,,FF,,,,,,,,0.7501,,,,,,,,,,,,,,,,,,,,,,60d77cc4fae7e5ce3611a31c,60e5631f470138a233dcb483,2021-07-07_10h21.14.306,Simcolourproject_2stim_asymm_v5,2020.2.10,Win32,60,60e52e7cfedb1dae636df45f,,,,,,,,,2187,33,67,1,0,0,response1disk,,7,19,11,1,0,0,rectangle,19,11,1,0,0,19,11,1,0,0,0,34,34,92,1,,,,,,,,
,,,,,,,,,,,,,FF,,,,,,,,0.6836,,,,,,,,,,,,,,,,,,,,,,60d77cc4fae7e5ce3611a31c,60e5631f470138a233dcb483,2021-07-07_10h21.14.306,Simcolourproject_2stim_asymm_v5,2020.2.10,Win32,60,60e52e7cfedb1dae636df45f,,,,,,,,,3442,42,80,1,0,0,response1disk,,7,10,10,1,0,0,rectangle,10,10,1,0,0,10,10,1,0,0,0,35,35,54,1,,,,,,,,
,,,,,,,,,,,,,FF,,,,,,,,2,,,,,,,,,,,,,,,,,,,,,,60d77cc4fae7e5ce3611a31c,60e5631f470138a233dcb483,2021-07-07_10h21.14.306,Simcolourproject_2stim_asymm_v5,2020.2.10,Win32,60,60e52e7cfedb1dae636df45f,,,,,,,,,3565,30,68,1,0,0,response1disk,,7,13,1,1,0,0,rectangle,13,1,1,0,0,13,1,1,0,0,0,36,36,151,1,,,,,,,,
,,,,,,,,,,,,,FF,,,,,,,,0.7182,,,,,,,,,,,,,,,,,,,,,,60d77cc4fae7e5ce3611a31c,60e5631f470138a233dcb483,2021-07-07_10h21.14.306,Simcolourproject_2stim_asymm_v5,2020.2.10,Win32,60,60e52e7cfedb1dae636df45f,,,,,,,,,1102,38,64,1,0,0,response1disk,,7,26,13,1,0,0,rectangle,26,13,1,0,0,26,13,1,0,0,0,37,37,122,1,,,,,,,,
,,,,,,,,,,,,,FF,,,,,,,,0.8202,,,,,,,,,,,,,,,,,,,,,,60d77cc4fae7e5ce3611a31c,60e5631f470138a233dcb483,2021-07-07_10h21.14.306,Simcolourproject_2stim_asymm_v5,2020.2.10,Win32,60,60e52e7cfedb1dae636df45f,,,,,,,,,1267,32,52,1,0,0,response1disk,,7,22,8,1,0,0,rectangle,22,8,1,0,0,22,8,1,0,0,0,38,38,102,1,,,,,,,,
,,,,,,,,,,,,,FF,,,,,,,,1.8328,,,,,,,,,,,,,,,,,,,,,,60d77cc4fae7e5ce3611a31c,60e5631f470138a233dcb483,2021-07-07_10h21.14.306,Simcolourproject_2stim_asymm_v5,2020.2.10,Win32,60,60e52e7cfedb1dae636df45f,,,,,,,,,2660,-52,71,1,0,0,response7disk,,0,-15,14,1,0,0,rectangle,-15,14,1,0,0,-15,14,1,0,0,0,39,39,76,1,,,,,,,,
,,,,,,,,,,,,,FF,,,,,,,,1.0701,,,,,,,,,,,,,,,,,,,,,,60d77cc4fae7e5ce3611a31c,60e5631f470138a233dcb483,2021-07-07_10h21.14.306,Simcolourproject_2stim_asymm_v5,2020.2.10,Win32,60,60e52e7cfedb1dae636df45f,,,,,,,,,1370,-52,27,1,0,0,response7disk,,1,1,-8,1,0,0,rectangle,1,-8,1,0,0,1,-8,1,0,0,0,40,40,114,1,,,,,,,,
,,,,,,,,,,,,,FF,,,,,,,,1.1004,,,,,,,,,,,,,,,,,,,,,,60d77cc4fae7e5ce3611a31c,60e5631f470138a233dcb483,2021-07-07_10h21.14.306,Simcolourproject_2stim_asymm_v5,2020.2.10,Win32,60,60e52e7cfedb1dae636df45f,,,,,,,,,437,-55,-19,1,0,0,response5disk,,2,2,0,1,0,0,rectangle,2,0,1,0,0,2,0,1,0,0,0,41,41,61,1,,,,,,,,
,,,,,,,,,,,,,FF,,,,,,,,2.0184,,,,,,,,,,,,,,,,,,,,,,60d77cc4fae7e5ce3611a31c,60e5631f470138a233dcb483,2021-07-07_10h21.14.306,Simcolourproject_2stim_asymm_v5,2020.2.10,Win32,60,60e52e7cfedb1dae636df45f,,,,,,,,,1755,20,-67,1,0,0,response3disk,,4,-1,-13,1,0,0,rectangle,-1,-13,1,0,0,-1,-13,1,0,0,0,42,42,126,1,,,,,,,,
,,,,,,,,,,,,,FF,,,,,,,,1.168,,,,,,,,,,,,,,,,,,,,,,60d77cc4fae7e5ce3611a31c,60e5631f470138a233dcb483,2021-07-07_10h21.14.306,Simcolourproject_2stim_asymm_v5,2020.2.10,Win32,60,60e52e7cfedb1dae636df45f,,,,,,,,,2160,-52,72,1,0,0,response7disk,,0,-27,6,1,0,0,rectangle,-27,6,1,0,0,-27,6,1,0,0,0,43,43,44,1,,,,,,,,
,,,,,,,,,,,,,FF,,,,,,,,1.0005,,,,,,,,,,,,,,,,,,,,,,60d77cc4fae7e5ce3611a31c,60e5631f470138a233dcb483,2021-07-07_10h21.14.306,Simcolourproject_2stim_asymm_v5,2020.2.10,Win32,60,60e52e7cfedb1dae636df45f,,,,,,,,,3516,-79,26,1,0,0,response7disk,,1,-14,13,1,0,0,rectangle,-14,13,1,0,0,-14,13,1,0,0,0,44,44,21,1,,,,,,,,
,,,,,,,,,,,,,FF,,,,,,,,2.1175,,,,,,,,,,,,,,,,,,,,,,60d77cc4fae7e5ce3611a31c,60e5631f470138a233dcb483,2021-07-07_10h21.14.306,Simcolourproject_2stim_asymm_v5,2020.2.10,Win32,60,60e52e7cfedb1dae636df45f,,,,,,,,,12,50,98,1,0,0,response1disk,,7,-8,0,1,0,0,rectangle,-8,0,1,0,0,-8,0,1,0,0,0,45,45,121,1,,,,,,,,
,,,,,,,,,,,,,FF,,,,,,,,1.6012,,,,,,,,,,,,,,,,,,,,,,60d77cc4fae7e5ce3611a31c,60e5631f470138a233dcb483,2021-07-07_10h21.14.306,Simcolourproject_2stim_asymm_v5,2020.2.10,Win32,60,60e52e7cfedb1dae636df45f,,,,,,,,,720,-33,-58,1,0,0,response5disk,,3,5,14,1,0,0,rectangle,5,14,1,0,0,5,14,1,0,0,0,46,46,159,1,,,,,,,,
,,,,,,,,,,,,,FF,,,,,,,,1.667,,,,,,,,,,,,,,,,,,,,,,60d77cc4fae7e5ce3611a31c,60e5631f470138a233dcb483,2021-07-07_10h21.14.306,Simcolourproject_2stim_asymm_v5,2020.2.10,Win32,60,60e52e7cfedb1dae636df45f,,,,,,,,,3177,63,89,1,0,0,response1disk,,7,-4,12,1,0,0,rectangle,-4,12,1,0,0,-4,12,1,0,0,0,47,47,135,1,,,,,,,,
,,,,,,,,,,,,,FF,,,,,,,,0.9838,,,,,,,,,,,,,,,,,,,,,,60d77cc4fae7e5ce3611a31c,60e5631f470138a233dcb483,2021-07-07_10h21.14.306,Simcolourproject_2stim_asymm_v5,2020.2.10,Win32,60,60e52e7cfedb1dae636df45f,,,,,,,,,2506,18,54,1,0,0,response1disk,,7,-8,-7,1,0,0,rectangle,-8,-7,1,0,0,-8,-7,1,0,0,0,48,48,26,1,,,,,,,,
,,,,,,,,,,,,,FF,,,,,,,,0.7352,,,,,,,,,,,,,,,,,,,,,,60d77cc4fae7e5ce3611a31c,60e5631f470138a233dcb483,2021-07-07_10h21.14.306,Simcolourproject_2stim_asymm_v5,2020.2.10,Win32,60,60e52e7cfedb1dae636df45f,,,,,,,,,3167,51,120,1,0,0,response1disk,,7,7,15,1,0,0,rectangle,7,15,1,0,0,7,15,1,0,0,0,49,49,17,1,,,,,,,,
,,,,,,,,,,,,,FF,,,,,,,,0.6669,,,,,,,,,,,,,,,,,,,,,,60d77cc4fae7e5ce3611a31c,60e5631f470138a233dcb483,2021-07-07_10h21.14.306,Simcolourproject_2stim_asymm_v5,2020.2.10,Win32,60,60e52e7cfedb1dae636df45f,,,,,,,,,3021,31,73,1,0,0,response1disk,,7,-7,-9,1,0,0,rectangle,-7,-9,1,0,0,-7,-9,1,0,0,0,50,50,43,1,,,,,,,,
,,,,,,,,,,,,,FF,,,,,,,,1.0672,,,,,,,,,,,,,,,,,,,,,,60d77cc4fae7e5ce3611a31c,60e5631f470138a233dcb483,2021-07-07_10h21.14.306,Simcolourproject_2stim_asymm_v5,2020.2.10,Win32,60,60e52e7cfedb1dae636df45f,,,,,,,,,1384,-52,-31,1,0,0,response5disk,,2,10,11,1,0,0,rectangle,10,11,1,0,0,10,11,1,0,0,0,51,51,146,1,,,,,,,,
,,,,,,,,,,,,,FF,,,,,,,,1.4834,,,,,,,,,,,,,,,,,,,,,,60d77cc4fae7e5ce3611a31c,60e5631f470138a233dcb483,2021-07-07_10h21.14.306,Simcolourproject_2stim_asymm_v5,2020.2.10,Win32,60,60e52e7cfedb1dae636df45f,,,,,,,,,2728,-76,-44,1,0,0,response5disk,,2,-8,2,1,0,0,rectangle,-8,2,1,0,0,-8,2,1,0,0,0,52,52,120,1,,,,,,,,
,,,,,,,,,,,,,FF,,,,,,,,1.2865,,,,,,,,,,,,,,,,,,,,,,60d77cc4fae7e5ce3611a31c,60e5631f470138a233dcb483,2021-07-07_10h21.14.306,Simcolourproject_2stim_asymm_v5,2020.2.10,Win32,60,60e52e7cfedb1dae636df45f,,,,,,,,,2813,49,58,1,0,0,response1disk,,7,4,-1,1,0,0,rectangle,-45,79,1,0,0,-11,15,1,0,0,0,53,53,69,1,,response7disk_3,TRUE,0,0,"[300,229,294,101,227,259,171,54,299,103,235,253,217,301,151,190,114,288,54,109]",2.2377,rectangle
,,,,,,,,,,,,,FF,,,,,,,,1.2028,,,,,,,,,,,,,,,,,,,,,,60d77cc4fae7e5ce3611a31c,60e5631f470138a233dcb483,2021-07-07_10h21.14.306,Simcolourproject_2stim_asymm_v5,2020.2.10,Win32,60,60e52e7cfedb1dae636df45f,,,,,,,,,3130,43,91,1,0,0,response1disk,,7,1,8,1,0,0,rectangle,1,8,1,0,0,1,8,1,0,0,0,54,54,111,1,,,,,,,,
,,,,,,,,,,,,,FF,,,,,,,,0.9024,,,,,,,,,,,,,,,,,,,,,,60d77cc4fae7e5ce3611a31c,60e5631f470138a233dcb483,2021-07-07_10h21.14.306,Simcolourproject_2stim_asymm_v5,2020.2.10,Win32,60,60e52e7cfedb1dae636df45f,,,,,,,,,3006,29,71,1,0,0,response1disk,,7,8,6,1,0,0,rectangle,8,6,1,0,0,8,6,1,0,0,0,55,55,65,1,,,,,,,,
,,,,,,,,,,,,,FF,,,,,,,,0.8491,,,,,,,,,,,,,,,,,,,,,,60d77cc4fae7e5ce3611a31c,60e5631f470138a233dcb483,2021-07-07_10h21.14.306,Simcolourproject_2stim_asymm_v5,2020.2.10,Win32,60,60e52e7cfedb1dae636df45f,,,,,,,,,2243,57,94,1,0,0,response1disk,,7,2,-7,1,0,0,rectangle,2,-7,1,0,0,2,-7,1,0,0,0,56,56,8,1,,,,,,,,
,,,,,,,,,,,,,FF,,,,,,,,0.7834,,,,,,,,,,,,,,,,,,,,,,60d77cc4fae7e5ce3611a31c,60e5631f470138a233dcb483,2021-07-07_10h21.14.306,Simcolourproject_2stim_asymm_v5,2020.2.10,Win32,60,60e52e7cfedb1dae636df45f,,,,,,,,,2381,45,76,1,0,0,response1disk,,7,8,-1,1,0,0,rectangle,8,-1,1,0,0,8,-1,1,0,0,0,57,57,77,1,,,,,,,,
,,,,,,,,,,,,,FF,,,,,,,,0.9668,,,,,,,,,,,,,,,,,,,,,,60d77cc4fae7e5ce3611a31c,60e5631f470138a233dcb483,2021-07-07_10h21.14.306,Simcolourproject_2stim_asymm_v5,2020.2.10,Win32,60,60e52e7cfedb1dae636df45f,,,,,,,,,997,33,55,1,0,0,response1disk,,7,17,6,1,0,0,rectangle,17,6,1,0,0,17,6,1,0,0,0,58,58,29,1,,,,,,,,
,,,,,,,,,,,,,FF,,,,,,,,0.872,,,,,,,,,,,,,,,,,,,,,,60d77cc4fae7e5ce3611a31c,60e5631f470138a233dcb483,2021-07-07_10h21.14.306,Simcolourproject_2stim_asymm_v5,2020.2.10,Win32,60,60e52e7cfedb1dae636df45f,,,,,,,,,2219,22,60,1,0,0,response1disk,,7,-3,2,1,0,0,rectangle,-3,2,1,0,0,-3,2,1,0,0,0,59,59,68,1,,,,,,,,
,,,,,,,,,,,,,FF,,,,,,,,0.9393,,,,,,,,,,,,,,,,,,,,,,60d77cc4fae7e5ce3611a31c,60e5631f470138a233dcb483,2021-07-07_10h21.14.306,Simcolourproject_2stim_asymm_v5,2020.2.10,Win32,60,60e52e7cfedb1dae636df45f,,,,,,,,,2353,27,56,1,0,0,response1disk,,7,-3,0,1,0,0,rectangle,-3,0,1,0,0,-3,0,1,0,0,0,60,60,56,1,,,,,,,,
,,,,,,,,,,,,,FF,,,,,,,,1.7192,,,,,,,,,,,,,,,,,,,,,,60d77cc4fae7e5ce3611a31c,60e5631f470138a233dcb483,2021-07-07_10h21.14.306,Simcolourproject_2stim_asymm_v5,2020.2.10,Win32,60,60e52e7cfedb1dae636df45f,,,,,,,,,1145,-49,-19,1,0,0,response5disk,,2,-8,9,1,0,0,rectangle,-8,9,1,0,0,-8,9,1,0,0,0,61,61,137,1,,,,,,,,
,,,,,,,,,,,,,FF,,,,,,,,1.0192,,,,,,,,,,,,,,,,,,,,,,60d77cc4fae7e5ce3611a31c,60e5631f470138a233dcb483,2021-07-07_10h21.14.306,Simcolourproject_2stim_asymm_v5,2020.2.10,Win32,60,60e52e7cfedb1dae636df45f,,,,,,,,,4004,57,105,1,0,0,response1disk,,7,3,15,1,0,0,rectangle,3,15,1,0,0,3,15,1,0,0,0,62,62,101,1,,,,,,,,
,,,,,,,,,,,,,FF,,,,,,,,0.7005,,,,,,,,,,,,,,,,,,,,,,60d77cc4fae7e5ce3611a31c,60e5631f470138a233dcb483,2021-07-07_10h21.14.306,Simcolourproject_2stim_asymm_v5,2020.2.10,Win32,60,60e52e7cfedb1dae636df45f,,,,,,,,,2206,30,51,1,0,0,response1disk,,7,7,11,1,0,0,rectangle,7,11,1,0,0,7,11,1,0,0,0,63,63,88,1,,,,,,,,
,,,,,,,,,,,,,FF,,,,,,,,1.3357,,,,,,,,,,,,,,,,,,,,,,60d77cc4fae7e5ce3611a31c,60e5631f470138a233dcb483,2021-07-07_10h21.14.306,Simcolourproject_2stim_asymm_v5,2020.2.10,Win32,60,60e52e7cfedb1dae636df45f,,,,,,,,,1461,-75,29,1,0,0,response7disk,,1,16,10,1,0,0,rectangle,16,10,1,0,0,16,10,1,0,0,0,64,64,85,1,,,,,,,,
,,,,,,,,,,,,,FF,,,,,,,,0.6511,,,,,,,,,,,,,,,,,,,,,,60d77cc4fae7e5ce3611a31c,60e5631f470138a233dcb483,2021-07-07_10h21.14.306,Simcolourproject_2stim_asymm_v5,2020.2.10,Win32,60,60e52e7cfedb1dae636df45f,,,,,,,,,3501,40,68,1,0,0,response1disk,,7,10,10,1,0,0,rectangle,10,10,1,0,0,10,10,1,0,0,0,65,65,147,1,,,,,,,,
,,,,,,,,,,,,,FF,,,,,,,,1.1179,,,,,,,,,,,,,,,,,,,,,,60d77cc4fae7e5ce3611a31c,60e5631f470138a233dcb483,2021-07-07_10h21.14.306,Simcolourproject_2stim_asymm_v5,2020.2.10,Win32,60,60e52e7cfedb1dae636df45f,,,,,,,,,3392,-72,30,1,0,0,response7disk,,1,-15,7,1,0,0,rectangle,-15,7,1,0,0,-15,7,1,0,0,0,66,66,142,1,,,,,,,,
,,,,,,,,,,,,,FF,,,,,,,,0.7838,,,,,,,,,,,,,,,,,,,,,,60d77cc4fae7e5ce3611a31c,60e5631f470138a233dcb483,2021-07-07_10h21.14.306,Simcolourproject_2stim_asymm_v5,2020.2.10,Win32,60,60e52e7cfedb1dae636df45f,,,,,,,,,4219,50,99,1,0,0,response1disk,,7,0,7,1,0,0,rectangle,0,7,1,0,0,0,7,1,0,0,0,67,67,145,1,,,,,,,,
,,,,,,,,,,,,,FF,,,,,,,,1.3343,,,,,,,,,,,,,,,,,,,,,,60d77cc4fae7e5ce3611a31c,60e5631f470138a233dcb483,2021-07-07_10h21.14.306,Simcolourproject_2stim_asymm_v5,2020.2.10,Win32,60,60e52e7cfedb1dae636df45f,,,,,,,,,646,31,67,1,0,0,response1disk,,7,6,3,1,0,0,rectangle,6,3,1,0,0,6,3,1,0,0,0,68,68,125,1,,,,,,,,
,,,,,,,,,,,,,FF,,,,,,,,0.8002,,,,,,,,,,,,,,,,,,,,,,60d77cc4fae7e5ce3611a31c,60e5631f470138a233dcb483,2021-07-07_10h21.14.306,Simcolourproject_2stim_asymm_v5,2020.2.10,Win32,60,60e52e7cfedb1dae636df45f,,,,,,,,,2674,46,77,1,0,0,response1disk,,7,11,1,1,0,0,rectangle,11,1,1,0,0,11,1,1,0,0,0,69,69,97,1,,,,,,,,
,,,,,,,,,,,,,FF,,,,,,,,1.0499,,,,,,,,,,,,,,,,,,,,,,60d77cc4fae7e5ce3611a31c,60e5631f470138a233dcb483,2021-07-07_10h21.14.306,Simcolourproject_2stim_asymm_v5,2020.2.10,Win32,60,60e52e7cfedb1dae636df45f,,,,,,,,,1298,-52,32,1,0,0,response7disk,,1,-11,4,1,0,0,rectangle,-11,4,1,0,0,-11,4,1,0,0,0,70,70,36,1,,,,,,,,
,,,,,,,,,,,,,FF,,,,,,,,0.8847,,,,,,,,,,,,,,,,,,,,,,60d77cc4fae7e5ce3611a31c,60e5631f470138a233dcb483,2021-07-07_10h21.14.306,Simcolourproject_2stim_asymm_v5,2020.2.10,Win32,60,60e52e7cfedb1dae636df45f,,,,,,,,,994,42,88,1,0,0,response1disk,,7,4,12,1,0,0,rectangle,4,12,1,0,0,4,12,1,0,0,0,71,71,148,1,,,,,,,,
,,,,,,,,,,,,,FF,,,,,,,,0.8165,,,,,,,,,,,,,,,,,,,,,,60d77cc4fae7e5ce3611a31c,60e5631f470138a233dcb483,2021-07-07_10h21.14.306,Simcolourproject_2stim_asymm_v5,2020.2.10,Win32,60,60e52e7cfedb1dae636df45f,,,,,,,,,56,24,57,1,0,0,response1disk,,7,-10,-12,1,0,0,rectangle,-10,-12,1,0,0,-10,-12,1,0,0,0,72,72,19,1,,,,,,,,
,,,,,,,,,,,,,FF,,,,,,,,0.7997,,,,,,,,,,,,,,,,,,,,,,60d77cc4fae7e5ce3611a31c,60e5631f470138a233dcb483,2021-07-07_10h21.14.306,Simcolourproject_2stim_asymm_v5,2020.2.10,Win32,60,60e52e7cfedb1dae636df45f,,,,,,,,,3672,38,77,1,0,0,response1disk,,7,7,15,1,0,0,rectangle,7,15,1,0,0,7,15,1,0,0,0,73,73,129,1,,,,,,,,
,,,,,,,,,,,,,FF,,,,,,,,0.6351,,,,,,,,,,,,,,,,,,,,,,60d77cc4fae7e5ce3611a31c,60e5631f470138a233dcb483,2021-07-07_10h21.14.306,Simcolourproject_2stim_asymm_v5,2020.2.10,Win32,60,60e52e7cfedb1dae636df45f,,,,,,,,,3806,62,94,1,0,0,response1disk,,7,13,-7,1,0,0,rectangle,13,-7,1,0,0,13,-7,1,0,0,0,74,74,127,1,,,,,,,,
,,,,,,,,,,,,,FF,,,,,,,,0.7661,,,,,,,,,,,,,,,,,,,,,,60d77cc4fae7e5ce3611a31c,60e5631f470138a233dcb483,2021-07-07_10h21.14.306,Simcolourproject_2stim_asymm_v5,2020.2.10,Win32,60,60e52e7cfedb1dae636df45f,,,,,,,,,1658,26,61,1,0,0,response1disk,,7,0,4,1,0,0,rectangle,0,4,1,0,0,0,4,1,0,0,0,75,75,79,1,,,,,,,,
,,,,,,,,,,,,,FF,,,,,,,,0.9006,,,,,,,,,,,,,,,,,,,,,,60d77cc4fae7e5ce3611a31c,60e5631f470138a233dcb483,2021-07-07_10h21.14.306,Simcolourproject_2stim_asymm_v5,2020.2.10,Win32,60,60e52e7cfedb1dae636df45f,,,,,,,,,1293,35,69,1,0,0,response1disk,,7,-6,-3,1,0,0,rectangle,-6,-3,1,0,0,-6,-3,1,0,0,0,76,76,23,1,,,,,,,,
,,,,,,,,,,,,,FF,,,,,,,,0.7843,,,,,,,,,,,,,,,,,,,,,,60d77cc4fae7e5ce3611a31c,60e5631f470138a233dcb483,2021-07-07_10h21.14.306,Simcolourproject_2stim_asymm_v5,2020.2.10,Win32,60,60e52e7cfedb1dae636df45f,,,,,,,,,1682,44,86,1,0,0,response1disk,,7,-5,-3,1,0,0,rectangle,-5,-3,1,0,0,-5,-3,1,0,0,0,77,77,3,1,,,,,,,,
,,,,,,,,,,,,,FF,,,,,,,,0.8365,,,,,,,,,,,,,,,,,,,,,,60d77cc4fae7e5ce3611a31c,60e5631f470138a233dcb483,2021-07-07_10h21.14.306,Simcolourproject_2stim_asymm_v5,2020.2.10,Win32,60,60e52e7cfedb1dae636df45f,,,,,,,,,2596,43,77,1,0,0,response1disk,,7,-2,-4,1,0,0,rectangle,-2,-4,1,0,0,-2,-4,1,0,0,0,78,78,33,1,,,,,,,,
,,,,,,,,,,,,,FF,,,,,,,,0.7837,,,,,,,,,,,,,,,,,,,,,,60d77cc4fae7e5ce3611a31c,60e5631f470138a233dcb483,2021-07-07_10h21.14.306,Simcolourproject_2stim_asymm_v5,2020.2.10,Win32,60,60e52e7cfedb1dae636df45f,,,,,,,,,3081,38,69,1,0,0,response1disk,,7,2,-10,1,0,0,rectangle,2,-10,1,0,0,2,-10,1,0,0,0,79,79,20,1,,,,,,,,
,,,,,,,,,,,,,FF,,,,,,,,0.6834,,,,,,,,,,,,,,,,,,,,,,60d77cc4fae7e5ce3611a31c,60e5631f470138a233dcb483,2021-07-07_10h21.14.306,Simcolourproject_2stim_asymm_v5,2020.2.10,Win32,60,60e52e7cfedb1dae636df45f,,,,,,,,,2552,45,85,1,0,0,response1disk,,7,0,1,1,0,0,rectangle,0,1,1,0,0,0,1,1,0,0,0,80,80,93,1,,,,,,,,
,,,,,,,,,,,,,FF,,,,,,,,0.7677,,,,,,,,,,,,,,,,,,,,,,60d77cc4fae7e5ce3611a31c,60e5631f470138a233dcb483,2021-07-07_10h21.14.306,Simcolourproject_2stim_asymm_v5,2020.2.10,Win32,60,60e52e7cfedb1dae636df45f,,,,,,,,,827,22,51,1,0,0,response1disk,,7,12,6,1,0,0,rectangle,12,6,1,0,0,12,6,1,0,0,0,81,81,75,1,,,,,,,,
,,,,,,,,,,,,,FF,,,,,,,,0.5837,,,,,,,,,,,,,,,,,,,,,,60d77cc4fae7e5ce3611a31c,60e5631f470138a233dcb483,2021-07-07_10h21.14.306,Simcolourproject_2stim_asymm_v5,2020.2.10,Win32,60,60e52e7cfedb1dae636df45f,,,,,,,,,935,39,69,1,0,0,response1disk,,7,11,8,1,0,0,rectangle,11,8,1,0,0,11,8,1,0,0,0,82,82,45,1,,,,,,,,
,,,,,,,,,,,,,FF,,,,,,,,0.5504,,,,,,,,,,,,,,,,,,,,,,60d77cc4fae7e5ce3611a31c,60e5631f470138a233dcb483,2021-07-07_10h21.14.306,Simcolourproject_2stim_asymm_v5,2020.2.10,Win32,60,60e52e7cfedb1dae636df45f,,,,,,,,,343,35,95,1,0,0,response1disk,,7,2,4,1,0,0,rectangle,2,4,1,0,0,2,4,1,0,0,0,83,83,55,1,,,,,,,,
,,,,,,,,,,,,,FF,,,,,,,,0.6172,,,,,,,,,,,,,,,,,,,,,,60d77cc4fae7e5ce3611a31c,60e5631f470138a233dcb483,2021-07-07_10h21.14.306,Simcolourproject_2stim_asymm_v5,2020.2.10,Win32,60,60e52e7cfedb1dae636df45f,,,,,,,,,1270,46,62,1,0,0,response1disk,,7,22,14,1,0,0,rectangle,22,14,1,0,0,22,14,1,0,0,0,84,84,42,1,,,,,,,,
,,,,,,,,,,,,,FF,,,,,,,,0.6504,,,,,,,,,,,,,,,,,,,,,,60d77cc4fae7e5ce3611a31c,60e5631f470138a233dcb483,2021-07-07_10h21.14.306,Simcolourproject_2stim_asymm_v5,2020.2.10,Win32,60,60e52e7cfedb1dae636df45f,,,,,,,,,2915,65,115,1,0,0,response1disk,,7,12,13,1,0,0,rectangle,12,13,1,0,0,12,13,1,0,0,0,85,85,106,1,,,,,,,,
,,,,,,,,,,,,,FF,,,,,,,,0.6339,,,,,,,,,,,,,,,,,,,,,,60d77cc4fae7e5ce3611a31c,60e5631f470138a233dcb483,2021-07-07_10h21.14.306,Simcolourproject_2stim_asymm_v5,2020.2.10,Win32,60,60e52e7cfedb1dae636df45f,,,,,,,,,167,25,48,1,0,0,response1disk,,7,-4,-7,1,0,0,rectangle,-4,-7,1,0,0,-4,-7,1,0,0,0,86,86,70,1,,,,,,,,
,,,,,,,,,,,,,FF,,,,,,,,0.6348,,,,,,,,,,,,,,,,,,,,,,60d77cc4fae7e5ce3611a31c,60e5631f470138a233dcb483,2021-07-07_10h21.14.306,Simcolourproject_2stim_asymm_v5,2020.2.10,Win32,60,60e52e7cfedb1dae636df45f,,,,,,,,,313,15,43,1,0,0,response1disk,,7,4,7,1,0,0,rectangle,4,7,1,0,0,4,7,1,0,0,0,87,87,12,1,,,,,,,,
,,,,,,,,,,,,,FF,,,,,,,,0.5512,,,,,,,,,,,,,,,,,,,,,,60d77cc4fae7e5ce3611a31c,60e5631f470138a233dcb483,2021-07-07_10h21.14.306,Simcolourproject_2stim_asymm_v5,2020.2.10,Win32,60,60e52e7cfedb1dae636df45f,,,,,,,,,2277,34,65,1,0,0,response1disk,,7,12,11,1,0,0,rectangle,12,11,1,0,0,12,11,1,0,0,0,88,88,10,1,,,,,,,,
,,,,,,,,,,,,,FF,,,,,,,,0.5177,,,,,,,,,,,,,,,,,,,,,,60d77cc4fae7e5ce3611a31c,60e5631f470138a233dcb483,2021-07-07_10h21.14.306,Simcolourproject_2stim_asymm_v5,2020.2.10,Win32,60,60e52e7cfedb1dae636df45f,,,,,,,,,64,42,87,1,0,0,response1disk,,7,-7,-8,1,0,0,rectangle,-7,-8,1,0,0,-7,-8,1,0,0,0,89,89,144,1,,,,,,,,
,,,,,,,,,,,,,FF,,,,,,,,0.9518,,,,,,,,,,,,,,,,,,,,,,60d77cc4fae7e5ce3611a31c,60e5631f470138a233dcb483,2021-07-07_10h21.14.306,Simcolourproject_2stim_asymm_v5,2020.2.10,Win32,60,60e52e7cfedb1dae636df45f,,,,,,,,,1958,-32,60,1,0,0,response7disk,,0,-15,14,1,0,0,rectangle,-15,14,1,0,0,-15,14,1,0,0,0,90,90,59,1,,,,,,,,
,,,,,,,,,,,,,FF,,,,,,,,0.5845,,,,,,,,,,,,,,,,,,,,,,60d77cc4fae7e5ce3611a31c,60e5631f470138a233dcb483,2021-07-07_10h21.14.306,Simcolourproject_2stim_asymm_v5,2020.2.10,Win32,60,60e52e7cfedb1dae636df45f,,,,,,,,,548,36,70,1,0,0,response1disk,,7,1,-9,1,0,0,rectangle,1,-9,1,0,0,1,-9,1,0,0,0,91,91,0,1,,,,,,,,
,,,,,,,,,,,,,FF,,,,,,,,1.5508,,,,,,,,,,,,,,,,,,,,,,60d77cc4fae7e5ce3611a31c,60e5631f470138a233dcb483,2021-07-07_10h21.14.306,Simcolourproject_2stim_asymm_v5,2020.2.10,Win32,60,60e52e7cfedb1dae636df45f,,,,,,,,,2825,34,80,1,0,0,response1disk,,7,-2,-1,1,0,0,rectangle,-2,-1,1,0,0,-2,-1,1,0,0,0,92,92,139,1,,,,,,,,
,,,,,,,,,,,,,FF,,,,,,,,0.7054,,,,,,,,,,,,,,,,,,,,,,60d77cc4fae7e5ce3611a31c,60e5631f470138a233dcb483,2021-07-07_10h21.14.306,Simcolourproject_2stim_asymm_v5,2020.2.10,Win32,60,60e52e7cfedb1dae636df45f,,,,,,,,,127,21,33,1,0,0,response1disk,,7,6,-7,1,0,0,rectangle,6,-7,1,0,0,6,-7,1,0,0,0,93,93,64,1,,,,,,,,
,,,,,,,,,,,,,FF,,,,,,,,0.5667,,,,,,,,,,,,,,,,,,,,,,60d77cc4fae7e5ce3611a31c,60e5631f470138a233dcb483,2021-07-07_10h21.14.306,Simcolourproject_2stim_asymm_v5,2020.2.10,Win32,60,60e52e7cfedb1dae636df45f,,,,,,,,,2502,42,85,1,0,0,response1disk,,7,5,4,1,0,0,rectangle,5,4,1,0,0,5,4,1,0,0,0,94,94,48,1,,,,,,,,
,,,,,,,,,,,,,FF,,,,,,,,0.6845,,,,,,,,,,,,,,,,,,,,,,60d77cc4fae7e5ce3611a31c,60e5631f470138a233dcb483,2021-07-07_10h21.14.306,Simcolourproject_2stim_asymm_v5,2020.2.10,Win32,60,60e52e7cfedb1dae636df45f,,,,,,,,,1832,46,105,1,0,0,response1disk,,7,14,12,1,0,0,rectangle,14,12,1,0,0,14,12,1,0,0,0,95,95,72,1,,,,,,,,
,,,,,,,,,,,,,FF,,,,,,,,0.5517,,,,,,,,,,,,,,,,,,,,,,60d77cc4fae7e5ce3611a31c,60e5631f470138a233dcb483,2021-07-07_10h21.14.306,Simcolourproject_2stim_asymm_v5,2020.2.10,Win32,60,60e52e7cfedb1dae636df45f,,,,,,,,,471,43,97,1,0,0,response1disk,,7,-15,-2,1,0,0,rectangle,-15,-2,1,0,0,-15,-2,1,0,0,0,96,96,6,1,,,,,,,,
,,,,,,,,,,,,,FF,,,,,,,,0.684,,,,,,,,,,,,,,,,,,,,,,60d77cc4fae7e5ce3611a31c,60e5631f470138a233dcb483,2021-07-07_10h21.14.306,Simcolourproject_2stim_asymm_v5,2020.2.10,Win32,60,60e52e7cfedb1dae636df45f,,,,,,,,,102,25,76,1,0,0,response1disk,,7,-11,0,1,0,0,rectangle,-11,0,1,0,0,-11,0,1,0,0,0,97,97,16,1,,,,,,,,
,,,,,,,,,,,,,FF,,,,,,,,0.633,,,,,,,,,,,,,,,,,,,,,,60d77cc4fae7e5ce3611a31c,60e5631f470138a233dcb483,2021-07-07_10h21.14.306,Simcolourproject_2stim_asymm_v5,2020.2.10,Win32,60,60e52e7cfedb1dae636df45f,,,,,,,,,2841,24,61,1,0,0,response1disk,,7,-2,-7,1,0,0,rectangle,-2,-7,1,0,0,-2,-7,1,0,0,0,98,98,71,1,,,,,,,,
,,,,,,,,,,,,,FF,,,,,,,,1.1668,,,,,,,,,,,,,,,,,,,,,,60d77cc4fae7e5ce3611a31c,60e5631f470138a233dcb483,2021-07-07_10h21.14.306,Simcolourproject_2stim_asymm_v5,2020.2.10,Win32,60,60e52e7cfedb1dae636df45f,,,,,,,,,1605,39,71,1,0,0,response1disk,,7,14,9,1,0,0,rectangle,14,9,1,0,0,14,9,1,0,0,0,99,99,138,1,,,,,,,,
,,,,,,,,,,,,,FF,,,,,,,,0.5167,,,,,,,,,,,,,,,,,,,,,,60d77cc4fae7e5ce3611a31c,60e5631f470138a233dcb483,2021-07-07_10h21.14.306,Simcolourproject_2stim_asymm_v5,2020.2.10,Win32,60,60e52e7cfedb1dae636df45f,,,,,,,,,3438,25,47,1,0,0,response1disk,,7,15,8,1,0,0,rectangle,66,-28,1,0,0,9,-4,1,0,0,0,100,100,30,1,,response3disk_3,TRUE,5,5,"[300,229,294,101,227,259,171,54,299,103,235,253,217,301,151,190,114,288,54,109]",2.333,rectangle
,,,,,,,,,,,,,FF,,,,,,,,0.7353,,,,,,,,,,,,,,,,,,,,,,60d77cc4fae7e5ce3611a31c,60e5631f470138a233dcb483,2021-07-07_10h21.14.306,Simcolourproject_2stim_asymm_v5,2020.2.10,Win32,60,60e52e7cfedb1dae636df45f,,,,,,,,,360,46,63,1,0,0,response1disk,,7,23,13,1,0,0,rectangle,23,13,1,0,0,23,13,1,0,0,0,101,101,15,1,,,,,,,,
,,,,,,,,,,,,,FF,,,,,,,,1.8982,,,,,,,,,,,,,,,,,,,,,,60d77cc4fae7e5ce3611a31c,60e5631f470138a233dcb483,2021-07-07_10h21.14.306,Simcolourproject_2stim_asymm_v5,2020.2.10,Win32,60,60e52e7cfedb1dae636df45f,,,,,,,,,3102,-48,-80,1,0,0,response5disk,,3,4,-3,1,0,0,rectangle,27,-78,1,0,0,15,0,1,0,0,0,102,102,115,1,,response3disk_3,TRUE,4,4,"[300,229,294,101,227,259,171,54,299,103,235,253,217,301,151,190,114,288,54,109]",2.1869,rectangle
,,,,,,,,,,,,,FF,,,,,,,,0.9492,,,,,,,,,,,,,,,,,,,,,,60d77cc4fae7e5ce3611a31c,60e5631f470138a233dcb483,2021-07-07_10h21.14.306,Simcolourproject_2stim_asymm_v5,2020.2.10,Win32,60,60e52e7cfedb1dae636df45f,,,,,,,,,312,30,44,1,0,0,response1disk,,7,8,2,1,0,0,rectangle,8,2,1,0,0,8,2,1,0,0,0,103,103,25,1,,,,,,,,
,,,,,,,,,,,,,FF,,,,,,,,1.6165,,,,,,,,,,,,,,,,,,,,,,60d77cc4fae7e5ce3611a31c,60e5631f470138a233dcb483,2021-07-07_10h21.14.306,Simcolourproject_2stim_asymm_v5,2020.2.10,Win32,60,60e52e7cfedb1dae636df45f,,,,,,,,,612,43,30,1,0,0,response1disk,,6,8,-7,1,0,0,rectangle,8,-7,1,0,0,8,-7,1,0,0,0,104,104,123,1,,,,,,,,
,,,,,,,,,,,,,FF,,,,,,,,0.8371,,,,,,,,,,,,,,,,,,,,,,60d77cc4fae7e5ce3611a31c,60e5631f470138a233dcb483,2021-07-07_10h21.14.306,Simcolourproject_2stim_asymm_v5,2020.2.10,Win32,60,60e52e7cfedb1dae636df45f,,,,,,,,,3450,17,37,1,0,0,response1disk,,7,5,4,1,0,0,rectangle,5,4,1,0,0,5,4,1,0,0,0,105,105,119,1,,,,,,,,
,,,,,,,,,,,,,FF,,,,,,,,0.8188,,,,,,,,,,,,,,,,,,,,,,60d77cc4fae7e5ce3611a31c,60e5631f470138a233dcb483,2021-07-07_10h21.14.306,Simcolourproject_2stim_asymm_v5,2020.2.10,Win32,60,60e52e7cfedb1dae636df45f,,,,,,,,,329,61,100,1,0,0,response1disk,,7,5,10,1,0,0,rectangle,5,10,1,0,0,5,10,1,0,0,0,106,106,152,1,,,,,,,,
,,,,,,,,,,,,,FF,,,,,,,,0.6838,,,,,,,,,,,,,,,,,,,,,,60d77cc4fae7e5ce3611a31c,60e5631f470138a233dcb483,2021-07-07_10h21.14.306,Simcolourproject_2stim_asymm_v5,2020.2.10,Win32,60,60e52e7cfedb1dae636df45f,,,,,,,,,1074,31,54,1,0,0,response1disk,,7,15,8,1,0,0,rectangle,15,8,1,0,0,15,8,1,0,0,0,107,107,63,1,,,,,,,,
,,,,,,,,,,,,,FF,,,,,,,,0.6338,,,,,,,,,,,,,,,,,,,,,,60d77cc4fae7e5ce3611a31c,60e5631f470138a233dcb483,2021-07-07_10h21.14.306,Simcolourproject_2stim_asymm_v5,2020.2.10,Win32,60,60e52e7cfedb1dae636df45f,,,,,,,,,2697,20,68,1,0,0,response1disk,,7,-6,-1,1,0,0,rectangle,-39,-75,1,0,0,-4,8,1,0,0,0,108,108,67,1,,response5disk_3,TRUE,3,3,"[300,229,294,101,227,259,171,54,299,103,235,253,217,301,151,190,114,288,54,109]",2.4359,rectangle
,,,,,,,,,,,,,FF,,,,,,,,1.5522,,,,,,,,,,,,,,,,,,,,,,60d77cc4fae7e5ce3611a31c,60e5631f470138a233dcb483,2021-07-07_10h21.14.306,Simcolourproject_2stim_asymm_v5,2020.2.10,Win32,60,60e52e7cfedb1dae636df45f,,,,,,,,,3297,-45,-58,1,0,0,response5disk,,3,-2,-9,1,0,0,rectangle,-2,-9,1,0,0,-2,-9,1,0,0,0,109,109,52,1,,,,,,,,
,,,,,,,,,,,,,FF,,,,,,,,0.9036,,,,,,,,,,,,,,,,,,,,,,60d77cc4fae7e5ce3611a31c,60e5631f470138a233dcb483,2021-07-07_10h21.14.306,Simcolourproject_2stim_asymm_v5,2020.2.10,Win32,60,60e52e7cfedb1dae636df45f,,,,,,,,,4288,49,88,1,0,0,response1disk,,7,-10,-10,1,0,0,rectangle,-10,-10,1,0,0,-10,-10,1,0,0,0,110,110,134,1,,,,,,,,
,,,,,,,,,,,,,FF,,,,,,,,0.768,,,,,,,,,,,,,,,,,,,,,,60d77cc4fae7e5ce3611a31c,60e5631f470138a233dcb483,2021-07-07_10h21.14.306,Simcolourproject_2stim_asymm_v5,2020.2.10,Win32,60,60e52e7cfedb1dae636df45f,,,,,,,,,1279,42,79,1,0,0,response1disk,,7,4,9,1,0,0,rectangle,4,9,1,0,0,4,9,1,0,0,0,111,111,53,1,,,,,,,,
,,,,,,,,,,,,,FF,,,,,,,,0.7004,,,,,,,,,,,,,,,,,,,,,,60d77cc4fae7e5ce3611a31c,60e5631f470138a233dcb483,2021-07-07_10h21.14.306,Simcolourproject_2stim_asymm_v5,2020.2.10,Win32,60,60e52e7cfedb1dae636df45f,,,,,,,,,3065,28,55,1,0,0,response1disk,,7,2,3,1,0,0,rectangle,2,3,1,0,0,2,3,1,0,0,0,112,112,118,1,,,,,,,,
,,,,,,,,,,,,,FF,,,,,,,,0.7372,,,,,,,,,,,,,,,,,,,,,,60d77cc4fae7e5ce3611a31c,60e5631f470138a233dcb483,2021-07-07_10h21.14.306,Simcolourproject_2stim_asymm_v5,2020.2.10,Win32,60,60e52e7cfedb1dae636df45f,,,,,,,,,2365,52,93,1,0,0,response1disk,,7,2,4,1,0,0,rectangle,26,-107,1,0,0,1,-6,1,0,0,0,113,113,105,1,,response3disk_3,TRUE,4,4,"[300,229,294,101,227,259,171,54,299,103,235,253,217,301,151,190,114,288,54,109]",2.1003,rectangle
,,,,,,,,,,,,,FF,,,,,,,,0.732,,,,,,,,,,,,,,,,,,,,,,60d77cc4fae7e5ce3611a31c,60e5631f470138a233dcb483,2021-07-07_10h21.14.306,Simcolourproject_2stim_asymm_v5,2020.2.10,Win32,60,60e52e7cfedb1dae636df45f,,,,,,,,,399,66,90,1,0,0,response1disk,,7,14,5,1,0,0,rectangle,14,5,1,0,0,14,5,1,0,0,0,114,114,78,1,,,,,,,,
,,,,,,,,,,,,,FF,,,,,,,,0.752,,,,,,,,,,,,,,,,,,,,,,60d77cc4fae7e5ce3611a31c,60e5631f470138a233dcb483,2021-07-07_10h21.14.306,Simcolourproject_2stim_asymm_v5,2020.2.10,Win32,60,60e52e7cfedb1dae636df45f,,,,,,,,,773,35,62,1,0,0,response1disk,,7,7,5,1,0,0,rectangle,7,5,1,0,0,7,5,1,0,0,0,115,115,50,1,,,,,,,,
,,,,,,,,,,,,,FF,,,,,,,,0.652,,,,,,,,,,,,,,,,,,,,,,60d77cc4fae7e5ce3611a31c,60e5631f470138a233dcb483,2021-07-07_10h21.14.306,Simcolourproject_2stim_asymm_v5,2020.2.10,Win32,60,60e52e7cfedb1dae636df45f,,,,,,,,,3903,56,100,1,0,0,response1disk,,7,4,-5,1,0,0,rectangle,4,-5,1,0,0,4,-5,1,0,0,0,116,116,109,1,,,,,,,,
,,,,,,,,,,,,,FF,,,,,,,,1.5376,,,,,,,,,,,,,,,,,,,,,,60d77cc4fae7e5ce3611a31c,60e5631f470138a233dcb483,2021-07-07_10h21.14.306,Simcolourproject_2stim_asymm_v5,2020.2.10,Win32,60,60e52e7cfedb1dae636df45f,,,,,,,,,722,-34,-54,1,0,0,response5disk,,3,0,-10,1,0,0,rectangle,0,-10,1,0,0,0,-10,1,0,0,0,117,117,110,1,,,,,,,,
,,,,,,,,,,,,,FF,,,,,,,,0.9552,,,,,,,,,,,,,,,,,,,,,,60d77cc4fae7e5ce3611a31c,60e5631f470138a233dcb483,2021-07-07_10h21.14.306,Simcolourproject_2stim_asymm_v5,2020.2.10,Win32,60,60e52e7cfedb1dae636df45f,,,,,,,,,3870,39,58,1,0,0,response1disk,,7,1,4,1,0,0,rectangle,1,4,1,0,0,1,4,1,0,0,0,118,118,57,1,,,,,,,,
,,,,,,,,,,,,,FF,,,,,,,,0.7212,,,,,,,,,,,,,,,,,,,,,,60d77cc4fae7e5ce3611a31c,60e5631f470138a233dcb483,2021-07-07_10h21.14.306,Simcolourproject_2stim_asymm_v5,2020.2.10,Win32,60,60e52e7cfedb1dae636df45f,,,,,,,,,29,34,78,1,0,0,response1disk,,7,-1,6,1,0,0,rectangle,-1,6,1,0,0,-1,6,1,0,0,0,119,119,158,1,,,,,,,,
,,,,,,,,,,,,,FF,,,,,,,,1.7687,,,,,,,,,,,,,,,,,,,,,,60d77cc4fae7e5ce3611a31c,60e5631f470138a233dcb483,2021-07-07_10h21.14.306,Simcolourproject_2stim_asymm_v5,2020.2.10,Win32,60,60e52e7cfedb1dae636df45f,,,,,,,,,1526,-39,-72,1,0,0,response5disk,,3,3,-8,1,0,0,rectangle,3,-8,1,0,0,3,-8,1,0,0,0,120,120,13,1,,,,,,,,
,,,,,,,,,,,,,FF,,,,,,,,0.8187,,,,,,,,,,,,,,,,,,,,,,60d77cc4fae7e5ce3611a31c,60e5631f470138a233dcb483,2021-07-07_10h21.14.306,Simcolourproject_2stim_asymm_v5,2020.2.10,Win32,60,60e52e7cfedb1dae636df45f,,,,,,,,,4023,31,55,1,0,0,response1disk,,7,3,-1,1,0,0,rectangle,3,-1,1,0,0,3,-1,1,0,0,0,121,121,34,1,,,,,,,,
,,,,,,,,,,,,,FF,,,,,,,,1.7372,,,,,,,,,,,,,,,,,,,,,,60d77cc4fae7e5ce3611a31c,60e5631f470138a233dcb483,2021-07-07_10h21.14.306,Simcolourproject_2stim_asymm_v5,2020.2.10,Win32,60,60e52e7cfedb1dae636df45f,,,,,,,,,2033,-86,-51,1,0,0,response5disk,,2,9,9,1,0,0,rectangle,9,9,1,0,0,9,9,1,0,0,0,122,122,94,1,,,,,,,,
,,,,,,,,,,,,,FF,,,,,,,,1.2019,,,,,,,,,,,,,,,,,,,,,,60d77cc4fae7e5ce3611a31c,60e5631f470138a233dcb483,2021-07-07_10h21.14.306,Simcolourproject_2stim_asymm_v5,2020.2.10,Win32,60,60e52e7cfedb1dae636df45f,,,,,,,,,785,38,63,1,0,0,response1disk,,7,14,3,1,0,0,rectangle,14,3,1,0,0,14,3,1,0,0,0,123,123,108,1,,,,,,,,
,,,,,,,,,,,,,FF,,,,,,,,0.7006,,,,,,,,,,,,,,,,,,,,,,60d77cc4fae7e5ce3611a31c,60e5631f470138a233dcb483,2021-07-07_10h21.14.306,Simcolourproject_2stim_asymm_v5,2020.2.10,Win32,60,60e52e7cfedb1dae636df45f,,,,,,,,,864,42,58,1,0,0,response1disk,,7,7,0,1,0,0,rectangle,7,0,1,0,0,7,0,1,0,0,0,124,124,131,1,,,,,,,,
,,,,,,,,,,,,,FF,,,,,,,,1.2178,,,,,,,,,,,,,,,,,,,,,,60d77cc4fae7e5ce3611a31c,60e5631f470138a233dcb483,2021-07-07_10h21.14.306,Simcolourproject_2stim_asymm_v5,2020.2.10,Win32,60,60e52e7cfedb1dae636df45f,,,,,,,,,1754,27,59,1,0,0,response1disk,,7,-6,-7,1,0,0,rectangle,-6,-7,1,0,0,-6,-7,1,0,0,0,125,125,103,1,,,,,,,,
,,,,,,,,,,,,,FF,,,,,,,,1.2851,,,,,,,,,,,,,,,,,,,,,,60d77cc4fae7e5ce3611a31c,60e5631f470138a233dcb483,2021-07-07_10h21.14.306,Simcolourproject_2stim_asymm_v5,2020.2.10,Win32,60,60e52e7cfedb1dae636df45f,,,,,,,,,699,20,43,1,0,0,response1disk,,7,13,13,1,0,0,rectangle,13,13,1,0,0,13,13,1,0,0,0,126,126,28,1,,,,,,,,
,,,,,,,,,,,,,FF,,,,,,,,0.7013,,,,,,,,,,,,,,,,,,,,,,60d77cc4fae7e5ce3611a31c,60e5631f470138a233dcb483,2021-07-07_10h21.14.306,Simcolourproject_2stim_asymm_v5,2020.2.10,Win32,60,60e52e7cfedb1dae636df45f,,,,,,,,,134,63,117,1,0,0,response1disk,,7,14,7,1,0,0,rectangle,14,7,1,0,0,14,7,1,0,0,0,127,127,39,1,,,,,,,,
,,,,,,,,,,,,,FF,,,,,,,,1.3507,,,,,,,,,,,,,,,,,,,,,,60d77cc4fae7e5ce3611a31c,60e5631f470138a233dcb483,2021-07-07_10h21.14.306,Simcolourproject_2stim_asymm_v5,2020.2.10,Win32,60,60e52e7cfedb1dae636df45f,,,,,,,,,886,-42,73,1,0,0,response7disk,,0,-3,8,1,0,0,rectangle,-3,8,1,0,0,-3,8,1,0,0,0,128,128,156,1,,,,,,,,
,,,,,,,,,,,,,FF,,,,,,,,2.3337,,,,,,,,,,,,,,,,,,,,,,60d77cc4fae7e5ce3611a31c,60e5631f470138a233dcb483,2021-07-07_10h21.14.306,Simcolourproject_2stim_asymm_v5,2020.2.10,Win32,60,60e52e7cfedb1dae636df45f,,,,,,,,,204,-53,-68,1,0,0,response5disk,,3,19,10,1,0,0,rectangle,19,10,1,0,0,19,10,1,0,0,0,129,129,32,1,,,,,,,,
,,,,,,,,,,,,,FF,,,,,,,,0.9179,,,,,,,,,,,,,,,,,,,,,,60d77cc4fae7e5ce3611a31c,60e5631f470138a233dcb483,2021-07-07_10h21.14.306,Simcolourproject_2stim_asymm_v5,2020.2.10,Win32,60,60e52e7cfedb1dae636df45f,,,,,,,,,1489,28,46,1,0,0,response1disk,,7,6,-8,1,0,0,rectangle,6,-8,1,0,0,6,-8,1,0,0,0,130,130,87,1,,,,,,,,
,,,,,,,,,,,,,FF,,,,,,,,0.7171,,,,,,,,,,,,,,,,,,,,,,60d77cc4fae7e5ce3611a31c,60e5631f470138a233dcb483,2021-07-07_10h21.14.306,Simcolourproject_2stim_asymm_v5,2020.2.10,Win32,60,60e52e7cfedb1dae636df45f,,,,,,,,,2066,31,55,1,0,0,response1disk,,7,16,12,1,0,0,rectangle,16,12,1,0,0,16,12,1,0,0,0,131,131,86,1,,,,,,,,
,,,,,,,,,,,,,FF,,,,,,,,2.0851,,,,,,,,,,,,,,,,,,,,,,60d77cc4fae7e5ce3611a31c,60e5631f470138a233dcb483,2021-07-07_10h21.14.306,Simcolourproject_2stim_asymm_v5,2020.2.10,Win32,60,60e52e7cfedb1dae636df45f,,,,,,,,,3094,28,-79,1,0,0,response3disk,,4,0,12,1,0,0,rectangle,0,12,1,0,0,0,12,1,0,0,0,132,132,154,1,,,,,,,,
,,,,,,,,,,,,,FF,,,,,,,,0.8498,,,,,,,,,,,,,,,,,,,,,,60d77cc4fae7e5ce3611a31c,60e5631f470138a233dcb483,2021-07-07_10h21.14.306,Simcolourproject_2stim_asymm_v5,2020.2.10,Win32,60,60e52e7cfedb1dae636df45f,,,,,,,,,1727,49,101,1,0,0,response1disk,,7,7,5,1,0,0,rectangle,7,5,1,0,0,7,5,1,0,0,0,133,133,140,1,,,,,,,,
,,,,,,,,,,,,,FF,,,,,,,,0.7506,,,,,,,,,,,,,,,,,,,,,,60d77cc4fae7e5ce3611a31c,60e5631f470138a233dcb483,2021-07-07_10h21.14.306,Simcolourproject_2stim_asymm_v5,2020.2.10,Win32,60,60e52e7cfedb1dae636df45f,,,,,,,,,756,28,59,1,0,0,response1disk,,7,3,8,1,0,0,rectangle,3,8,1,0,0,3,8,1,0,0,0,134,134,51,1,,,,,,,,
,,,,,,,,,,,,,FF,,,,,,,,1.6,,,,,,,,,,,,,,,,,,,,,,60d77cc4fae7e5ce3611a31c,60e5631f470138a233dcb483,2021-07-07_10h21.14.306,Simcolourproject_2stim_asymm_v5,2020.2.10,Win32,60,60e52e7cfedb1dae636df45f,,,,,,,,,4143,59,-40,1,0,0,response3disk,,5,25,-5,1,0,0,rectangle,25,-5,1,0,0,25,-5,1,0,0,0,135,135,66,1,,,,,,,,
,,,,,,,,,,,,,FF,,,,,,,,0.8341,,,,,,,,,,,,,,,,,,,,,,60d77cc4fae7e5ce3611a31c,60e5631f470138a233dcb483,2021-07-07_10h21.14.306,Simcolourproject_2stim_asymm_v5,2020.2.10,Win32,60,60e52e7cfedb1dae636df45f,,,,,,,,,4112,32,79,1,0,0,response1disk,,7,15,1,1,0,0,rectangle,15,1,1,0,0,15,1,1,0,0,0,136,136,47,1,,,,,,,,
,,,,,,,,,,,,,FF,,,,,,,,2.2162,,,,,,,,,,,,,,,,,,,,,,60d77cc4fae7e5ce3611a31c,60e5631f470138a233dcb483,2021-07-07_10h21.14.306,Simcolourproject_2stim_asymm_v5,2020.2.10,Win32,60,60e52e7cfedb1dae636df45f,,,,,,,,,4078,91,-27,1,0,0,response3disk,,5,5,4,1,0,0,rectangle,5,4,1,0,0,5,4,1,0,0,0,137,137,89,1,,,,,,,,
,,,,,,,,,,,,,FF,,,,,,,,1.9842,,,,,,,,,,,,,,,,,,,,,,60d77cc4fae7e5ce3611a31c,60e5631f470138a233dcb483,2021-07-07_10h21.14.306,Simcolourproject_2stim_asymm_v5,2020.2.10,Win32,60,60e52e7cfedb1dae636df45f,,,,,,,,,1619,23,45,1,0,0,response1disk,,7,0,-7,1,0,0,rectangle,0,-7,1,0,0,0,-7,1,0,0,0,138,138,74,1,,,,,,,,
,,,,,,,,,,,,,FF,,,,,,,,1.4495,,,,,,,,,,,,,,,,,,,,,,60d77cc4fae7e5ce3611a31c,60e5631f470138a233dcb483,2021-07-07_10h21.14.306,Simcolourproject_2stim_asymm_v5,2020.2.10,Win32,60,60e52e7cfedb1dae636df45f,,,,,,,,,1058,-73,41,1,0,0,response7disk,,1,-7,9,1,0,0,rectangle,-7,9,1,0,0,-7,9,1,0,0,0,139,139,38,1,,,,,,,,
,,,,,,,,,,,,,FF,,,,,,,,0.9673,,,,,,,,,,,,,,,,,,,,,,60d77cc4fae7e5ce3611a31c,60e5631f470138a233dcb483,2021-07-07_10h21.14.306,Simcolourproject_2stim_asymm_v5,2020.2.10,Win32,60,60e52e7cfedb1dae636df45f,,,,,,,,,387,35,73,1,0,0,response1disk,,7,21,13,1,0,0,rectangle,21,13,1,0,0,21,13,1,0,0,0,140,140,150,1,,,,,,,,
,,,,,,,,,,,,,FF,,,,,,,,0.7063,,,,,,,,,,,,,,,,,,,,,,60d77cc4fae7e5ce3611a31c,60e5631f470138a233dcb483,2021-07-07_10h21.14.306,Simcolourproject_2stim_asymm_v5,2020.2.10,Win32,60,60e52e7cfedb1dae636df45f,,,,,,,,,2024,29,50,1,0,0,response1disk,,7,22,9,1,0,0,rectangle,22,9,1,0,0,22,9,1,0,0,0,141,141,113,1,,,,,,,,
,,,,,,,,,,,,,FF,,,,,,,,1.7851,,,,,,,,,,,,,,,,,,,,,,60d77cc4fae7e5ce3611a31c,60e5631f470138a233dcb483,2021-07-07_10h21.14.306,Simcolourproject_2stim_asymm_v5,2020.2.10,Win32,60,60e52e7cfedb1dae636df45f,,,,,,,,,3154,-60,44,1,0,0,response7disk,,1,-11,3,1,0,0,rectangle,-11,3,1,0,0,-11,3,1,0,0,0,142,142,27,1,,,,,,,,
,,,,,,,,,,,,,FF,,,,,,,,0.8678,,,,,,,,,,,,,,,,,,,,,,60d77cc4fae7e5ce3611a31c,60e5631f470138a233dcb483,2021-07-07_10h21.14.306,Simcolourproject_2stim_asymm_v5,2020.2.10,Win32,60,60e52e7cfedb1dae636df45f,,,,,,,,,3964,23,61,1,0,0,response1disk,,7,11,-11,1,0,0,rectangle,11,-11,1,0,0,11,-11,1,0,0,0,143,143,49,1,,,,,,,,
,,,,,,,,,,,,,FF,,,,,,,,0.8524,,,,,,,,,,,,,,,,,,,,,,60d77cc4fae7e5ce3611a31c,60e5631f470138a233dcb483,2021-07-07_10h21.14.306,Simcolourproject_2stim_asymm_v5,2020.2.10,Win32,60,60e52e7cfedb1dae636df45f,,,,,,,,,851,34,70,1,0,0,response1disk,,7,10,-2,1,0,0,rectangle,10,-2,1,0,0,10,-2,1,0,0,0,144,144,58,1,,,,,,,,
,,,,,,,,,,,,,FF,,,,,,,,1.5178,,,,,,,,,,,,,,,,,,,,,,60d77cc4fae7e5ce3611a31c,60e5631f470138a233dcb483,2021-07-07_10h21.14.306,Simcolourproject_2stim_asymm_v5,2020.2.10,Win32,60,60e52e7cfedb1dae636df45f,,,,,,,,,3739,36,76,1,0,0,response1disk,,7,7,-1,1,0,0,rectangle,7,-1,1,0,0,7,-1,1,0,0,0,145,145,24,1,,,,,,,,
,,,,,,,,,,,,,FF,,,,,,,,0.9473,,,,,,,,,,,,,,,,,,,,,,60d77cc4fae7e5ce3611a31c,60e5631f470138a233dcb483,2021-07-07_10h21.14.306,Simcolourproject_2stim_asymm_v5,2020.2.10,Win32,60,60e52e7cfedb1dae636df45f,,,,,,,,,3713,33,82,1,0,0,response1disk,,7,22,1,1,0,0,rectangle,22,1,1,0,0,22,1,1,0,0,0,146,146,136,1,,,,,,,,
,,,,,,,,,,,,,FF,,,,,,,,1.7677,,,,,,,,,,,,,,,,,,,,,,60d77cc4fae7e5ce3611a31c,60e5631f470138a233dcb483,2021-07-07_10h21.14.306,Simcolourproject_2stim_asymm_v5,2020.2.10,Win32,60,60e52e7cfedb1dae636df45f,,,,,,,,,2304,-32,-70,1,0,0,response5disk,,3,5,-3,1,0,0,rectangle,5,-3,1,0,0,5,-3,1,0,0,0,147,147,73,1,,,,,,,,
,,,,,,,,,,,,,FF,,,,,,,,0.9004,,,,,,,,,,,,,,,,,,,,,,60d77cc4fae7e5ce3611a31c,60e5631f470138a233dcb483,2021-07-07_10h21.14.306,Simcolourproject_2stim_asymm_v5,2020.2.10,Win32,60,60e52e7cfedb1dae636df45f,,,,,,,,,2520,50,100,1,0,0,response1disk,,7,-10,-10,1,0,0,rectangle,-10,-10,1,0,0,-10,-10,1,0,0,0,148,148,9,1,,,,,,,,
,,,,,,,,,,,,,FF,,,,,,,,1.4246,,,,,,,,,,,,,,,,,,,,,,60d77cc4fae7e5ce3611a31c,60e5631f470138a233dcb483,2021-07-07_10h21.14.306,Simcolourproject_2stim_asymm_v5,2020.2.10,Win32,60,60e52e7cfedb1dae636df45f,,,,,,,,,3979,26,-64,1,0,0,response3disk,,4,19,9,1,0,0,rectangle,19,9,1,0,0,19,9,1,0,0,0,149,149,4,1,,,,,,,,
,,,,,,,,,,,,,FF,,,,,,,,1.7083,,,,,,,,,,,,,,,,,,,,,,60d77cc4fae7e5ce3611a31c,60e5631f470138a233dcb483,2021-07-07_10h21.14.306,Simcolourproject_2stim_asymm_v5,2020.2.10,Win32,60,60e52e7cfedb1dae636df45f,,,,,,,,,2675,58,-24,1,0,0,response3disk,,5,7,5,1,0,0,rectangle,-57,-33,1,0,0,5,-1,1,0,0,0,150,150,133,1,,response5disk_3,TRUE,2,2,"[300,229,294,101,227,259,171,54,299,103,235,253,217,301,151,190,114,288,54,109]",1.9677,rectangle
,,,,,,,,,,,,,FF,,,,,,,,0.9003,,,,,,,,,,,,,,,,,,,,,,60d77cc4fae7e5ce3611a31c,60e5631f470138a233dcb483,2021-07-07_10h21.14.306,Simcolourproject_2stim_asymm_v5,2020.2.10,Win32,60,60e52e7cfedb1dae636df45f,,,,,,,,,2214,48,87,1,0,0,response1disk,,7,4,7,1,0,0,rectangle,4,7,1,0,0,4,7,1,0,0,0,151,151,22,1,,,,,,,,
,,,,,,,,,,,,,FF,,,,,,,,0.7343,,,,,,,,,,,,,,,,,,,,,,60d77cc4fae7e5ce3611a31c,60e5631f470138a233dcb483,2021-07-07_10h21.14.306,Simcolourproject_2stim_asymm_v5,2020.2.10,Win32,60,60e52e7cfedb1dae636df45f,,,,,,,,,628,50,104,1,0,0,response1disk,,7,10,7,1,0,0,rectangle,10,7,1,0,0,10,7,1,0,0,0,152,152,107,1,,,,,,,,
,,,,,,,,,,,,,FF,,,,,,,,0.7674,,,,,,,,,,,,,,,,,,,,,,60d77cc4fae7e5ce3611a31c,60e5631f470138a233dcb483,2021-07-07_10h21.14.306,Simcolourproject_2stim_asymm_v5,2020.2.10,Win32,60,60e52e7cfedb1dae636df45f,,,,,,,,,569,33,61,1,0,0,response1disk,,7,11,12,1,0,0,rectangle,11,12,1,0,0,11,12,1,0,0,0,153,153,90,1,,,,,,,,
,,,,,,,,,,,,,FF,,,,,,,,1.2176,,,,,,,,,,,,,,,,,,,,,,60d77cc4fae7e5ce3611a31c,60e5631f470138a233dcb483,2021-07-07_10h21.14.306,Simcolourproject_2stim_asymm_v5,2020.2.10,Win32,60,60e52e7cfedb1dae636df45f,,,,,,,,,3100,-67,-35,1,0,0,response5disk,,2,2,7,1,0,0,rectangle,2,7,1,0,0,2,7,1,0,0,0,154,154,104,1,,,,,,,,
,,,,,,,,,,,,,FF,,,,,,,,1.6515,,,,,,,,,,,,,,,,,,,,,,60d77cc4fae7e5ce3611a31c,60e5631f470138a233dcb483,2021-07-07_10h21.14.306,Simcolourproject_2stim_asymm_v5,2020.2.10,Win32,60,60e52e7cfedb1dae636df45f,,,,,,,,,1503,31,53,1,0,0,response1disk,,7,13,10,1,0,0,rectangle,13,10,1,0,0,13,10,1,0,0,0,155,155,7,1,,,,,,,,
,,,,,,,,,,,,,FF,,,,,,,,0.706,,,,,,,,,,,,,,,,,,,,,,60d77cc4fae7e5ce3611a31c,60e5631f470138a233dcb483,2021-07-07_10h21.14.306,Simcolourproject_2stim_asymm_v5,2020.2.10,Win32,60,60e52e7cfedb1dae636df45f,,,,,,,,,1989,56,96,1,0,0,response1disk,,7,1,1,1,0,0,rectangle,1,1,1,0,0,1,1,1,0,0,0,156,156,62,1,,,,,,,,
,,,,,,,,,,,,,FF,,,,,,,,0.8699,,,,,,,,,,,,,,,,,,,,,,60d77cc4fae7e5ce3611a31c,60e5631f470138a233dcb483,2021-07-07_10h21.14.306,Simcolourproject_2stim_asymm_v5,2020.2.10,Win32,60,60e52e7cfedb1dae636df45f,,,,,,,,,174,31,61,1,0,0,response1disk,,7,9,-3,1,0,0,rectangle,9,-3,1,0,0,9,-3,1,0,0,0,157,157,98,1,,,,,,,,
,,,,,,,,,,,,,FF,,,,,,,,1.5702,,,,,,,,,,,,,,,,,,,,,,60d77cc4fae7e5ce3611a31c,60e5631f470138a233dcb483,2021-07-07_10h21.14.306,Simcolourproject_2stim_asymm_v5,2020.2.10,Win32,60,60e52e7cfedb1dae636df45f,,,,,,,,,2288,-90,-59,1,0,0,response5disk,,2,27,-3,1,0,0,rectangle,27,-3,1,0,0,27,-3,1,0,0,0,158,158,14,1,,,,,,,,
,,,,,,,,,,,,,FF,,,,,,,,0.8675,,,,,,,,,,,,,,,,,,,,,,60d77cc4fae7e5ce3611a31c,60e5631f470138a233dcb483,2021-07-07_10h21.14.306,Simcolourproject_2stim_asymm_v5,2020.2.10,Win32,60,60e52e7cfedb1dae636df45f,,,,,,,,,2270,42,51,1,0,0,response1disk,,7,12,10,1,0,0,rectangle,12,10,1,0,0,12,10,1,0,0,0,159,159,100,1,,,,,,,,
,,,,,,,,,,,,,FF,,,,,,,,0.7358,,,,,,,,,,,,,,,,,,,,,,60d77cc4fae7e5ce3611a31c,60e5631f470138a233dcb483,2021-07-07_10h21.14.306,Simcolourproject_2stim_asymm_v5,2020.2.10,Win32,60,60e52e7cfedb1dae636df45f,,,,,,,,,1148,48,81,1,0,0,response1disk,,7,-8,-12,1,0,0,rectangle,-8,-12,1,0,0,-8,-12,1,0,0,1,0,160,15,1,,,,,,,,
,,,,,,,,,,,,,FF,,,,,,,,0.7821,,,,,,,,,,,,,,,,,,,,,,60d77cc4fae7e5ce3611a31c,60e5631f470138a233dcb483,2021-07-07_10h21.14.306,Simcolourproject_2stim_asymm_v5,2020.2.10,Win32,60,60e52e7cfedb1dae636df45f,,,,,,,,,2872,26,60,1,0,0,response1disk,,7,3,2,1,0,0,rectangle,3,2,1,0,0,3,2,1,0,0,1,1,161,111,1,,,,,,,,
,,,,,,,,,,,,,FF,,,,,,,,0.7259,,,,,,,,,,,,,,,,,,,,,,60d77cc4fae7e5ce3611a31c,60e5631f470138a233dcb483,2021-07-07_10h21.14.306,Simcolourproject_2stim_asymm_v5,2020.2.10,Win32,60,60e52e7cfedb1dae636df45f,,,,,,,,,2557,38,78,1,0,0,response1disk,,7,9,10,1,0,0,rectangle,9,10,1,0,0,9,10,1,0,0,1,2,162,91,1,,,,,,,,
,,,,,,,,,,,,,FF,,,,,,,,0.7324,,,,,,,,,,,,,,,,,,,,,,60d77cc4fae7e5ce3611a31c,60e5631f470138a233dcb483,2021-07-07_10h21.14.306,Simcolourproject_2stim_asymm_v5,2020.2.10,Win32,60,60e52e7cfedb1dae636df45f,,,,,,,,,664,30,75,1,0,0,response1disk,,7,-1,7,1,0,0,rectangle,-1,7,1,0,0,-1,7,1,0,0,1,3,163,106,1,,,,,,,,
,,,,,,,,,,,,,FF,,,,,,,,0.7328,,,,,,,,,,,,,,,,,,,,,,60d77cc4fae7e5ce3611a31c,60e5631f470138a233dcb483,2021-07-07_10h21.14.306,Simcolourproject_2stim_asymm_v5,2020.2.10,Win32,60,60e52e7cfedb1dae636df45f,,,,,,,,,2856,44,72,1,0,0,response1disk,,7,6,2,1,0,0,rectangle,6,2,1,0,0,6,2,1,0,0,1,4,164,39,1,,,,,,,,
,,,,,,,,,,,,,FF,,,,,,,,0.7079,,,,,,,,,,,,,,,,,,,,,,60d77cc4fae7e5ce3611a31c,60e5631f470138a233dcb483,2021-07-07_10h21.14.306,Simcolourproject_2stim_asymm_v5,2020.2.10,Win32,60,60e52e7cfedb1dae636df45f,,,,,,,,,2618,47,89,1,0,0,response1disk,,7,7,4,1,0,0,rectangle,7,4,1,0,0,7,4,1,0,0,1,5,165,3,1,,,,,,,,
,,,,,,,,,,,,,FF,,,,,,,,1.588,,,,,,,,,,,,,,,,,,,,,,60d77cc4fae7e5ce3611a31c,60e5631f470138a233dcb483,2021-07-07_10h21.14.306,Simcolourproject_2stim_asymm_v5,2020.2.10,Win32,60,60e52e7cfedb1dae636df45f,,,,,,,,,1287,-52,-68,1,0,0,response5disk,,3,-8,-2,1,0,0,rectangle,-8,-2,1,0,0,-8,-2,1,0,0,1,6,166,88,1,,,,,,,,
,,,,,,,,,,,,,FF,,,,,,,,1.1651,,,,,,,,,,,,,,,,,,,,,,60d77cc4fae7e5ce3611a31c,60e5631f470138a233dcb483,2021-07-07_10h21.14.306,Simcolourproject_2stim_asymm_v5,2020.2.10,Win32,60,60e52e7cfedb1dae636df45f,,,,,,,,,3447,28,55,1,0,0,response1disk,,7,16,12,1,0,0,rectangle,16,12,1,0,0,16,12,1,0,0,1,7,167,70,1,,,,,,,,
,,,,,,,,,,,,,FF,,,,,,,,0.7351,,,,,,,,,,,,,,,,,,,,,,60d77cc4fae7e5ce3611a31c,60e5631f470138a233dcb483,2021-07-07_10h21.14.306,Simcolourproject_2stim_asymm_v5,2020.2.10,Win32,60,60e52e7cfedb1dae636df45f,,,,,,,,,1282,49,92,1,0,0,response1disk,,7,-3,5,1,0,0,rectangle,-3,5,1,0,0,-3,5,1,0,0,1,8,168,24,1,,,,,,,,
,,,,,,,,,,,,,FF,,,,,,,,0.7355,,,,,,,,,,,,,,,,,,,,,,60d77cc4fae7e5ce3611a31c,60e5631f470138a233dcb483,2021-07-07_10h21.14.306,Simcolourproject_2stim_asymm_v5,2020.2.10,Win32,60,60e52e7cfedb1dae636df45f,,,,,,,,,603,45,90,1,0,0,response1disk,,7,3,6,1,0,0,rectangle,3,6,1,0,0,3,6,1,0,0,1,9,169,124,1,,,,,,,,
,,,,,,,,,,,,,FF,,,,,,,,1.4215,,,,,,,,,,,,,,,,,,,,,,60d77cc4fae7e5ce3611a31c,60e5631f470138a233dcb483,2021-07-07_10h21.14.306,Simcolourproject_2stim_asymm_v5,2020.2.10,Win32,60,60e52e7cfedb1dae636df45f,,,,,,,,,712,45,-56,1,0,0,response3disk,,4,7,10,1,0,0,rectangle,-34,86,1,0,0,-16,2,1,0,0,1,10,170,33,1,,response7disk_3,TRUE,0,0,"[300,229,294,101,227,259,171,54,299,103,235,253,217,301,151,190,114,288,54,109]",2.0161,rectangle
,,,,,,,,,,,,,FF,,,,,,,,0.8185,,,,,,,,,,,,,,,,,,,,,,60d77cc4fae7e5ce3611a31c,60e5631f470138a233dcb483,2021-07-07_10h21.14.306,Simcolourproject_2stim_asymm_v5,2020.2.10,Win32,60,60e52e7cfedb1dae636df45f,,,,,,,,,3710,37,86,1,0,0,response1disk,,7,2,3,1,0,0,rectangle,2,3,1,0,0,2,3,1,0,0,1,11,171,71,1,,,,,,,,
,,,,,,,,,,,,,FF,,,,,,,,0.7502,,,,,,,,,,,,,,,,,,,,,,60d77cc4fae7e5ce3611a31c,60e5631f470138a233dcb483,2021-07-07_10h21.14.306,Simcolourproject_2stim_asymm_v5,2020.2.10,Win32,60,60e52e7cfedb1dae636df45f,,,,,,,,,1157,18,68,1,0,0,response1disk,,7,3,7,1,0,0,rectangle,3,7,1,0,0,3,7,1,0,0,1,12,172,114,1,,,,,,,,
,,,,,,,,,,,,,FF,,,,,,,,0.7185,,,,,,,,,,,,,,,,,,,,,,60d77cc4fae7e5ce3611a31c,60e5631f470138a233dcb483,2021-07-07_10h21.14.306,Simcolourproject_2stim_asymm_v5,2020.2.10,Win32,60,60e52e7cfedb1dae636df45f,,,,,,,,,2122,40,76,1,0,0,response1disk,,7,14,5,1,0,0,rectangle,14,5,1,0,0,14,5,1,0,0,1,13,173,48,1,,,,,,,,
,,,,,,,,,,,,,FF,,,,,,,,0.7315,,,,,,,,,,,,,,,,,,,,,,60d77cc4fae7e5ce3611a31c,60e5631f470138a233dcb483,2021-07-07_10h21.14.306,Simcolourproject_2stim_asymm_v5,2020.2.10,Win32,60,60e52e7cfedb1dae636df45f,,,,,,,,,508,33,71,1,0,0,response1disk,,7,0,2,1,0,0,rectangle,0,2,1,0,0,0,2,1,0,0,1,14,174,98,1,,,,,,,,
,,,,,,,,,,,,,FF,,,,,,,,0.7536,,,,,,,,,,,,,,,,,,,,,,60d77cc4fae7e5ce3611a31c,60e5631f470138a233dcb483,2021-07-07_10h21.14.306,Simcolourproject_2stim_asymm_v5,2020.2.10,Win32,60,60e52e7cfedb1dae636df45f,,,,,,,,,2462,20,70,1,0,0,response1disk,,7,4,14,1,0,0,rectangle,4,14,1,0,0,4,14,1,0,0,1,15,175,155,1,,,,,,,,
,,,,,,,,,,,,,FF,,,,,,,,0.8052,,,,,,,,,,,,,,,,,,,,,,60d77cc4fae7e5ce3611a31c,60e5631f470138a233dcb483,2021-07-07_10h21.14.306,Simcolourproject_2stim_asymm_v5,2020.2.10,Win32,60,60e52e7cfedb1dae636df45f,,,,,,,,,3033,48,119,1,0,0,response1disk,,7,17,15,1,0,0,rectangle,17,15,1,0,0,17,15,1,0,0,1,16,176,9,1,,,,,,,,
,,,,,,,,,,,,,FF,,,,,,,,0.6867,,,,,,,,,,,,,,,,,,,,,,60d77cc4fae7e5ce3611a31c,60e5631f470138a233dcb483,2021-07-07_10h21.14.306,Simcolourproject_2stim_asymm_v5,2020.2.10,Win32,60,60e52e7cfedb1dae636df45f,,,,,,,,,280,48,74,1,0,0,response1disk,,7,13,2,1,0,0,rectangle,13,2,1,0,0,13,2,1,0,0,1,17,177,118,1,,,,,,,,
,,,,,,,,,,,,,FF,,,,,,,,0.7978,,,,,,,,,,,,,,,,,,,,,,60d77cc4fae7e5ce3611a31c,60e5631f470138a233dcb483,2021-07-07_10h21.14.306,Simcolourproject_2stim_asymm_v5,2020.2.10,Win32,60,60e52e7cfedb1dae636df45f,,,,,,,,,3004,28,79,1,0,0,response1disk,,7,-4,-8,1,0,0,rectangle,-4,-8,1,0,0,-4,-8,1,0,0,1,18,178,29,1,,,,,,,,
,,,,,,,,,,,,,FF,,,,,,,,1.2009,,,,,,,,,,,,,,,,,,,,,,60d77cc4fae7e5ce3611a31c,60e5631f470138a233dcb483,2021-07-07_10h21.14.306,Simcolourproject_2stim_asymm_v5,2020.2.10,Win32,60,60e52e7cfedb1dae636df45f,,,,,,,,,1502,30,60,1,0,0,response1disk,,7,1,-3,1,0,0,rectangle,1,-3,1,0,0,1,-3,1,0,0,1,19,179,108,1,,,,,,,,
,,,,,,,,,,,,,FF,,,,,,,,0.956,,,,,,,,,,,,,,,,,,,,,,60d77cc4fae7e5ce3611a31c,60e5631f470138a233dcb483,2021-07-07_10h21.14.306,Simcolourproject_2stim_asymm_v5,2020.2.10,Win32,60,60e52e7cfedb1dae636df45f,,,,,,,,,3755,26,60,1,0,0,response1disk,,7,8,5,1,0,0,rectangle,8,5,1,0,0,8,5,1,0,0,1,20,180,40,1,,,,,,,,
,,,,,,,,,,,,,FF,,,,,,,,1.1727,,,,,,,,,,,,,,,,,,,,,,60d77cc4fae7e5ce3611a31c,60e5631f470138a233dcb483,2021-07-07_10h21.14.306,Simcolourproject_2stim_asymm_v5,2020.2.10,Win32,60,60e52e7cfedb1dae636df45f,,,,,,,,,3654,43,110,1,0,0,response1disk,,7,-2,-1,1,0,0,rectangle,-2,-1,1,0,0,-2,-1,1,0,0,1,21,181,52,1,,,,,,,,
,,,,,,,,,,,,,FF,,,,,,,,0.7499,,,,,,,,,,,,,,,,,,,,,,60d77cc4fae7e5ce3611a31c,60e5631f470138a233dcb483,2021-07-07_10h21.14.306,Simcolourproject_2stim_asymm_v5,2020.2.10,Win32,60,60e52e7cfedb1dae636df45f,,,,,,,,,3125,26,62,1,0,0,response1disk,,7,10,4,1,0,0,rectangle,10,4,1,0,0,10,4,1,0,0,1,22,182,129,1,,,,,,,,
,,,,,,,,,,,,,FF,,,,,,,,0.7006,,,,,,,,,,,,,,,,,,,,,,60d77cc4fae7e5ce3611a31c,60e5631f470138a233dcb483,2021-07-07_10h21.14.306,Simcolourproject_2stim_asymm_v5,2020.2.10,Win32,60,60e52e7cfedb1dae636df45f,,,,,,,,,3768,35,66,1,0,0,response1disk,,7,3,7,1,0,0,rectangle,3,7,1,0,0,3,7,1,0,0,1,23,183,26,1,,,,,,,,
,,,,,,,,,,,,,FF,,,,,,,,1.2525,,,,,,,,,,,,,,,,,,,,,,60d77cc4fae7e5ce3611a31c,60e5631f470138a233dcb483,2021-07-07_10h21.14.306,Simcolourproject_2stim_asymm_v5,2020.2.10,Win32,60,60e52e7cfedb1dae636df45f,,,,,,,,,3515,-58,-28,1,0,0,response5disk,,2,6,8,1,0,0,rectangle,6,8,1,0,0,6,8,1,0,0,1,24,184,103,1,,,,,,,,
,,,,,,,,,,,,,FF,,,,,,,,0.9168,,,,,,,,,,,,,,,,,,,,,,60d77cc4fae7e5ce3611a31c,60e5631f470138a233dcb483,2021-07-07_10h21.14.306,Simcolourproject_2stim_asymm_v5,2020.2.10,Win32,60,60e52e7cfedb1dae636df45f,,,,,,,,,3787,31,53,1,0,0,response1disk,,7,5,7,1,0,0,rectangle,5,7,1,0,0,5,7,1,0,0,1,25,185,136,1,,,,,,,,
,,,,,,,,,,,,,FF,,,,,,,,0.701,,,,,,,,,,,,,,,,,,,,,,60d77cc4fae7e5ce3611a31c,60e5631f470138a233dcb483,2021-07-07_10h21.14.306,Simcolourproject_2stim_asymm_v5,2020.2.10,Win32,60,60e52e7cfedb1dae636df45f,,,,,,,,,425,31,84,1,0,0,response1disk,,7,1,4,1,0,0,rectangle,1,4,1,0,0,1,4,1,0,0,1,26,186,156,1,,,,,,,,
,,,,,,,,,,,,,FF,,,,,,,,0.6698,,,,,,,,,,,,,,,,,,,,,,60d77cc4fae7e5ce3611a31c,60e5631f470138a233dcb483,2021-07-07_10h21.14.306,Simcolourproject_2stim_asymm_v5,2020.2.10,Win32,60,60e52e7cfedb1dae636df45f,,,,,,,,,818,43,67,1,0,0,response1disk,,7,-5,-15,1,0,0,rectangle,-5,-15,1,0,0,-5,-15,1,0,0,1,27,187,16,1,,,,,,,,
,,,,,,,,,,,,,FF,,,,,,,,1.318,,,,,,,,,,,,,,,,,,,,,,60d77cc4fae7e5ce3611a31c,60e5631f470138a233dcb483,2021-07-07_10h21.14.306,Simcolourproject_2stim_asymm_v5,2020.2.10,Win32,60,60e52e7cfedb1dae636df45f,,,,,,,,,4209,24,42,1,0,0,response1disk,,7,8,3,1,0,0,rectangle,8,3,1,0,0,8,3,1,0,0,1,28,188,128,1,,,,,,,,
,,,,,,,,,,,,,FF,,,,,,,,0.7837,,,,,,,,,,,,,,,,,,,,,,60d77cc4fae7e5ce3611a31c,60e5631f470138a233dcb483,2021-07-07_10h21.14.306,Simcolourproject_2stim_asymm_v5,2020.2.10,Win32,60,60e52e7cfedb1dae636df45f,,,,,,,,,3117,37,73,1,0,0,response1disk,,7,9,-1,1,0,0,rectangle,40,91,1,0,0,13,9,1,0,0,1,29,189,87,1,,response1disk_3,TRUE,7,7,"[300,229,294,101,227,259,171,54,299,103,235,253,217,301,151,190,114,288,54,109]",1.85,rectangle
,,,,,,,,,,,,,FF,,,,,,,,1.2831,,,,,,,,,,,,,,,,,,,,,,60d77cc4fae7e5ce3611a31c,60e5631f470138a233dcb483,2021-07-07_10h21.14.306,Simcolourproject_2stim_asymm_v5,2020.2.10,Win32,60,60e52e7cfedb1dae636df45f,,,,,,,,,1345,41,54,1,0,0,response1disk,,7,20,9,1,0,0,rectangle,20,9,1,0,0,20,9,1,0,0,1,30,190,75,1,,,,,,,,
,,,,,,,,,,,,,FF,,,,,,,,0.8839,,,,,,,,,,,,,,,,,,,,,,60d77cc4fae7e5ce3611a31c,60e5631f470138a233dcb483,2021-07-07_10h21.14.306,Simcolourproject_2stim_asymm_v5,2020.2.10,Win32,60,60e52e7cfedb1dae636df45f,,,,,,,,,2763,45,76,1,0,0,response1disk,,7,4,14,1,0,0,rectangle,4,14,1,0,0,4,14,1,0,0,1,31,191,125,1,,,,,,,,
,,,,,,,,,,,,,FF,,,,,,,,0.8843,,,,,,,,,,,,,,,,,,,,,,60d77cc4fae7e5ce3611a31c,60e5631f470138a233dcb483,2021-07-07_10h21.14.306,Simcolourproject_2stim_asymm_v5,2020.2.10,Win32,60,60e52e7cfedb1dae636df45f,,,,,,,,,585,36,82,1,0,0,response1disk,,7,4,-1,1,0,0,rectangle,4,-1,1,0,0,4,-1,1,0,0,1,32,192,105,1,,,,,,,,
,,,,,,,,,,,,,FF,,,,,,,,0.7518,,,,,,,,,,,,,,,,,,,,,,60d77cc4fae7e5ce3611a31c,60e5631f470138a233dcb483,2021-07-07_10h21.14.306,Simcolourproject_2stim_asymm_v5,2020.2.10,Win32,60,60e52e7cfedb1dae636df45f,,,,,,,,,250,35,64,1,0,0,response1disk,,7,10,13,1,0,0,rectangle,10,13,1,0,0,10,13,1,0,0,1,33,193,140,1,,,,,,,,
,,,,,,,,,,,,,FF,,,,,,,,0.7186,,,,,,,,,,,,,,,,,,,,,,60d77cc4fae7e5ce3611a31c,60e5631f470138a233dcb483,2021-07-07_10h21.14.306,Simcolourproject_2stim_asymm_v5,2020.2.10,Win32,60,60e52e7cfedb1dae636df45f,,,,,,,,,2187,35,68,1,0,0,response1disk,,7,6,8,1,0,0,rectangle,6,8,1,0,0,6,8,1,0,0,1,34,194,72,1,,,,,,,,
,,,,,,,,,,,,,FF,,,,,,,,0.783,,,,,,,,,,,,,,,,,,,,,,60d77cc4fae7e5ce3611a31c,60e5631f470138a233dcb483,2021-07-07_10h21.14.306,Simcolourproject_2stim_asymm_v5,2020.2.10,Win32,60,60e52e7cfedb1dae636df45f,,,,,,,,,3442,33,74,1,0,0,response1disk,,7,14,6,1,0,0,rectangle,14,6,1,0,0,14,6,1,0,0,1,35,195,73,1,,,,,,,,
,,,,,,,,,,,,,FF,,,,,,,,0.7007,,,,,,,,,,,,,,,,,,,,,,60d77cc4fae7e5ce3611a31c,60e5631f470138a233dcb483,2021-07-07_10h21.14.306,Simcolourproject_2stim_asymm_v5,2020.2.10,Win32,60,60e52e7cfedb1dae636df45f,,,,,,,,,3565,42,115,1,0,0,response1disk,,7,-1,-5,1,0,0,rectangle,-1,-5,1,0,0,-1,-5,1,0,0,1,36,196,67,1,,,,,,,,
,,,,,,,,,,,,,FF,,,,,,,,0.7018,,,,,,,,,,,,,,,,,,,,,,60d77cc4fae7e5ce3611a31c,60e5631f470138a233dcb483,2021-07-07_10h21.14.306,Simcolourproject_2stim_asymm_v5,2020.2.10,Win32,60,60e52e7cfedb1dae636df45f,,,,,,,,,1102,20,35,1,0,0,response1disk,,7,9,6,1,0,0,rectangle,9,6,1,0,0,9,6,1,0,0,1,37,197,112,1,,,,,,,,
,,,,,,,,,,,,,FF,,,,,,,,0.9838,,,,,,,,,,,,,,,,,,,,,,60d77cc4fae7e5ce3611a31c,60e5631f470138a233dcb483,2021-07-07_10h21.14.306,Simcolourproject_2stim_asymm_v5,2020.2.10,Win32,60,60e52e7cfedb1dae636df45f,,,,,,,,,1267,31,66,1,0,0,response1disk,,7,8,1,1,0,0,rectangle,8,1,1,0,0,8,1,1,0,0,1,38,198,76,1,,,,,,,,
,,,,,,,,,,,,,FF,,,,,,,,0.9001,,,,,,,,,,,,,,,,,,,,,,60d77cc4fae7e5ce3611a31c,60e5631f470138a233dcb483,2021-07-07_10h21.14.306,Simcolourproject_2stim_asymm_v5,2020.2.10,Win32,60,60e52e7cfedb1dae636df45f,,,,,,,,,2660,-38,122,1,0,0,response7disk,,0,-7,11,1,0,0,rectangle,-7,11,1,0,0,-7,11,1,0,0,1,39,199,79,1,,,,,,,,
,,,,,,,,,,,,,FF,,,,,,,,1.1844,,,,,,,,,,,,,,,,,,,,,,60d77cc4fae7e5ce3611a31c,60e5631f470138a233dcb483,2021-07-07_10h21.14.306,Simcolourproject_2stim_asymm_v5,2020.2.10,Win32,60,60e52e7cfedb1dae636df45f,,,,,,,,,1370,-64,36,1,0,0,response7disk,,1,-32,2,1,0,0,rectangle,-32,2,1,0,0,-32,2,1,0,0,1,40,200,45,1,,,,,,,,
,,,,,,,,,,,,,FF,,,,,,,,1.2492,,,,,,,,,,,,,,,,,,,,,,60d77cc4fae7e5ce3611a31c,60e5631f470138a233dcb483,2021-07-07_10h21.14.306,Simcolourproject_2stim_asymm_v5,2020.2.10,Win32,60,60e52e7cfedb1dae636df45f,,,,,,,,,437,-82,36,1,0,0,response7disk,,1,-25,-2,1,0,0,rectangle,-25,-2,1,0,0,-25,-2,1,0,0,1,41,201,37,1,,,,,,,,
,,,,,,,,,,,,,FF,,,,,,,,0.8694,,,,,,,,,,,,,,,,,,,,,,60d77cc4fae7e5ce3611a31c,60e5631f470138a233dcb483,2021-07-07_10h21.14.306,Simcolourproject_2stim_asymm_v5,2020.2.10,Win32,60,60e52e7cfedb1dae636df45f,,,,,,,,,1755,-52,42,1,0,0,response7disk,,1,-26,-12,1,0,0,rectangle,-26,-12,1,0,0,-26,-12,1,0,0,1,42,202,13,1,,,,,,,,
,,,,,,,,,,,,,FF,,,,,,,,0.9336,,,,,,,,,,,,,,,,,,,,,,60d77cc4fae7e5ce3611a31c,60e5631f470138a233dcb483,2021-07-07_10h21.14.306,Simcolourproject_2stim_asymm_v5,2020.2.10,Win32,60,60e52e7cfedb1dae636df45f,,,,,,,,,2160,-34,85,1,0,0,response7disk,,0,-12,14,1,0,0,rectangle,-12,14,1,0,0,-12,14,1,0,0,1,43,203,101,1,,,,,,,,
,,,,,,,,,,,,,FF,,,,,,,,2.738,,,,,,,,,,,,,,,,,,,,,,60d77cc4fae7e5ce3611a31c,60e5631f470138a233dcb483,2021-07-07_10h21.14.306,Simcolourproject_2stim_asymm_v5,2020.2.10,Win32,60,60e52e7cfedb1dae636df45f,,,,,,,,,3516,-85,-29,1,0,0,response5disk,,2,-13,2,1,0,0,rectangle,-13,2,1,0,0,-13,2,1,0,0,1,44,204,66,1,,,,,,,,
,,,,,,,,,,,,,FF,,,,,,,,1.8023,,,,,,,,,,,,,,,,,,,,,,60d77cc4fae7e5ce3611a31c,60e5631f470138a233dcb483,2021-07-07_10h21.14.306,Simcolourproject_2stim_asymm_v5,2020.2.10,Win32,60,60e52e7cfedb1dae636df45f,,,,,,,,,12,-55,-75,1,0,0,response5disk,,3,3,3,1,0,0,rectangle,3,3,1,0,0,3,3,1,0,0,1,45,205,123,1,,,,,,,,
,,,,,,,,,,,,,FF,,,,,,,,0.9195,,,,,,,,,,,,,,,,,,,,,,60d77cc4fae7e5ce3611a31c,60e5631f470138a233dcb483,2021-07-07_10h21.14.306,Simcolourproject_2stim_asymm_v5,2020.2.10,Win32,60,60e52e7cfedb1dae636df45f,,,,,,,,,720,-29,-69,1,0,0,response5disk,,3,-7,-8,1,0,0,rectangle,-7,-8,1,0,0,-7,-8,1,0,0,1,46,206,137,1,,,,,,,,
,,,,,,,,,,,,,FF,,,,,,,,1.6523,,,,,,,,,,,,,,,,,,,,,,60d77cc4fae7e5ce3611a31c,60e5631f470138a233dcb483,2021-07-07_10h21.14.306,Simcolourproject_2stim_asymm_v5,2020.2.10,Win32,60,60e52e7cfedb1dae636df45f,,,,,,,,,3177,45,67,1,0,0,response1disk,,7,6,2,1,0,0,rectangle,6,2,1,0,0,6,2,1,0,0,1,47,207,2,1,,,,,,,,
,,,,,,,,,,,,,FF,,,,,,,,0.8178,,,,,,,,,,,,,,,,,,,,,,60d77cc4fae7e5ce3611a31c,60e5631f470138a233dcb483,2021-07-07_10h21.14.306,Simcolourproject_2stim_asymm_v5,2020.2.10,Win32,60,60e52e7cfedb1dae636df45f,,,,,,,,,2506,30,70,1,0,0,response1disk,,7,-7,-2,1,0,0,rectangle,-7,-2,1,0,0,-7,-2,1,0,0,1,48,208,20,1,,,,,,,,
,,,,,,,,,,,,,FF,,,,,,,,0.7866,,,,,,,,,,,,,,,,,,,,,,60d77cc4fae7e5ce3611a31c,60e5631f470138a233dcb483,2021-07-07_10h21.14.306,Simcolourproject_2stim_asymm_v5,2020.2.10,Win32,60,60e52e7cfedb1dae636df45f,,,,,,,,,3167,29,63,1,0,0,response1disk,,7,9,7,1,0,0,rectangle,9,7,1,0,0,9,7,1,0,0,1,49,209,1,1,,,,,,,,
,,,,,,,,,,,,,FF,,,,,,,,0.7341,,,,,,,,,,,,,,,,,,,,,,60d77cc4fae7e5ce3611a31c,60e5631f470138a233dcb483,2021-07-07_10h21.14.306,Simcolourproject_2stim_asymm_v5,2020.2.10,Win32,60,60e52e7cfedb1dae636df45f,,,,,,,,,3021,34,77,1,0,0,response1disk,,7,-1,10,1,0,0,rectangle,-1,10,1,0,0,-1,10,1,0,0,1,50,210,97,1,,,,,,,,
,,,,,,,,,,,,,FF,,,,,,,,1.1325,,,,,,,,,,,,,,,,,,,,,,60d77cc4fae7e5ce3611a31c,60e5631f470138a233dcb483,2021-07-07_10h21.14.306,Simcolourproject_2stim_asymm_v5,2020.2.10,Win32,60,60e52e7cfedb1dae636df45f,,,,,,,,,1384,-33,-49,1,0,0,response5disk,,3,-30,1,1,0,0,rectangle,-30,1,1,0,0,-30,1,1,0,0,1,51,211,5,1,,,,,,,,
,,,,,,,,,,,,,FF,,,,,,,,1.504,,,,,,,,,,,,,,,,,,,,,,60d77cc4fae7e5ce3611a31c,60e5631f470138a233dcb483,2021-07-07_10h21.14.306,Simcolourproject_2stim_asymm_v5,2020.2.10,Win32,60,60e52e7cfedb1dae636df45f,,,,,,,,,2728,-29,-53,1,0,0,response5disk,,3,0,1,1,0,0,rectangle,0,1,1,0,0,0,1,1,0,0,1,52,212,150,1,,,,,,,,
,,,,,,,,,,,,,FF,,,,,,,,0.7832,,,,,,,,,,,,,,,,,,,,,,60d77cc4fae7e5ce3611a31c,60e5631f470138a233dcb483,2021-07-07_10h21.14.306,Simcolourproject_2stim_asymm_v5,2020.2.10,Win32,60,60e52e7cfedb1dae636df45f,,,,,,,,,2813,57,120,1,0,0,response1disk,,7,8,15,1,0,0,rectangle,8,15,1,0,0,8,15,1,0,0,1,53,213,95,1,,,,,,,,
,,,,,,,,,,,,,FF,,,,,,,,0.6825,,,,,,,,,,,,,,,,,,,,,,60d77cc4fae7e5ce3611a31c,60e5631f470138a233dcb483,2021-07-07_10h21.14.306,Simcolourproject_2stim_asymm_v5,2020.2.10,Win32,60,60e52e7cfedb1dae636df45f,,,,,,,,,3130,26,44,1,0,0,response1disk,,7,-2,-8,1,0,0,rectangle,-2,-8,1,0,0,-2,-8,1,0,0,1,54,214,89,1,,,,,,,,
,,,,,,,,,,,,,FF,,,,,,,,1.5516,,,,,,,,,,,,,,,,,,,,,,60d77cc4fae7e5ce3611a31c,60e5631f470138a233dcb483,2021-07-07_10h21.14.306,Simcolourproject_2stim_asymm_v5,2020.2.10,Win32,60,60e52e7cfedb1dae636df45f,,,,,,,,,3006,54,-35,1,0,0,response3disk,,5,15,11,1,0,0,rectangle,15,11,1,0,0,15,11,1,0,0,1,55,215,74,1,,,,,,,,
,,,,,,,,,,,,,FF,,,,,,,,0.9846,,,,,,,,,,,,,,,,,,,,,,60d77cc4fae7e5ce3611a31c,60e5631f470138a233dcb483,2021-07-07_10h21.14.306,Simcolourproject_2stim_asymm_v5,2020.2.10,Win32,60,60e52e7cfedb1dae636df45f,,,,,,,,,2243,27,43,1,0,0,response1disk,,7,5,12,1,0,0,rectangle,95,49,1,0,0,12,-8,1,0,0,1,56,216,0,1,,response1disk_3,TRUE,6,6,"[300,229,294,101,227,259,171,54,299,103,235,253,217,301,151,190,114,288,54,109]",2.4673,rectangle
,,,,,,,,,,,,,FF,,,,,,,,0.9342,,,,,,,,,,,,,,,,,,,,,,60d77cc4fae7e5ce3611a31c,60e5631f470138a233dcb483,2021-07-07_10h21.14.306,Simcolourproject_2stim_asymm_v5,2020.2.10,Win32,60,60e52e7cfedb1dae636df45f,,,,,,,,,2381,28,71,1,0,0,response1disk,,7,4,12,1,0,0,rectangle,4,12,1,0,0,4,12,1,0,0,1,57,217,58,1,,,,,,,,
,,,,,,,,,,,,,FF,,,,,,,,0.7844,,,,,,,,,,,,,,,,,,,,,,60d77cc4fae7e5ce3611a31c,60e5631f470138a233dcb483,2021-07-07_10h21.14.306,Simcolourproject_2stim_asymm_v5,2020.2.10,Win32,60,60e52e7cfedb1dae636df45f,,,,,,,,,997,31,94,1,0,0,response1disk,,7,0,-1,1,0,0,rectangle,0,-1,1,0,0,0,-1,1,0,0,1,58,218,55,1,,,,,,,,
,,,,,,,,,,,,,FF,,,,,,,,0.8336,,,,,,,,,,,,,,,,,,,,,,60d77cc4fae7e5ce3611a31c,60e5631f470138a233dcb483,2021-07-07_10h21.14.306,Simcolourproject_2stim_asymm_v5,2020.2.10,Win32,60,60e52e7cfedb1dae636df45f,,,,,,,,,2219,31,66,1,0,0,response1disk,,7,-2,0,1,0,0,rectangle,-2,0,1,0,0,-2,0,1,0,0,1,59,219,30,1,,,,,,,,
,,,,,,,,,,,,,FF,,,,,,,,0.7355,,,,,,,,,,,,,,,,,,,,,,60d77cc4fae7e5ce3611a31c,60e5631f470138a233dcb483,2021-07-07_10h21.14.306,Simcolourproject_2stim_asymm_v5,2020.2.10,Win32,60,60e52e7cfedb1dae636df45f,,,,,,,,,2353,41,81,1,0,0,response1disk,,7,7,5,1,0,0,rectangle,7,5,1,0,0,7,5,1,0,0,1,60,220,35,1,,,,,,,,
,,,,,,,,,,,,,FF,,,,,,,,1.618,,,,,,,,,,,,,,,,,,,,,,60d77cc4fae7e5ce3611a31c,60e5631f470138a233dcb483,2021-07-07_10h21.14.306,Simcolourproject_2stim_asymm_v5,2020.2.10,Win32,60,60e52e7cfedb1dae636df45f,,,,,,,,,1145,-46,-96,1,0,0,response5disk,,3,1,-1,1,0,0,rectangle,1,-1,1,0,0,1,-1,1,0,0,1,61,221,159,1,,,,,,,,
,,,,,,,,,,,,,FF,,,,,,,,0.8184,,,,,,,,,,,,,,,,,,,,,,60d77cc4fae7e5ce3611a31c,60e5631f470138a233dcb483,2021-07-07_10h21.14.306,Simcolourproject_2stim_asymm_v5,2020.2.10,Win32,60,60e52e7cfedb1dae636df45f,,,,,,,,,4004,32,62,1,0,0,response1disk,,7,-3,0,1,0,0,rectangle,-3,0,1,0,0,-3,0,1,0,0,1,62,222,81,1,,,,,,,,
,,,,,,,,,,,,,FF,,,,,,,,0.7516,,,,,,,,,,,,,,,,,,,,,,60d77cc4fae7e5ce3611a31c,60e5631f470138a233dcb483,2021-07-07_10h21.14.306,Simcolourproject_2stim_asymm_v5,2020.2.10,Win32,60,60e52e7cfedb1dae636df45f,,,,,,,,,2206,34,78,1,0,0,response1disk,,7,-13,-5,1,0,0,rectangle,-13,-5,1,0,0,-13,-5,1,0,0,1,63,223,121,1,,,,,,,,
,,,,,,,,,,,,,FF,,,,,,,,1.7691,,,,,,,,,,,,,,,,,,,,,,60d77cc4fae7e5ce3611a31c,60e5631f470138a233dcb483,2021-07-07_10h21.14.306,Simcolourproject_2stim_asymm_v5,2020.2.10,Win32,60,60e52e7cfedb1dae636df45f,,,,,,,,,1461,-79,-61,1,0,0,response5disk,,2,13,5,1,0,0,rectangle,13,5,1,0,0,13,5,1,0,0,1,64,224,94,1,,,,,,,,
,,,,,,,,,,,,,FF,,,,,,,,0.7844,,,,,,,,,,,,,,,,,,,,,,60d77cc4fae7e5ce3611a31c,60e5631f470138a233dcb483,2021-07-07_10h21.14.306,Simcolourproject_2stim_asymm_v5,2020.2.10,Win32,60,60e52e7cfedb1dae636df45f,,,,,,,,,3501,44,92,1,0,0,response1disk,,7,9,0,1,0,0,rectangle,9,0,1,0,0,9,0,1,0,0,1,65,225,77,1,,,,,,,,
,,,,,,,,,,,,,FF,,,,,,,,1.1717,,,,,,,,,,,,,,,,,,,,,,60d77cc4fae7e5ce3611a31c,60e5631f470138a233dcb483,2021-07-07_10h21.14.306,Simcolourproject_2stim_asymm_v5,2020.2.10,Win32,60,60e52e7cfedb1dae636df45f,,,,,,,,,3392,-46,-47,1,0,0,response5disk,,3,-12,5,1,0,0,rectangle,79,-37,1,0,0,14,-14,1,0,0,1,66,226,107,1,,response3disk_3,TRUE,5,5,"[300,229,294,101,227,259,171,54,299,103,235,253,217,301,151,190,114,288,54,109]",1.8173,rectangle
,,,,,,,,,,,,,FF,,,,,,,,1.0509,,,,,,,,,,,,,,,,,,,,,,60d77cc4fae7e5ce3611a31c,60e5631f470138a233dcb483,2021-07-07_10h21.14.306,Simcolourproject_2stim_asymm_v5,2020.2.10,Win32,60,60e52e7cfedb1dae636df45f,,,,,,,,,4219,20,53,1,0,0,response1disk,,7,7,6,1,0,0,rectangle,7,6,1,0,0,7,6,1,0,0,1,67,227,69,1,,,,,,,,
,,,,,,,,,,,,,FF,,,,,,,,1.0018,,,,,,,,,,,,,,,,,,,,,,60d77cc4fae7e5ce3611a31c,60e5631f470138a233dcb483,2021-07-07_10h21.14.306,Simcolourproject_2stim_asymm_v5,2020.2.10,Win32,60,60e52e7cfedb1dae636df45f,,,,,,,,,646,35,78,1,0,0,response1disk,,7,2,-8,1,0,0,rectangle,-37,51,1,0,0,-21,11,1,0,0,1,68,228,151,1,,response7disk_3,TRUE,0,0,"[300,229,294,101,227,259,171,54,299,103,235,253,217,301,151,190,114,288,54,109]",2.0347,rectangle
,,,,,,,,,,,,,FF,,,,,,,,0.9164,,,,,,,,,,,,,,,,,,,,,,60d77cc4fae7e5ce3611a31c,60e5631f470138a233dcb483,2021-07-07_10h21.14.306,Simcolourproject_2stim_asymm_v5,2020.2.10,Win32,60,60e52e7cfedb1dae636df45f,,,,,,,,,2674,35,85,1,0,0,response1disk,,7,6,4,1,0,0,rectangle,6,4,1,0,0,6,4,1,0,0,1,69,229,90,1,,,,,,,,
,,,,,,,,,,,,,FF,,,,,,,,1.3999,,,,,,,,,,,,,,,,,,,,,,60d77cc4fae7e5ce3611a31c,60e5631f470138a233dcb483,2021-07-07_10h21.14.306,Simcolourproject_2stim_asymm_v5,2020.2.10,Win32,60,60e52e7cfedb1dae636df45f,,,,,,,,,1298,-78,44,1,0,0,response7disk,,1,-29,-4,1,0,0,rectangle,-29,-4,1,0,0,-29,-4,1,0,0,1,70,230,65,1,,,,,,,,
,,,,,,,,,,,,,FF,,,,,,,,1.4665,,,,,,,,,,,,,,,,,,,,,,60d77cc4fae7e5ce3611a31c,60e5631f470138a233dcb483,2021-07-07_10h21.14.306,Simcolourproject_2stim_asymm_v5,2020.2.10,Win32,60,60e52e7cfedb1dae636df45f,,,,,,,,,994,31,77,1,0,0,response1disk,,7,5,5,1,0,0,rectangle,5,5,1,0,0,5,5,1,0,0,1,71,231,78,1,,,,,,,,
,,,,,,,,,,,,,FF,,,,,,,,0.7671,,,,,,,,,,,,,,,,,,,,,,60d77cc4fae7e5ce3611a31c,60e5631f470138a233dcb483,2021-07-07_10h21.14.306,Simcolourproject_2stim_asymm_v5,2020.2.10,Win32,60,60e52e7cfedb1dae636df45f,,,,,,,,,56,37,67,1,0,0,response1disk,,7,16,-3,1,0,0,rectangle,16,-3,1,0,0,16,-3,1,0,0,1,72,232,25,1,,,,,,,,
,,,,,,,,,,,,,FF,,,,,,,,0.7169,,,,,,,,,,,,,,,,,,,,,,60d77cc4fae7e5ce3611a31c,60e5631f470138a233dcb483,2021-07-07_10h21.14.306,Simcolourproject_2stim_asymm_v5,2020.2.10,Win32,60,60e52e7cfedb1dae636df45f,,,,,,,,,3672,49,79,1,0,0,response1disk,,7,13,2,1,0,0,rectangle,13,2,1,0,0,13,2,1,0,0,1,73,233,54,1,,,,,,,,
,,,,,,,,,,,,,FF,,,,,,,,0.736,,,,,,,,,,,,,,,,,,,,,,60d77cc4fae7e5ce3611a31c,60e5631f470138a233dcb483,2021-07-07_10h21.14.306,Simcolourproject_2stim_asymm_v5,2020.2.10,Win32,60,60e52e7cfedb1dae636df45f,,,,,,,,,3806,16,41,1,0,0,response1disk,,7,4,-8,1,0,0,rectangle,44,-69,1,0,0,11,8,1,0,0,1,74,234,133,1,,response3disk_3,TRUE,4,4,"[300,229,294,101,227,259,171,54,299,103,235,253,217,301,151,190,114,288,54,109]",3.2991,rectangle
,,,,,,,,,,,,,FF,,,,,,,,0.8173,,,,,,,,,,,,,,,,,,,,,,60d77cc4fae7e5ce3611a31c,60e5631f470138a233dcb483,2021-07-07_10h21.14.306,Simcolourproject_2stim_asymm_v5,2020.2.10,Win32,60,60e52e7cfedb1dae636df45f,,,,,,,,,1658,29,61,1,0,0,response1disk,,7,5,10,1,0,0,rectangle,5,10,1,0,0,5,10,1,0,0,1,75,235,27,1,,,,,,,,
,,,,,,,,,,,,,FF,,,,,,,,1.8678,,,,,,,,,,,,,,,,,,,,,,60d77cc4fae7e5ce3611a31c,60e5631f470138a233dcb483,2021-07-07_10h21.14.306,Simcolourproject_2stim_asymm_v5,2020.2.10,Win32,60,60e52e7cfedb1dae636df45f,,,,,,,,,1293,37,-75,1,0,0,response3disk,,4,7,-4,1,0,0,rectangle,7,-4,1,0,0,7,-4,1,0,0,1,76,236,116,1,,,,,,,,
,,,,,,,,,,,,,FF,,,,,,,,0.8518,,,,,,,,,,,,,,,,,,,,,,60d77cc4fae7e5ce3611a31c,60e5631f470138a233dcb483,2021-07-07_10h21.14.306,Simcolourproject_2stim_asymm_v5,2020.2.10,Win32,60,60e52e7cfedb1dae636df45f,,,,,,,,,1682,20,32,1,0,0,response1disk,,7,4,3,1,0,0,rectangle,4,3,1,0,0,4,3,1,0,0,1,77,237,93,1,,,,,,,,
,,,,,,,,,,,,,FF,,,,,,,,0.7497,,,,,,,,,,,,,,,,,,,,,,60d77cc4fae7e5ce3611a31c,60e5631f470138a233dcb483,2021-07-07_10h21.14.306,Simcolourproject_2stim_asymm_v5,2020.2.10,Win32,60,60e52e7cfedb1dae636df45f,,,,,,,,,2596,47,102,1,0,0,response1disk,,7,-3,-10,1,0,0,rectangle,-3,-10,1,0,0,-3,-10,1,0,0,1,78,238,86,1,,,,,,,,
,,,,,,,,,,,,,FF,,,,,,,,0.9496,,,,,,,,,,,,,,,,,,,,,,60d77cc4fae7e5ce3611a31c,60e5631f470138a233dcb483,2021-07-07_10h21.14.306,Simcolourproject_2stim_asymm_v5,2020.2.10,Win32,60,60e52e7cfedb1dae636df45f,,,,,,,,,3081,32,43,1,0,0,response1disk,,7,3,3,1,0,0,rectangle,3,3,1,0,0,3,3,1,0,0,1,79,239,132,1,,,,,,,,
,,,,,,,,,,,,,FF,,,,,,,,0.6518,,,,,,,,,,,,,,,,,,,,,,60d77cc4fae7e5ce3611a31c,60e5631f470138a233dcb483,2021-07-07_10h21.14.306,Simcolourproject_2stim_asymm_v5,2020.2.10,Win32,60,60e52e7cfedb1dae636df45f,,,,,,,,,2552,40,96,1,0,0,response1disk,,7,2,3,1,0,0,rectangle,2,3,1,0,0,2,3,1,0,0,1,80,240,68,1,,,,,,,,
,,,,,,,,,,,,,FF,,,,,,,,0.7185,,,,,,,,,,,,,,,,,,,,,,60d77cc4fae7e5ce3611a31c,60e5631f470138a233dcb483,2021-07-07_10h21.14.306,Simcolourproject_2stim_asymm_v5,2020.2.10,Win32,60,60e52e7cfedb1dae636df45f,,,,,,,,,827,40,86,1,0,0,response1disk,,7,-2,4,1,0,0,rectangle,-2,4,1,0,0,-2,4,1,0,0,1,81,241,36,1,,,,,,,,
,,,,,,,,,,,,,FF,,,,,,,,0.7029,,,,,,,,,,,,,,,,,,,,,,60d77cc4fae7e5ce3611a31c,60e5631f470138a233dcb483,2021-07-07_10h21.14.306,Simcolourproject_2stim_asymm_v5,2020.2.10,Win32,60,60e52e7cfedb1dae636df45f,,,,,,,,,935,50,110,1,0,0,response1disk,,7,-1,7,1,0,0,rectangle,-1,7,1,0,0,-1,7,1,0,0,1,82,242,138,1,,,,,,,,
,,,,,,,,,,,,,FF,,,,,,,,0.6852,,,,,,,,,,,,,,,,,,,,,,60d77cc4fae7e5ce3611a31c,60e5631f470138a233dcb483,2021-07-07_10h21.14.306,Simcolourproject_2stim_asymm_v5,2020.2.10,Win32,60,60e52e7cfedb1dae636df45f,,,,,,,,,343,24,79,1,0,0,response1disk,,7,1,12,1,0,0,rectangle,1,12,1,0,0,1,12,1,0,0,1,83,243,56,1,,,,,,,,
,,,,,,,,,,,,,FF,,,,,,,,0.6178,,,,,,,,,,,,,,,,,,,,,,60d77cc4fae7e5ce3611a31c,60e5631f470138a233dcb483,2021-07-07_10h21.14.306,Simcolourproject_2stim_asymm_v5,2020.2.10,Win32,60,60e52e7cfedb1dae636df45f,,,,,,,,,1270,30,75,1,0,0,response1disk,,7,-8,2,1,0,0,rectangle,-8,2,1,0,0,-8,2,1,0,0,1,84,244,80,1,,,,,,,,
,,,,,,,,,,,,,FF,,,,,,,,0.6831,,,,,,,,,,,,,,,,,,,,,,60d77cc4fae7e5ce3611a31c,60e5631f470138a233dcb483,2021-07-07_10h21.14.306,Simcolourproject_2stim_asymm_v5,2020.2.10,Win32,60,60e52e7cfedb1dae636df45f,,,,,,,,,2915,38,105,1,0,0,response1disk,,7,-1,5,1,0,0,rectangle,-1,5,1,0,0,-1,5,1,0,0,1,85,245,10,1,,,,,,,,
,,,,,,,,,,,,,FF,,,,,,,,0.9329,,,,,,,,,,,,,,,,,,,,,,60d77cc4fae7e5ce3611a31c,60e5631f470138a233dcb483,2021-07-07_10h21.14.306,Simcolourproject_2stim_asymm_v5,2020.2.10,Win32,60,60e52e7cfedb1dae636df45f,,,,,,,,,167,45,100,1,0,0,response1disk,,7,-6,3,1,0,0,rectangle,-6,3,1,0,0,-6,3,1,0,0,1,86,246,145,1,,,,,,,,
,,,,,,,,,,,,,FF,,,,,,,,0.668,,,,,,,,,,,,,,,,,,,,,,60d77cc4fae7e5ce3611a31c,60e5631f470138a233dcb483,2021-07-07_10h21.14.306,Simcolourproject_2stim_asymm_v5,2020.2.10,Win32,60,60e52e7cfedb1dae636df45f,,,,,,,,,313,25,52,1,0,0,response1disk,,7,-5,-9,1,0,0,rectangle,-5,-9,1,0,0,-5,-9,1,0,0,1,87,247,130,1,,,,,,,,
,,,,,,,,,,,,,FF,,,,,,,,0.7012,,,,,,,,,,,,,,,,,,,,,,60d77cc4fae7e5ce3611a31c,60e5631f470138a233dcb483,2021-07-07_10h21.14.306,Simcolourproject_2stim_asymm_v5,2020.2.10,Win32,60,60e52e7cfedb1dae636df45f,,,,,,,,,2277,19,41,1,0,0,response1disk,,7,7,9,1,0,0,rectangle,7,9,1,0,0,7,9,1,0,0,1,88,248,131,1,,,,,,,,
,,,,,,,,,,,,,FF,,,,,,,,1.3531,,,,,,,,,,,,,,,,,,,,,,60d77cc4fae7e5ce3611a31c,60e5631f470138a233dcb483,2021-07-07_10h21.14.306,Simcolourproject_2stim_asymm_v5,2020.2.10,Win32,60,60e52e7cfedb1dae636df45f,,,,,,,,,64,23,45,1,0,0,response1disk,,7,13,11,1,0,0,rectangle,13,11,1,0,0,13,11,1,0,0,1,89,249,146,1,,,,,,,,
,,,,,,,,,,,,,FF,,,,,,,,1.3881,,,,,,,,,,,,,,,,,,,,,,60d77cc4fae7e5ce3611a31c,60e5631f470138a233dcb483,2021-07-07_10h21.14.306,Simcolourproject_2stim_asymm_v5,2020.2.10,Win32,60,60e52e7cfedb1dae636df45f,,,,,,,,,1958,-80,46,1,0,0,response7disk,,1,15,-2,1,0,0,rectangle,15,-2,1,0,0,15,-2,1,0,0,1,90,250,92,1,,,,,,,,
,,,,,,,,,,,,,FF,,,,,,,,1.1681,,,,,,,,,,,,,,,,,,,,,,60d77cc4fae7e5ce3611a31c,60e5631f470138a233dcb483,2021-07-07_10h21.14.306,Simcolourproject_2stim_asymm_v5,2020.2.10,Win32,60,60e52e7cfedb1dae636df45f,,,,,,,,,548,25,50,1,0,0,response1disk,,7,7,-5,1,0,0,rectangle,7,-5,1,0,0,7,-5,1,0,0,1,91,251,38,1,,,,,,,,
,,,,,,,,,,,,,FF,,,,,,,,6.8222,,,,,,,,,,,,,,,,,,,,,,60d77cc4fae7e5ce3611a31c,60e5631f470138a233dcb483,2021-07-07_10h21.14.306,Simcolourproject_2stim_asymm_v5,2020.2.10,Win32,60,60e52e7cfedb1dae636df45f,,,,,,,,,2825,24,75,1,0,0,response1disk,,7,2,12,1,0,0,rectangle,-112,-37,1,0,0,18,6,1,0,0,1,92,252,60,1,,response5disk_3,TRUE,2,2,"[300,229,294,101,227,259,171,54,299,103,235,253,217,301,151,190,114,288,54,109]",2.5326,rectangle
,,,,,,,,,,,,,FF,,,,,,,,0.8832,,,,,,,,,,,,,,,,,,,,,,60d77cc4fae7e5ce3611a31c,60e5631f470138a233dcb483,2021-07-07_10h21.14.306,Simcolourproject_2stim_asymm_v5,2020.2.10,Win32,60,60e52e7cfedb1dae636df45f,,,,,,,,,127,57,87,1,0,0,response1disk,,7,-6,2,1,0,0,rectangle,-6,2,1,0,0,-6,2,1,0,0,1,93,253,104,1,,,,,,,,
,,,,,,,,,,,,,FF,,,,,,,,0.7695,,,,,,,,,,,,,,,,,,,,,,60d77cc4fae7e5ce3611a31c,60e5631f470138a233dcb483,2021-07-07_10h21.14.306,Simcolourproject_2stim_asymm_v5,2020.2.10,Win32,60,60e52e7cfedb1dae636df45f,,,,,,,,,2502,23,66,1,0,0,response1disk,,7,0,8,1,0,0,rectangle,0,8,1,0,0,0,8,1,0,0,1,94,254,11,1,,,,,,,,
,,,,,,,,,,,,,FF,,,,,,,,0.734,,,,,,,,,,,,,,,,,,,,,,60d77cc4fae7e5ce3611a31c,60e5631f470138a233dcb483,2021-07-07_10h21.14.306,Simcolourproject_2stim_asymm_v5,2020.2.10,Win32,60,60e52e7cfedb1dae636df45f,,,,,,,,,1832,42,91,1,0,0,response1disk,,7,-2,-2,1,0,0,rectangle,-2,-2,1,0,0,-2,-2,1,0,0,1,95,255,158,1,,,,,,,,
,,,,,,,,,,,,,FF,,,,,,,,0.6495,,,,,,,,,,,,,,,,,,,,,,60d77cc4fae7e5ce3611a31c,60e5631f470138a233dcb483,2021-07-07_10h21.14.306,Simcolourproject_2stim_asymm_v5,2020.2.10,Win32,60,60e52e7cfedb1dae636df45f,,,,,,,,,471,49,95,1,0,0,response1disk,,7,1,7,1,0,0,rectangle,1,7,1,0,0,1,7,1,0,0,1,96,256,84,1,,,,,,,,
,,,,,,,,,,,,,FF,,,,,,,,0.9168,,,,,,,,,,,,,,,,,,,,,,60d77cc4fae7e5ce3611a31c,60e5631f470138a233dcb483,2021-07-07_10h21.14.306,Simcolourproject_2stim_asymm_v5,2020.2.10,Win32,60,60e52e7cfedb1dae636df45f,,,,,,,,,102,31,68,1,0,0,response1disk,,7,1,15,1,0,0,rectangle,1,15,1,0,0,1,15,1,0,0,1,97,257,142,1,,,,,,,,
,,,,,,,,,,,,,FF,,,,,,,,0.8164,,,,,,,,,,,,,,,,,,,,,,60d77cc4fae7e5ce3611a31c,60e5631f470138a233dcb483,2021-07-07_10h21.14.306,Simcolourproject_2stim_asymm_v5,2020.2.10,Win32,60,60e52e7cfedb1dae636df45f,,,,,,,,,2841,32,83,1,0,0,response1disk,,7,-7,-5,1,0,0,rectangle,-80,55,1,0,0,-26,-1,1,0,0,1,98,258,119,1,,response7disk_3,TRUE,1,1,"[300,229,294,101,227,259,171,54,299,103,235,253,217,301,151,190,114,288,54,109]",1.5678,rectangle
,,,,,,,,,,,,,FF,,,,,,,,1.5179,,,,,,,,,,,,,,,,,,,,,,60d77cc4fae7e5ce3611a31c,60e5631f470138a233dcb483,2021-07-07_10h21.14.306,Simcolourproject_2stim_asymm_v5,2020.2.10,Win32,60,60e52e7cfedb1dae636df45f,,,,,,,,,1605,28,-68,1,0,0,response3disk,,4,-6,9,1,0,0,rectangle,-6,9,1,0,0,-6,9,1,0,0,1,99,259,32,1,,,,,,,,
,,,,,,,,,,,,,FF,,,,,,,,0.8016,,,,,,,,,,,,,,,,,,,,,,60d77cc4fae7e5ce3611a31c,60e5631f470138a233dcb483,2021-07-07_10h21.14.306,Simcolourproject_2stim_asymm_v5,2020.2.10,Win32,60,60e52e7cfedb1dae636df45f,,,,,,,,,3438,41,68,1,0,0,response1disk,,7,19,3,1,0,0,rectangle,19,3,1,0,0,19,3,1,0,0,1,100,260,57,1,,,,,,,,
,,,,,,,,,,,,,FF,,,,,,,,0.7834,,,,,,,,,,,,,,,,,,,,,,60d77cc4fae7e5ce3611a31c,60e5631f470138a233dcb483,2021-07-07_10h21.14.306,Simcolourproject_2stim_asymm_v5,2020.2.10,Win32,60,60e52e7cfedb1dae636df45f,,,,,,,,,360,41,76,1,0,0,response1disk,,7,14,10,1,0,0,rectangle,14,10,1,0,0,14,10,1,0,0,1,101,261,152,1,,,,,,,,
,,,,,,,,,,,,,FF,,,,,,,,0.7671,,,,,,,,,,,,,,,,,,,,,,60d77cc4fae7e5ce3611a31c,60e5631f470138a233dcb483,2021-07-07_10h21.14.306,Simcolourproject_2stim_asymm_v5,2020.2.10,Win32,60,60e52e7cfedb1dae636df45f,,,,,,,,,3102,19,69,1,0,0,response1disk,,7,0,1,1,0,0,rectangle,0,1,1,0,0,0,1,1,0,0,1,102,262,50,1,,,,,,,,
,,,,,,,,,,,,,FF,,,,,,,,1.0176,,,,,,,,,,,,,,,,,,,,,,60d77cc4fae7e5ce3611a31c,60e5631f470138a233dcb483,2021-07-07_10h21.14.306,Simcolourproject_2stim_asymm_v5,2020.2.10,Win32,60,60e52e7cfedb1dae636df45f,,,,,,,,,312,57,97,1,0,0,response1disk,,7,10,7,1,0,0,rectangle,10,7,1,0,0,10,7,1,0,0,1,103,263,46,1,,,,,,,,
,,,,,,,,,,,,,FF,,,,,,,,1.1838,,,,,,,,,,,,,,,,,,,,,,60d77cc4fae7e5ce3611a31c,60e5631f470138a233dcb483,2021-07-07_10h21.14.306,Simcolourproject_2stim_asymm_v5,2020.2.10,Win32,60,60e52e7cfedb1dae636df45f,,,,,,,,,612,-55,-102,1,0,0,response5disk,,3,1,-7,1,0,0,rectangle,1,-7,1,0,0,1,-7,1,0,0,1,104,264,122,1,,,,,,,,
,,,,,,,,,,,,,FF,,,,,,,,0.7178,,,,,,,,,,,,,,,,,,,,,,60d77cc4fae7e5ce3611a31c,60e5631f470138a233dcb483,2021-07-07_10h21.14.306,Simcolourproject_2stim_asymm_v5,2020.2.10,Win32,60,60e52e7cfedb1dae636df45f,,,,,,,,,3450,55,99,1,0,0,response1disk,,7,-3,12,1,0,0,rectangle,-3,12,1,0,0,-3,12,1,0,0,1,105,265,53,1,,,,,,,,
,,,,,,,,,,,,,FF,,,,,,,,0.6674,,,,,,,,,,,,,,,,,,,,,,60d77cc4fae7e5ce3611a31c,60e5631f470138a233dcb483,2021-07-07_10h21.14.306,Simcolourproject_2stim_asymm_v5,2020.2.10,Win32,60,60e52e7cfedb1dae636df45f,,,,,,,,,329,22,66,1,0,0,response1disk,,7,-4,10,1,0,0,rectangle,-4,10,1,0,0,-4,10,1,0,0,1,106,266,59,1,,,,,,,,
,,,,,,,,,,,,,FF,,,,,,,,0.7695,,,,,,,,,,,,,,,,,,,,,,60d77cc4fae7e5ce3611a31c,60e5631f470138a233dcb483,2021-07-07_10h21.14.306,Simcolourproject_2stim_asymm_v5,2020.2.10,Win32,60,60e52e7cfedb1dae636df45f,,,,,,,,,1074,47,89,1,0,0,response1disk,,7,7,8,1,0,0,rectangle,7,8,1,0,0,7,8,1,0,0,1,107,267,100,1,,,,,,,,
,,,,,,,,,,,,,FF,,,,,,,,0.768,,,,,,,,,,,,,,,,,,,,,,60d77cc4fae7e5ce3611a31c,60e5631f470138a233dcb483,2021-07-07_10h21.14.306,Simcolourproject_2stim_asymm_v5,2020.2.10,Win32,60,60e52e7cfedb1dae636df45f,,,,,,,,,2697,54,91,1,0,0,response1disk,,7,11,-2,1,0,0,rectangle,11,-2,1,0,0,11,-2,1,0,0,1,108,268,22,1,,,,,,,,
,,,,,,,,,,,,,FF,,,,,,,,2.3832,,,,,,,,,,,,,,,,,,,,,,60d77cc4fae7e5ce3611a31c,60e5631f470138a233dcb483,2021-07-07_10h21.14.306,Simcolourproject_2stim_asymm_v5,2020.2.10,Win32,60,60e52e7cfedb1dae636df45f,,,,,,,,,3297,-99,-35,1,0,0,response5disk,,2,15,8,1,0,0,rectangle,15,8,1,0,0,15,8,1,0,0,1,109,269,85,1,,,,,,,,
,,,,,,,,,,,,,FF,,,,,,,,0.7195,,,,,,,,,,,,,,,,,,,,,,60d77cc4fae7e5ce3611a31c,60e5631f470138a233dcb483,2021-07-07_10h21.14.306,Simcolourproject_2stim_asymm_v5,2020.2.10,Win32,60,60e52e7cfedb1dae636df45f,,,,,,,,,4288,47,99,1,0,0,response1disk,,7,-9,-3,1,0,0,rectangle,-9,-3,1,0,0,-9,-3,1,0,0,1,110,270,34,1,,,,,,,,
,,,,,,,,,,,,,FF,,,,,,,,0.7346,,,,,,,,,,,,,,,,,,,,,,60d77cc4fae7e5ce3611a31c,60e5631f470138a233dcb483,2021-07-07_10h21.14.306,Simcolourproject_2stim_asymm_v5,2020.2.10,Win32,60,60e52e7cfedb1dae636df45f,,,,,,,,,1279,47,95,1,0,0,response1disk,,7,-5,8,1,0,0,rectangle,-5,8,1,0,0,-5,8,1,0,0,1,111,271,61,1,,,,,,,,
,,,,,,,,,,,,,FF,,,,,,,,0.6357,,,,,,,,,,,,,,,,,,,,,,60d77cc4fae7e5ce3611a31c,60e5631f470138a233dcb483,2021-07-07_10h21.14.306,Simcolourproject_2stim_asymm_v5,2020.2.10,Win32,60,60e52e7cfedb1dae636df45f,,,,,,,,,3065,56,108,1,0,0,response1disk,,7,10,12,1,0,0,rectangle,10,12,1,0,0,10,12,1,0,0,1,112,272,8,1,,,,,,,,
,,,,,,,,,,,,,FF,,,,,,,,0.6551,,,,,,,,,,,,,,,,,,,,,,60d77cc4fae7e5ce3611a31c,60e5631f470138a233dcb483,2021-07-07_10h21.14.306,Simcolourproject_2stim_asymm_v5,2020.2.10,Win32,60,60e52e7cfedb1dae636df45f,,,,,,,,,2365,42,73,1,0,0,response1disk,,7,-2,7,1,0,0,rectangle,-2,7,1,0,0,-2,7,1,0,0,1,113,273,141,1,,,,,,,,
,,,,,,,,,,,,,FF,,,,,,,,1.301,,,,,,,,,,,,,,,,,,,,,,60d77cc4fae7e5ce3611a31c,60e5631f470138a233dcb483,2021-07-07_10h21.14.306,Simcolourproject_2stim_asymm_v5,2020.2.10,Win32,60,60e52e7cfedb1dae636df45f,,,,,,,,,399,42,100,1,0,0,response1disk,,7,11,13,1,0,0,rectangle,11,13,1,0,0,11,13,1,0,0,1,114,274,19,1,,,,,,,,
,,,,,,,,,,,,,FF,,,,,,,,0.6337,,,,,,,,,,,,,,,,,,,,,,60d77cc4fae7e5ce3611a31c,60e5631f470138a233dcb483,2021-07-07_10h21.14.306,Simcolourproject_2stim_asymm_v5,2020.2.10,Win32,60,60e52e7cfedb1dae636df45f,,,,,,,,,773,51,79,1,0,0,response1disk,,7,21,15,1,0,0,rectangle,21,15,1,0,0,21,15,1,0,0,1,115,275,110,1,,,,,,,,
,,,,,,,,,,,,,FF,,,,,,,,0.6512,,,,,,,,,,,,,,,,,,,,,,60d77cc4fae7e5ce3611a31c,60e5631f470138a233dcb483,2021-07-07_10h21.14.306,Simcolourproject_2stim_asymm_v5,2020.2.10,Win32,60,60e52e7cfedb1dae636df45f,,,,,,,,,3903,54,98,1,0,0,response1disk,,7,1,-11,1,0,0,rectangle,1,-11,1,0,0,1,-11,1,0,0,1,116,276,96,1,,,,,,,,
,,,,,,,,,,,,,FF,,,,,,,,1.7026,,,,,,,,,,,,,,,,,,,,,,60d77cc4fae7e5ce3611a31c,60e5631f470138a233dcb483,2021-07-07_10h21.14.306,Simcolourproject_2stim_asymm_v5,2020.2.10,Win32,60,60e52e7cfedb1dae636df45f,,,,,,,,,722,-101,-48,1,0,0,response5disk,,2,-19,-6,1,0,0,rectangle,-19,-6,1,0,0,-19,-6,1,0,0,1,117,277,62,1,,,,,,,,
,,,,,,,,,,,,,FF,,,,,,,,0.7188,,,,,,,,,,,,,,,,,,,,,,60d77cc4fae7e5ce3611a31c,60e5631f470138a233dcb483,2021-07-07_10h21.14.306,Simcolourproject_2stim_asymm_v5,2020.2.10,Win32,60,60e52e7cfedb1dae636df45f,,,,,,,,,3870,36,67,1,0,0,response1disk,,7,7,-1,1,0,0,rectangle,7,-1,1,0,0,7,-1,1,0,0,1,118,278,42,1,,,,,,,,
,,,,,,,,,,,,,FF,,,,,,,,0.6379,,,,,,,,,,,,,,,,,,,,,,60d77cc4fae7e5ce3611a31c,60e5631f470138a233dcb483,2021-07-07_10h21.14.306,Simcolourproject_2stim_asymm_v5,2020.2.10,Win32,60,60e52e7cfedb1dae636df45f,,,,,,,,,29,47,95,1,0,0,response1disk,,7,3,-10,1,0,0,rectangle,3,-10,1,0,0,3,-10,1,0,0,1,119,279,143,1,,,,,,,,
,,,,,,,,,,,,,FF,,,,,,,,0.9704,,,,,,,,,,,,,,,,,,,,,,60d77cc4fae7e5ce3611a31c,60e5631f470138a233dcb483,2021-07-07_10h21.14.306,Simcolourproject_2stim_asymm_v5,2020.2.10,Win32,60,60e52e7cfedb1dae636df45f,,,,,,,,,1526,-58,-29,1,0,0,response5disk,,2,-11,0,1,0,0,rectangle,-11,0,1,0,0,-11,0,1,0,0,1,120,280,153,1,,,,,,,,
,,,,,,,,,,,,,FF,,,,,,,,0.6677,,,,,,,,,,,,,,,,,,,,,,60d77cc4fae7e5ce3611a31c,60e5631f470138a233dcb483,2021-07-07_10h21.14.306,Simcolourproject_2stim_asymm_v5,2020.2.10,Win32,60,60e52e7cfedb1dae636df45f,,,,,,,,,4023,20,56,1,0,0,response1disk,,7,5,9,1,0,0,rectangle,5,9,1,0,0,5,9,1,0,0,1,121,281,83,1,,,,,,,,
,,,,,,,,,,,,,FF,,,,,,,,1.2364,,,,,,,,,,,,,,,,,,,,,,60d77cc4fae7e5ce3611a31c,60e5631f470138a233dcb483,2021-07-07_10h21.14.306,Simcolourproject_2stim_asymm_v5,2020.2.10,Win32,60,60e52e7cfedb1dae636df45f,,,,,,,,,2033,-73,25,1,0,0,response7disk,,1,1,-6,1,0,0,rectangle,1,-6,1,0,0,1,-6,1,0,0,1,122,282,17,1,,,,,,,,
,,,,,,,,,,,,,FF,,,,,,,,0.6695,,,,,,,,,,,,,,,,,,,,,,60d77cc4fae7e5ce3611a31c,60e5631f470138a233dcb483,2021-07-07_10h21.14.306,Simcolourproject_2stim_asymm_v5,2020.2.10,Win32,60,60e52e7cfedb1dae636df45f,,,,,,,,,785,41,75,1,0,0,response1disk,,7,10,5,1,0,0,rectangle,10,5,1,0,0,10,5,1,0,0,1,123,283,126,1,,,,,,,,
,,,,,,,,,,,,,FF,,,,,,,,0.7514,,,,,,,,,,,,,,,,,,,,,,60d77cc4fae7e5ce3611a31c,60e5631f470138a233dcb483,2021-07-07_10h21.14.306,Simcolourproject_2stim_asymm_v5,2020.2.10,Win32,60,60e52e7cfedb1dae636df45f,,,,,,,,,864,48,98,1,0,0,response1disk,,7,4,-6,1,0,0,rectangle,4,-6,1,0,0,4,-6,1,0,0,1,124,284,4,1,,,,,,,,
,,,,,,,,,,,,,FF,,,,,,,,1.7327,,,,,,,,,,,,,,,,,,,,,,60d77cc4fae7e5ce3611a31c,60e5631f470138a233dcb483,2021-07-07_10h21.14.306,Simcolourproject_2stim_asymm_v5,2020.2.10,Win32,60,60e52e7cfedb1dae636df45f,,,,,,,,,1754,30,48,1,0,0,response1disk,,7,13,12,1,0,0,rectangle,13,12,1,0,0,13,12,1,0,0,1,125,285,31,1,,,,,,,,
,,,,,,,,,,,,,FF,,,,,,,,0.6838,,,,,,,,,,,,,,,,,,,,,,60d77cc4fae7e5ce3611a31c,60e5631f470138a233dcb483,2021-07-07_10h21.14.306,Simcolourproject_2stim_asymm_v5,2020.2.10,Win32,60,60e52e7cfedb1dae636df45f,,,,,,,,,699,39,81,1,0,0,response1disk,,7,-6,-2,1,0,0,rectangle,-6,-2,1,0,0,-6,-2,1,0,0,1,126,286,139,1,,,,,,,,
,,,,,,,,,,,,,FF,,,,,,,,0.6322,,,,,,,,,,,,,,,,,,,,,,60d77cc4fae7e5ce3611a31c,60e5631f470138a233dcb483,2021-07-07_10h21.14.306,Simcolourproject_2stim_asymm_v5,2020.2.10,Win32,60,60e52e7cfedb1dae636df45f,,,,,,,,,134,36,76,1,0,0,response1disk,,7,-3,7,1,0,0,rectangle,59,-19,1,0,0,22,-12,1,0,0,1,127,287,109,1,,response3disk_3,TRUE,5,5,"[300,229,294,101,227,259,171,54,299,103,235,253,217,301,151,190,114,288,54,109]",1.7536,rectangle
,,,,,,,,,,,,,FF,,,,,,,,1.5033,,,,,,,,,,,,,,,,,,,,,,60d77cc4fae7e5ce3611a31c,60e5631f470138a233dcb483,2021-07-07_10h21.14.306,Simcolourproject_2stim_asymm_v5,2020.2.10,Win32,60,60e52e7cfedb1dae636df45f,,,,,,,,,886,-57,77,1,0,0,response7disk,,0,0,-11,1,0,0,rectangle,0,-11,1,0,0,0,-11,1,0,0,1,128,288,127,1,,,,,,,,
,,,,,,,,,,,,,FF,,,,,,,,0.6699,,,,,,,,,,,,,,,,,,,,,,60d77cc4fae7e5ce3611a31c,60e5631f470138a233dcb483,2021-07-07_10h21.14.306,Simcolourproject_2stim_asymm_v5,2020.2.10,Win32,60,60e52e7cfedb1dae636df45f,,,,,,,,,204,31,55,1,0,0,response1disk,,7,1,0,1,0,0,rectangle,1,0,1,0,0,1,0,1,0,0,1,129,289,148,1,,,,,,,,
,,,,,,,,,,,,,FF,,,,,,,,0.6506,,,,,,,,,,,,,,,,,,,,,,60d77cc4fae7e5ce3611a31c,60e5631f470138a233dcb483,2021-07-07_10h21.14.306,Simcolourproject_2stim_asymm_v5,2020.2.10,Win32,60,60e52e7cfedb1dae636df45f,,,,,,,,,1489,30,67,1,0,0,response1disk,,7,0,8,1,0,0,rectangle,0,8,1,0,0,0,8,1,0,0,1,130,290,113,1,,,,,,,,
,,,,,,,,,,,,,FF,,,,,,,,0.6498,,,,,,,,,,,,,,,,,,,,,,60d77cc4fae7e5ce3611a31c,60e5631f470138a233dcb483,2021-07-07_10h21.14.306,Simcolourproject_2stim_asymm_v5,2020.2.10,Win32,60,60e52e7cfedb1dae636df45f,,,,,,,,,2066,41,81,1,0,0,response1disk,,7,7,2,1,0,0,rectangle,7,2,1,0,0,7,2,1,0,0,1,131,291,18,1,,,,,,,,
,,,,,,,,,,,,,FF,,,,,,,,1.2005,,,,,,,,,,,,,,,,,,,,,,60d77cc4fae7e5ce3611a31c,60e5631f470138a233dcb483,2021-07-07_10h21.14.306,Simcolourproject_2stim_asymm_v5,2020.2.10,Win32,60,60e52e7cfedb1dae636df45f,,,,,,,,,3094,-70,-25,1,0,0,response5disk,,2,-9,-8,1,0,0,rectangle,-9,-8,1,0,0,-9,-8,1,0,0,1,132,292,28,1,,,,,,,,
,,,,,,,,,,,,,FF,,,,,,,,0.667,,,,,,,,,,,,,,,,,,,,,,60d77cc4fae7e5ce3611a31c,60e5631f470138a233dcb483,2021-07-07_10h21.14.306,Simcolourproject_2stim_asymm_v5,2020.2.10,Win32,60,60e52e7cfedb1dae636df45f,,,,,,,,,1727,35,68,1,0,0,response1disk,,7,-3,-3,1,0,0,rectangle,49,115,1,0,0,-7,11,1,0,0,1,133,293,154,1,,response1disk_3,TRUE,7,7,"[300,229,294,101,227,259,171,54,299,103,235,253,217,301,151,190,114,288,54,109]",1.9511,rectangle
,,,,,,,,,,,,,FF,,,,,,,,0.7334,,,,,,,,,,,,,,,,,,,,,,60d77cc4fae7e5ce3611a31c,60e5631f470138a233dcb483,2021-07-07_10h21.14.306,Simcolourproject_2stim_asymm_v5,2020.2.10,Win32,60,60e52e7cfedb1dae636df45f,,,,,,,,,756,26,70,1,0,0,response1disk,,7,-6,-6,1,0,0,rectangle,-6,-6,1,0,0,-6,-6,1,0,0,1,134,294,117,1,,,,,,,,
,,,,,,,,,,,,,FF,,,,,,,,0.6838,,,,,,,,,,,,,,,,,,,,,,60d77cc4fae7e5ce3611a31c,60e5631f470138a233dcb483,2021-07-07_10h21.14.306,Simcolourproject_2stim_asymm_v5,2020.2.10,Win32,60,60e52e7cfedb1dae636df45f,,,,,,,,,4143,34,70,1,0,0,response1disk,,7,-3,-5,1,0,0,rectangle,-3,-5,1,0,0,-3,-5,1,0,0,1,135,295,64,1,,,,,,,,
,,,,,,,,,,,,,FF,,,,,,,,0.6049,,,,,,,,,,,,,,,,,,,,,,60d77cc4fae7e5ce3611a31c,60e5631f470138a233dcb483,2021-07-07_10h21.14.306,Simcolourproject_2stim_asymm_v5,2020.2.10,Win32,60,60e52e7cfedb1dae636df45f,,,,,,,,,4112,48,97,1,0,0,response1disk,,7,-8,-1,1,0,0,rectangle,-8,-1,1,0,0,-8,-1,1,0,0,1,136,296,12,1,,,,,,,,
,,,,,,,,,,,,,FF,,,,,,,,1.5218,,,,,,,,,,,,,,,,,,,,,,60d77cc4fae7e5ce3611a31c,60e5631f470138a233dcb483,2021-07-07_10h21.14.306,Simcolourproject_2stim_asymm_v5,2020.2.10,Win32,60,60e52e7cfedb1dae636df45f,,,,,,,,,4078,-34,-59,1,0,0,response5disk,,3,18,10,1,0,0,rectangle,18,10,1,0,0,18,10,1,0,0,1,137,297,43,1,,,,,,,,
,,,,,,,,,,,,,FF,,,,,,,,0.6171,,,,,,,,,,,,,,,,,,,,,,60d77cc4fae7e5ce3611a31c,60e5631f470138a233dcb483,2021-07-07_10h21.14.306,Simcolourproject_2stim_asymm_v5,2020.2.10,Win32,60,60e52e7cfedb1dae636df45f,,,,,,,,,1619,55,87,1,0,0,response1disk,,7,19,11,1,0,0,rectangle,-31,-73,1,0,0,-14,-1,1,0,0,1,138,298,6,1,,response5disk_3,TRUE,3,3,"[300,229,294,101,227,259,171,54,299,103,235,253,217,301,151,190,114,288,54,109]",1.939,rectangle
,,,,,,,,,,,,,FF,,,,,,,,1.0837,,,,,,,,,,,,,,,,,,,,,,60d77cc4fae7e5ce3611a31c,60e5631f470138a233dcb483,2021-07-07_10h21.14.306,Simcolourproject_2stim_asymm_v5,2020.2.10,Win32,60,60e52e7cfedb1dae636df45f,,,,,,,,,1058,-65,47,1,0,0,response7disk,,1,-21,8,1,0,0,rectangle,-31,51,1,0,0,-2,6,1,0,0,1,139,299,63,1,,response7disk_3,TRUE,0,0,"[300,229,294,101,227,259,171,54,299,103,235,253,217,301,151,190,114,288,54,109]",2.2505,rectangle
,,,,,,,,,,,,,FF,,,,,,,,0.8006,,,,,,,,,,,,,,,,,,,,,,60d77cc4fae7e5ce3611a31c,60e5631f470138a233dcb483,2021-07-07_10h21.14.306,Simcolourproject_2stim_asymm_v5,2020.2.10,Win32,60,60e52e7cfedb1dae636df45f,,,,,,,,,387,54,99,1,0,0,response1disk,,7,1,0,1,0,0,rectangle,22,56,1,0,0,3,6,1,0,0,1,140,300,14,1,,response1disk_3,TRUE,7,7,"[300,229,294,101,227,259,171,54,299,103,235,253,217,301,151,190,114,288,54,109]",1.5503,rectangle
,,,,,,,,,,,,,FF,,,,,,,,0.7166,,,,,,,,,,,,,,,,,,,,,,60d77cc4fae7e5ce3611a31c,60e5631f470138a233dcb483,2021-07-07_10h21.14.306,Simcolourproject_2stim_asymm_v5,2020.2.10,Win32,60,60e52e7cfedb1dae636df45f,,,,,,,,,2024,19,47,1,0,0,response1disk,,7,-6,-12,1,0,0,rectangle,-6,-12,1,0,0,-6,-12,1,0,0,1,141,301,23,1,,,,,,,,
,,,,,,,,,,,,,FF,,,,,,,,1.0505,,,,,,,,,,,,,,,,,,,,,,60d77cc4fae7e5ce3611a31c,60e5631f470138a233dcb483,2021-07-07_10h21.14.306,Simcolourproject_2stim_asymm_v5,2020.2.10,Win32,60,60e52e7cfedb1dae636df45f,,,,,,,,,3154,41,71,1,0,0,response1disk,,7,-6,-10,1,0,0,rectangle,-6,-10,1,0,0,-6,-10,1,0,0,1,142,302,134,1,,,,,,,,
,,,,,,,,,,,,,FF,,,,,,,,0.6843,,,,,,,,,,,,,,,,,,,,,,60d77cc4fae7e5ce3611a31c,60e5631f470138a233dcb483,2021-07-07_10h21.14.306,Simcolourproject_2stim_asymm_v5,2020.2.10,Win32,60,60e52e7cfedb1dae636df45f,,,,,,,,,3964,21,39,1,0,0,response1disk,,7,14,15,1,0,0,rectangle,14,15,1,0,0,14,15,1,0,0,1,143,303,115,1,,,,,,,,
