key_resp.keys,key_resp.rt,key_resp_14.keys,key_resp_14.rt,key_resp_15.keys,key_resp_15.rt,key_resp_17.keys,key_resp_17.rt,key_resp_9.keys,key_resp_9.rt,key_resp_10.keys,key_resp_10.rt,practice_comparison,Ecc,mouse_5.x,mouse_5.y,mouse_5.leftButton,mouse_5.midButton,mouse_5.rightButton,mouse_5.clicked_name,pracsimilarity,response_time,mouse_10.x,mouse_10.y,mouse_10.leftButton,mouse_10.midButton,mouse_10.rightButton,mouse_10.clicked_name,mouse_7.x,mouse_7.y,mouse_7.leftButton,mouse_7.midButton,mouse_7.rightButton,mouse_6.x,mouse_6.y,mouse_6.leftButton,mouse_6.midButton,mouse_6.rightButton,duringprac.thisRepN,duringprac.thisTrialN,duringprac.thisN,duringprac.thisIndex,duringprac.ran,participant,session,date,expName,psychopyVersion,OS,frameRate,study_id,mouse_7.clicked_name,catchpracsimilarity,catch_response_time,catchnumberprac,catchtrialorderprac,mouse_6.clicked_name,key_resp_22.keys,key_resp_22.rt,realcomparison,mouse.x,mouse.y,mouse.leftButton,mouse.midButton,mouse.rightButton,mouse.clicked_name,Colour2,similarity,mouse_2.x,mouse_2.y,mouse_2.leftButton,mouse_2.midButton,mouse_2.rightButton,mouse_2.clicked_name,mouse_3.x,mouse_3.y,mouse_3.leftButton,mouse_3.midButton,mouse_3.rightButton,mouse_3.clicked_name,catchornah,catchsimilarity,catchnumber,catchtrialorder,catchRT,mouse_11.x,mouse_11.y,mouse_11.leftButton,mouse_11.midButton,mouse_11.rightButton,mouse_11.clicked_name,trials_2.thisRepN,trials_2.thisTrialN,trials_2.thisN,trials_2.thisIndex,trials_2.ran,Colour1
space,10.1133,space,6.7571,space,28.8831,space,8.0984,space,2.7853,space,4.9109,120,FF,90,31,1,0,0,response1disk_5,6,12.2891,-2,7,1,0,0,rectangle_8,-2,7,1,0,0,-2,7,1,0,0,0,0,0,5,1,60da905f8fa5374e57b4ad71,60e57f8a3d2776f571787c24,2021-07-07_12h20.35.835,Simcolourproject_2stim_asymm_v5,2020.2.10,Win32,60,60e52e7cfedb1dae636df45f,,,,,,,,,,,,,,,,,,,,,,,,,,,,,,,,,,,,,,,,,,,,,,
,,,,,,,,,,,,47,PF,-72,117,1,0,0,response7disk_5,0,5.4377,-8,-2,1,0,0,rectangle_8,-119,-44,1,0,0,3,3,1,0,0,0,1,1,2,1,60da905f8fa5374e57b4ad71,60e57f8a3d2776f571787c24,2021-07-07_12h20.35.835,Simcolourproject_2stim_asymm_v5,2020.2.10,Win32,60,60e52e7cfedb1dae636df45f,response5disk_7,2,3.1602,2,"[2,5]",rectangle_4,,,,,,,,,,,,,,,,,,,,,,,,,,,,,,,,,,,,,,,,
,,,,,,,,,,,,150,PF,83,-43,1,0,0,response3disk_5,5,7.688,-2,3,1,0,0,rectangle_8,-2,3,1,0,0,-2,3,1,0,0,0,2,2,4,1,60da905f8fa5374e57b4ad71,60e57f8a3d2776f571787c24,2021-07-07_12h20.35.835,Simcolourproject_2stim_asymm_v5,2020.2.10,Win32,60,60e52e7cfedb1dae636df45f,,,,,,,,,,,,,,,,,,,,,,,,,,,,,,,,,,,,,,,,,,,,,,
,,,,,,,,,,,,136,FF,104,-67,1,0,0,response3disk_5,5,13.6462,-9,7,1,0,0,rectangle_8,-9,7,1,0,0,-9,7,1,0,0,0,3,3,3,1,60da905f8fa5374e57b4ad71,60e57f8a3d2776f571787c24,2021-07-07_12h20.35.835,Simcolourproject_2stim_asymm_v5,2020.2.10,Win32,60,60e52e7cfedb1dae636df45f,,,,,,,,,,,,,,,,,,,,,,,,,,,,,,,,,,,,,,,,,,,,,,
,,,,,,,,,,,,42,FF,-72,-91,1,0,0,response5disk_5,3,3.7989,1,0,1,0,0,rectangle_8,-111,-60,1,0,0,-4,-14,1,0,0,0,4,4,0,1,60da905f8fa5374e57b4ad71,60e57f8a3d2776f571787c24,2021-07-07_12h20.35.835,Simcolourproject_2stim_asymm_v5,2020.2.10,Win32,60,60e52e7cfedb1dae636df45f,response5disk_7,2,3.3403,2,"[2,5]",rectangle_4,,,,,,,,,,,,,,,,,,,,,,,,,,,,,,,,,,,,,,,,
,,,,,,,,,,,,57,PF,-111,-25,1,0,0,response5disk_5,2,2.9023,5,-1,1,0,0,rectangle_8,5,-1,1,0,0,5,-1,1,0,0,0,5,5,6,1,60da905f8fa5374e57b4ad71,60e57f8a3d2776f571787c24,2021-07-07_12h20.35.835,Simcolourproject_2stim_asymm_v5,2020.2.10,Win32,60,60e52e7cfedb1dae636df45f,,,,,,,,,,,,,,,,,,,,,,,,,,,,,,,,,,,,,,,,,,,,,,
,,,,,,,,,,,,83,PF,-83,35,1,0,0,response7disk_5,1,1.3747,3,2,1,0,0,rectangle_8,3,2,1,0,0,3,2,1,0,0,0,6,6,1,1,60da905f8fa5374e57b4ad71,60e57f8a3d2776f571787c24,2021-07-07_12h20.35.835,Simcolourproject_2stim_asymm_v5,2020.2.10,Win32,60,60e52e7cfedb1dae636df45f,,,,,,,,,,,,,,,,,,,,,,,,,,,,,,,,,,,,,,,,,,,,,,
,,,,,,,,,,,,,FF,,,,,,,,1.8269,,,,,,,,,,,,,,,,,,,,,,60da905f8fa5374e57b4ad71,60e57f8a3d2776f571787c24,2021-07-07_12h20.35.835,Simcolourproject_2stim_asymm_v5,2020.2.10,Win32,60,60e52e7cfedb1dae636df45f,,,,,,,space,3.4895,4218,-72,121,1,0,0,response7disk,,0,10,4,1,0,0,rectangle,130,55,1,0,0,response1disk_3,TRUE,6,6,"[138,46,254,284,241,254,282,119,274,157,24,258,137,74,15,183,60,220,104,1]",3.8828,2,5,1,0,0,rectangle,0,0,0,157,1,
,,,,,,,,,,,,,FF,,,,,,,,2.6044,,,,,,,,,,,,,,,,,,,,,,60da905f8fa5374e57b4ad71,60e57f8a3d2776f571787c24,2021-07-07_12h20.35.835,Simcolourproject_2stim_asymm_v5,2020.2.10,Win32,60,60e52e7cfedb1dae636df45f,,,,,,,,,2469,63,100,1,0,0,response1disk,,7,5,-2,1,0,0,rectangle,5,-2,1,0,0,,,,,,,5,-2,1,0,0,,0,1,1,151,1,
,,,,,,,,,,,,,FF,,,,,,,,1.8683,,,,,,,,,,,,,,,,,,,,,,60da905f8fa5374e57b4ad71,60e57f8a3d2776f571787c24,2021-07-07_12h20.35.835,Simcolourproject_2stim_asymm_v5,2020.2.10,Win32,60,60e52e7cfedb1dae636df45f,,,,,,,,,206,-70,-97,1,0,0,response5disk,,3,4,2,1,0,0,rectangle,4,2,1,0,0,,,,,,,4,2,1,0,0,,0,2,2,124,1,
,,,,,,,,,,,,,FF,,,,,,,,1.8268,,,,,,,,,,,,,,,,,,,,,,60da905f8fa5374e57b4ad71,60e57f8a3d2776f571787c24,2021-07-07_12h20.35.835,Simcolourproject_2stim_asymm_v5,2020.2.10,Win32,60,60e52e7cfedb1dae636df45f,,,,,,,,,3581,68,-56,1,0,0,response3disk,,5,10,-6,1,0,0,rectangle,10,-6,1,0,0,,,,,,,10,-6,1,0,0,,0,3,3,61,1,
,,,,,,,,,,,,,FF,,,,,,,,1.2234,,,,,,,,,,,,,,,,,,,,,,60da905f8fa5374e57b4ad71,60e57f8a3d2776f571787c24,2021-07-07_12h20.35.835,Simcolourproject_2stim_asymm_v5,2020.2.10,Win32,60,60e52e7cfedb1dae636df45f,,,,,,,,,1026,-26,-75,1,0,0,response5disk,,3,7,-1,1,0,0,rectangle,7,-1,1,0,0,,,,,,,7,-1,1,0,0,,0,4,4,60,1,
,,,,,,,,,,,,,FF,,,,,,,,1.0348,,,,,,,,,,,,,,,,,,,,,,60da905f8fa5374e57b4ad71,60e57f8a3d2776f571787c24,2021-07-07_12h20.35.835,Simcolourproject_2stim_asymm_v5,2020.2.10,Win32,60,60e52e7cfedb1dae636df45f,,,,,,,,,4203,-94,46,1,0,0,response7disk,,1,5,3,1,0,0,rectangle,5,3,1,0,0,,,,,,,5,3,1,0,0,,0,5,5,141,1,
,,,,,,,,,,,,,FF,,,,,,,,1.2981,,,,,,,,,,,,,,,,,,,,,,60da905f8fa5374e57b4ad71,60e57f8a3d2776f571787c24,2021-07-07_12h20.35.835,Simcolourproject_2stim_asymm_v5,2020.2.10,Win32,60,60e52e7cfedb1dae636df45f,,,,,,,,,2581,82,53,1,0,0,response1disk,,6,0,2,1,0,0,rectangle,0,2,1,0,0,,,,,,,0,2,1,0,0,,0,6,6,130,1,
,,,,,,,,,,,,,FF,,,,,,,,2.1321,,,,,,,,,,,,,,,,,,,,,,60da905f8fa5374e57b4ad71,60e57f8a3d2776f571787c24,2021-07-07_12h20.35.835,Simcolourproject_2stim_asymm_v5,2020.2.10,Win32,60,60e52e7cfedb1dae636df45f,,,,,,,,,1443,77,-35,1,0,0,response3disk,,5,0,1,1,0,0,rectangle,0,1,1,0,0,,,,,,,0,1,1,0,0,,0,7,7,114,1,
,,,,,,,,,,,,,FF,,,,,,,,2.0693,,,,,,,,,,,,,,,,,,,,,,60da905f8fa5374e57b4ad71,60e57f8a3d2776f571787c24,2021-07-07_12h20.35.835,Simcolourproject_2stim_asymm_v5,2020.2.10,Win32,60,60e52e7cfedb1dae636df45f,,,,,,,,,2014,50,92,1,0,0,response1disk,,7,4,-1,1,0,0,rectangle,4,-1,1,0,0,,,,,,,4,-1,1,0,0,,0,8,8,96,1,
,,,,,,,,,,,,,FF,,,,,,,,2.2844,,,,,,,,,,,,,,,,,,,,,,60da905f8fa5374e57b4ad71,60e57f8a3d2776f571787c24,2021-07-07_12h20.35.835,Simcolourproject_2stim_asymm_v5,2020.2.10,Win32,60,60e52e7cfedb1dae636df45f,,,,,,,,,4250,66,-103,1,0,0,response3disk,,4,5,1,1,0,0,rectangle,5,1,1,0,0,,,,,,,5,1,1,0,0,,0,9,9,99,1,
,,,,,,,,,,,,,FF,,,,,,,,1.4793,,,,,,,,,,,,,,,,,,,,,,60da905f8fa5374e57b4ad71,60e57f8a3d2776f571787c24,2021-07-07_12h20.35.835,Simcolourproject_2stim_asymm_v5,2020.2.10,Win32,60,60e52e7cfedb1dae636df45f,,,,,,,,,1429,-78,-101,1,0,0,response5disk,,3,-15,-3,1,0,0,rectangle,-15,-3,1,0,0,,,,,,,-15,-3,1,0,0,,0,10,10,7,1,
,,,,,,,,,,,,,FF,,,,,,,,4.3613,,,,,,,,,,,,,,,,,,,,,,60da905f8fa5374e57b4ad71,60e57f8a3d2776f571787c24,2021-07-07_12h20.35.835,Simcolourproject_2stim_asymm_v5,2020.2.10,Win32,60,60e52e7cfedb1dae636df45f,,,,,,,,,1325,85,40,1,0,0,response1disk,,6,-9,0,1,0,0,rectangle,-9,0,1,0,0,,,,,,,-9,0,1,0,0,,0,11,11,8,1,
,,,,,,,,,,,,,FF,,,,,,,,4.2916,,,,,,,,,,,,,,,,,,,,,,60da905f8fa5374e57b4ad71,60e57f8a3d2776f571787c24,2021-07-07_12h20.35.835,Simcolourproject_2stim_asymm_v5,2020.2.10,Win32,60,60e52e7cfedb1dae636df45f,,,,,,,,,2437,111,48,1,0,0,response1disk,,6,3,-1,1,0,0,rectangle,3,-1,1,0,0,,,,,,,3,-1,1,0,0,,0,12,12,18,1,
,,,,,,,,,,,,,FF,,,,,,,,1.3263,,,,,,,,,,,,,,,,,,,,,,60da905f8fa5374e57b4ad71,60e57f8a3d2776f571787c24,2021-07-07_12h20.35.835,Simcolourproject_2stim_asymm_v5,2020.2.10,Win32,60,60e52e7cfedb1dae636df45f,,,,,,,,,4153,46,79,1,0,0,response1disk,,7,-5,-12,1,0,0,rectangle,-5,-12,1,0,0,,,,,,,-5,-12,1,0,0,,0,13,13,104,1,
,,,,,,,,,,,,,FF,,,,,,,,2.9236,,,,,,,,,,,,,,,,,,,,,,60da905f8fa5374e57b4ad71,60e57f8a3d2776f571787c24,2021-07-07_12h20.35.835,Simcolourproject_2stim_asymm_v5,2020.2.10,Win32,60,60e52e7cfedb1dae636df45f,,,,,,,,,1179,116,36,1,0,0,response1disk,,6,-3,2,1,0,0,rectangle,125,62,1,0,0,response1disk_3,TRUE,6,6,"[138,46,254,284,241,254,282,119,274,157,24,258,137,74,15,183,60,220,104,1]",3.1807,9,-6,1,0,0,rectangle,0,14,14,2,1,
,,,,,,,,,,,,,FF,,,,,,,,1.2093,,,,,,,,,,,,,,,,,,,,,,60da905f8fa5374e57b4ad71,60e57f8a3d2776f571787c24,2021-07-07_12h20.35.835,Simcolourproject_2stim_asymm_v5,2020.2.10,Win32,60,60e52e7cfedb1dae636df45f,,,,,,,,,1714,50,85,1,0,0,response1disk,,7,-4,-10,1,0,0,rectangle,-4,-10,1,0,0,,,,,,,-4,-10,1,0,0,,0,15,15,5,1,
,,,,,,,,,,,,,FF,,,,,,,,1.3682,,,,,,,,,,,,,,,,,,,,,,60da905f8fa5374e57b4ad71,60e57f8a3d2776f571787c24,2021-07-07_12h20.35.835,Simcolourproject_2stim_asymm_v5,2020.2.10,Win32,60,60e52e7cfedb1dae636df45f,,,,,,,,,518,41,-88,1,0,0,response3disk,,4,-2,-6,1,0,0,rectangle,-2,-6,1,0,0,,,,,,,-2,-6,1,0,0,,0,16,16,90,1,
,,,,,,,,,,,,,FF,,,,,,,,1.8761,,,,,,,,,,,,,,,,,,,,,,60da905f8fa5374e57b4ad71,60e57f8a3d2776f571787c24,2021-07-07_12h20.35.835,Simcolourproject_2stim_asymm_v5,2020.2.10,Win32,60,60e52e7cfedb1dae636df45f,,,,,,,,,3525,53,-92,1,0,0,response3disk,,4,-2,-10,1,0,0,rectangle,-2,-10,1,0,0,,,,,,,-2,-10,1,0,0,,0,17,17,47,1,
,,,,,,,,,,,,,FF,,,,,,,,1.3898,,,,,,,,,,,,,,,,,,,,,,60da905f8fa5374e57b4ad71,60e57f8a3d2776f571787c24,2021-07-07_12h20.35.835,Simcolourproject_2stim_asymm_v5,2020.2.10,Win32,60,60e52e7cfedb1dae636df45f,,,,,,,,,1682,-98,46,1,0,0,response7disk,,1,8,-8,1,0,0,rectangle,8,-8,1,0,0,,,,,,,8,-8,1,0,0,,0,18,18,29,1,
,,,,,,,,,,,,,FF,,,,,,,,1.3047,,,,,,,,,,,,,,,,,,,,,,60da905f8fa5374e57b4ad71,60e57f8a3d2776f571787c24,2021-07-07_12h20.35.835,Simcolourproject_2stim_asymm_v5,2020.2.10,Win32,60,60e52e7cfedb1dae636df45f,,,,,,,,,1579,72,-47,1,0,0,response3disk,,5,-7,-10,1,0,0,rectangle,-7,-10,1,0,0,,,,,,,-7,-10,1,0,0,,0,19,19,154,1,
,,,,,,,,,,,,,FF,,,,,,,,0.9372,,,,,,,,,,,,,,,,,,,,,,60da905f8fa5374e57b4ad71,60e57f8a3d2776f571787c24,2021-07-07_12h20.35.835,Simcolourproject_2stim_asymm_v5,2020.2.10,Win32,60,60e52e7cfedb1dae636df45f,,,,,,,,,4210,91,45,1,0,0,response1disk,,6,7,1,1,0,0,rectangle,7,1,1,0,0,,,,,,,7,1,1,0,0,,0,20,20,92,1,
,,,,,,,,,,,,,FF,,,,,,,,2.6801,,,,,,,,,,,,,,,,,,,,,,60da905f8fa5374e57b4ad71,60e57f8a3d2776f571787c24,2021-07-07_12h20.35.835,Simcolourproject_2stim_asymm_v5,2020.2.10,Win32,60,60e52e7cfedb1dae636df45f,,,,,,,,,539,109,35,1,0,0,response1disk,,6,-20,-7,1,0,0,rectangle,-20,-7,1,0,0,,,,,,,-20,-7,1,0,0,,0,21,21,53,1,
,,,,,,,,,,,,,FF,,,,,,,,1.1109,,,,,,,,,,,,,,,,,,,,,,60da905f8fa5374e57b4ad71,60e57f8a3d2776f571787c24,2021-07-07_12h20.35.835,Simcolourproject_2stim_asymm_v5,2020.2.10,Win32,60,60e52e7cfedb1dae636df45f,,,,,,,,,3835,46,-104,1,0,0,response3disk,,4,1,0,1,0,0,rectangle,1,0,1,0,0,,,,,,,1,0,1,0,0,,0,22,22,106,1,
,,,,,,,,,,,,,FF,,,,,,,,3.3404,,,,,,,,,,,,,,,,,,,,,,60da905f8fa5374e57b4ad71,60e57f8a3d2776f571787c24,2021-07-07_12h20.35.835,Simcolourproject_2stim_asymm_v5,2020.2.10,Win32,60,60e52e7cfedb1dae636df45f,,,,,,,,,760,108,45,1,0,0,response1disk,,6,-8,1,1,0,0,rectangle,95,52,1,0,0,response1disk_3,TRUE,6,6,"[138,46,254,284,241,254,282,119,274,157,24,258,137,74,15,183,60,220,104,1]",1.4235,4,-15,1,0,0,rectangle,0,23,23,120,1,
,,,,,,,,,,,,,FF,,,,,,,,0.9094,,,,,,,,,,,,,,,,,,,,,,60da905f8fa5374e57b4ad71,60e57f8a3d2776f571787c24,2021-07-07_12h20.35.835,Simcolourproject_2stim_asymm_v5,2020.2.10,Win32,60,60e52e7cfedb1dae636df45f,,,,,,,,,3034,51,93,1,0,0,response1disk,,7,-7,-6,1,0,0,rectangle,-7,-6,1,0,0,,,,,,,-7,-6,1,0,0,,0,24,24,117,1,
,,,,,,,,,,,,,FF,,,,,,,,1.298,,,,,,,,,,,,,,,,,,,,,,60da905f8fa5374e57b4ad71,60e57f8a3d2776f571787c24,2021-07-07_12h20.35.835,Simcolourproject_2stim_asymm_v5,2020.2.10,Win32,60,60e52e7cfedb1dae636df45f,,,,,,,,,1772,46,-113,1,0,0,response3disk,,4,-2,-3,1,0,0,rectangle,-2,-3,1,0,0,,,,,,,-2,-3,1,0,0,,0,25,25,126,1,
,,,,,,,,,,,,,FF,,,,,,,,1.2081,,,,,,,,,,,,,,,,,,,,,,60da905f8fa5374e57b4ad71,60e57f8a3d2776f571787c24,2021-07-07_12h20.35.835,Simcolourproject_2stim_asymm_v5,2020.2.10,Win32,60,60e52e7cfedb1dae636df45f,,,,,,,,,352,-87,-42,1,0,0,response5disk,,2,0,-1,1,0,0,rectangle,0,-1,1,0,0,,,,,,,0,-1,1,0,0,,0,26,26,101,1,
,,,,,,,,,,,,,FF,,,,,,,,1.6329,,,,,,,,,,,,,,,,,,,,,,60da905f8fa5374e57b4ad71,60e57f8a3d2776f571787c24,2021-07-07_12h20.35.835,Simcolourproject_2stim_asymm_v5,2020.2.10,Win32,60,60e52e7cfedb1dae636df45f,,,,,,,,,1843,81,-49,1,0,0,response3disk,,5,-10,9,1,0,0,rectangle,-10,9,1,0,0,,,,,,,-10,9,1,0,0,,0,27,27,136,1,
,,,,,,,,,,,,,FF,,,,,,,,1.2925,,,,,,,,,,,,,,,,,,,,,,60da905f8fa5374e57b4ad71,60e57f8a3d2776f571787c24,2021-07-07_12h20.35.835,Simcolourproject_2stim_asymm_v5,2020.2.10,Win32,60,60e52e7cfedb1dae636df45f,,,,,,,,,1858,97,72,1,0,0,response1disk,,6,-11,-5,1,0,0,rectangle,-11,-5,1,0,0,,,,,,,-11,-5,1,0,0,,0,28,28,142,1,
,,,,,,,,,,,,,FF,,,,,,,,2.3472,,,,,,,,,,,,,,,,,,,,,,60da905f8fa5374e57b4ad71,60e57f8a3d2776f571787c24,2021-07-07_12h20.35.835,Simcolourproject_2stim_asymm_v5,2020.2.10,Win32,60,60e52e7cfedb1dae636df45f,,,,,,,,,3940,-109,-36,1,0,0,response5disk,,2,-3,1,1,0,0,rectangle,-3,1,1,0,0,,,,,,,-3,1,1,0,0,,0,29,29,56,1,
,,,,,,,,,,,,,FF,,,,,,,,2.4172,,,,,,,,,,,,,,,,,,,,,,60da905f8fa5374e57b4ad71,60e57f8a3d2776f571787c24,2021-07-07_12h20.35.835,Simcolourproject_2stim_asymm_v5,2020.2.10,Win32,60,60e52e7cfedb1dae636df45f,,,,,,,,,1613,-50,-81,1,0,0,response5disk,,3,11,0,1,0,0,rectangle,11,0,1,0,0,,,,,,,11,0,1,0,0,,0,30,30,131,1,
,,,,,,,,,,,,,FF,,,,,,,,1.6391,,,,,,,,,,,,,,,,,,,,,,60da905f8fa5374e57b4ad71,60e57f8a3d2776f571787c24,2021-07-07_12h20.35.835,Simcolourproject_2stim_asymm_v5,2020.2.10,Win32,60,60e52e7cfedb1dae636df45f,,,,,,,,,1655,68,87,1,0,0,response1disk,,7,-6,9,1,0,0,rectangle,-6,9,1,0,0,,,,,,,-6,9,1,0,0,,0,31,31,41,1,
,,,,,,,,,,,,,FF,,,,,,,,2.1529,,,,,,,,,,,,,,,,,,,,,,60da905f8fa5374e57b4ad71,60e57f8a3d2776f571787c24,2021-07-07_12h20.35.835,Simcolourproject_2stim_asymm_v5,2020.2.10,Win32,60,60e52e7cfedb1dae636df45f,,,,,,,,,960,121,33,1,0,0,response1disk,,6,10,-9,1,0,0,rectangle,10,-9,1,0,0,,,,,,,10,-9,1,0,0,,0,32,32,139,1,
,,,,,,,,,,,,,FF,,,,,,,,1.764,,,,,,,,,,,,,,,,,,,,,,60da905f8fa5374e57b4ad71,60e57f8a3d2776f571787c24,2021-07-07_12h20.35.835,Simcolourproject_2stim_asymm_v5,2020.2.10,Win32,60,60e52e7cfedb1dae636df45f,,,,,,,,,692,119,50,1,0,0,response1disk,,6,22,2,1,0,0,rectangle,22,2,1,0,0,,,,,,,22,2,1,0,0,,0,33,33,125,1,
,,,,,,,,,,,,,FF,,,,,,,,1.8682,,,,,,,,,,,,,,,,,,,,,,60da905f8fa5374e57b4ad71,60e57f8a3d2776f571787c24,2021-07-07_12h20.35.835,Simcolourproject_2stim_asymm_v5,2020.2.10,Win32,60,60e52e7cfedb1dae636df45f,,,,,,,,,1103,106,-66,1,0,0,response3disk,,5,-11,2,1,0,0,rectangle,-11,2,1,0,0,,,,,,,-11,2,1,0,0,,0,34,34,140,1,
,,,,,,,,,,,,,FF,,,,,,,,2.1943,,,,,,,,,,,,,,,,,,,,,,60da905f8fa5374e57b4ad71,60e57f8a3d2776f571787c24,2021-07-07_12h20.35.835,Simcolourproject_2stim_asymm_v5,2020.2.10,Win32,60,60e52e7cfedb1dae636df45f,,,,,,,,,1213,-109,-34,1,0,0,response5disk,,2,14,1,1,0,0,rectangle,14,1,1,0,0,,,,,,,14,1,1,0,0,,0,35,35,147,1,
,,,,,,,,,,,,,FF,,,,,,,,2.3955,,,,,,,,,,,,,,,,,,,,,,60da905f8fa5374e57b4ad71,60e57f8a3d2776f571787c24,2021-07-07_12h20.35.835,Simcolourproject_2stim_asymm_v5,2020.2.10,Win32,60,60e52e7cfedb1dae636df45f,,,,,,,,,1693,-43,-86,1,0,0,response5disk,,3,6,-8,1,0,0,rectangle,6,-8,1,0,0,,,,,,,6,-8,1,0,0,,0,36,36,111,1,
,,,,,,,,,,,,,FF,,,,,,,,1.368,,,,,,,,,,,,,,,,,,,,,,60da905f8fa5374e57b4ad71,60e57f8a3d2776f571787c24,2021-07-07_12h20.35.835,Simcolourproject_2stim_asymm_v5,2020.2.10,Win32,60,60e52e7cfedb1dae636df45f,,,,,,,,,4074,81,41,1,0,0,response1disk,,6,2,-6,1,0,0,rectangle,2,-6,1,0,0,,,,,,,2,-6,1,0,0,,0,37,37,129,1,
,,,,,,,,,,,,,FF,,,,,,,,4.3615,,,,,,,,,,,,,,,,,,,,,,60da905f8fa5374e57b4ad71,60e57f8a3d2776f571787c24,2021-07-07_12h20.35.835,Simcolourproject_2stim_asymm_v5,2020.2.10,Win32,60,60e52e7cfedb1dae636df45f,,,,,,,,,848,112,-44,1,0,0,response3disk,,5,18,-1,1,0,0,rectangle,18,-1,1,0,0,,,,,,,18,-1,1,0,0,,0,38,38,13,1,
,,,,,,,,,,,,,FF,,,,,,,,1.8958,,,,,,,,,,,,,,,,,,,,,,60da905f8fa5374e57b4ad71,60e57f8a3d2776f571787c24,2021-07-07_12h20.35.835,Simcolourproject_2stim_asymm_v5,2020.2.10,Win32,60,60e52e7cfedb1dae636df45f,,,,,,,,,1277,79,60,1,0,0,response1disk,,6,-29,2,1,0,0,rectangle,-29,2,1,0,0,,,,,,,-29,2,1,0,0,,0,39,39,132,1,
,,,,,,,,,,,,,FF,,,,,,,,3.3892,,,,,,,,,,,,,,,,,,,,,,60da905f8fa5374e57b4ad71,60e57f8a3d2776f571787c24,2021-07-07_12h20.35.835,Simcolourproject_2stim_asymm_v5,2020.2.10,Win32,60,60e52e7cfedb1dae636df45f,,,,,,,,,2651,144,48,1,0,0,response1disk,,6,-26,11,1,0,0,rectangle,-26,11,1,0,0,,,,,,,-26,11,1,0,0,,0,40,40,95,1,
,,,,,,,,,,,,,FF,,,,,,,,1.1875,,,,,,,,,,,,,,,,,,,,,,60da905f8fa5374e57b4ad71,60e57f8a3d2776f571787c24,2021-07-07_12h20.35.835,Simcolourproject_2stim_asymm_v5,2020.2.10,Win32,60,60e52e7cfedb1dae636df45f,,,,,,,,,3715,-69,-91,1,0,0,response5disk,,3,-9,-1,1,0,0,rectangle,-9,-1,1,0,0,,,,,,,-9,-1,1,0,0,,0,41,41,115,1,
,,,,,,,,,,,,,FF,,,,,,,,1.1737,,,,,,,,,,,,,,,,,,,,,,60da905f8fa5374e57b4ad71,60e57f8a3d2776f571787c24,2021-07-07_12h20.35.835,Simcolourproject_2stim_asymm_v5,2020.2.10,Win32,60,60e52e7cfedb1dae636df45f,,,,,,,,,3080,32,-87,1,0,0,response3disk,,4,-6,5,1,0,0,rectangle,-6,5,1,0,0,,,,,,,-6,5,1,0,0,,0,42,42,122,1,
,,,,,,,,,,,,,FF,,,,,,,,1.4375,,,,,,,,,,,,,,,,,,,,,,60da905f8fa5374e57b4ad71,60e57f8a3d2776f571787c24,2021-07-07_12h20.35.835,Simcolourproject_2stim_asymm_v5,2020.2.10,Win32,60,60e52e7cfedb1dae636df45f,,,,,,,,,3320,91,42,1,0,0,response1disk,,6,2,-10,1,0,0,rectangle,2,-10,1,0,0,,,,,,,2,-10,1,0,0,,0,43,43,159,1,
,,,,,,,,,,,,,FF,,,,,,,,1.3196,,,,,,,,,,,,,,,,,,,,,,60da905f8fa5374e57b4ad71,60e57f8a3d2776f571787c24,2021-07-07_12h20.35.835,Simcolourproject_2stim_asymm_v5,2020.2.10,Win32,60,60e52e7cfedb1dae636df45f,,,,,,,,,563,86,-56,1,0,0,response3disk,,5,12,1,1,0,0,rectangle,12,1,1,0,0,,,,,,,12,1,1,0,0,,0,44,44,155,1,
,,,,,,,,,,,,,FF,,,,,,,,1.8683,,,,,,,,,,,,,,,,,,,,,,60da905f8fa5374e57b4ad71,60e57f8a3d2776f571787c24,2021-07-07_12h20.35.835,Simcolourproject_2stim_asymm_v5,2020.2.10,Win32,60,60e52e7cfedb1dae636df45f,,,,,,,,,1979,54,-81,1,0,0,response3disk,,4,16,-9,1,0,0,rectangle,43,-102,1,0,0,response3disk_3,TRUE,4,4,"[138,46,254,284,241,254,282,119,274,157,24,258,137,74,15,183,60,220,104,1]",1.4862,-1,12,1,0,0,rectangle,0,45,45,83,1,
,,,,,,,,,,,,,FF,,,,,,,,1.5479,,,,,,,,,,,,,,,,,,,,,,60da905f8fa5374e57b4ad71,60e57f8a3d2776f571787c24,2021-07-07_12h20.35.835,Simcolourproject_2stim_asymm_v5,2020.2.10,Win32,60,60e52e7cfedb1dae636df45f,,,,,,,,,1142,94,-54,1,0,0,response3disk,,5,-18,-4,1,0,0,rectangle,-18,-4,1,0,0,,,,,,,-18,-4,1,0,0,,0,46,46,72,1,
,,,,,,,,,,,,,FF,,,,,,,,1.4512,,,,,,,,,,,,,,,,,,,,,,60da905f8fa5374e57b4ad71,60e57f8a3d2776f571787c24,2021-07-07_12h20.35.835,Simcolourproject_2stim_asymm_v5,2020.2.10,Win32,60,60e52e7cfedb1dae636df45f,,,,,,,,,2,-103,-74,1,0,0,response5disk,,2,0,5,1,0,0,rectangle,0,5,1,0,0,,,,,,,0,5,1,0,0,,0,47,47,102,1,
,,,,,,,,,,,,,FF,,,,,,,,1.0973,,,,,,,,,,,,,,,,,,,,,,60da905f8fa5374e57b4ad71,60e57f8a3d2776f571787c24,2021-07-07_12h20.35.835,Simcolourproject_2stim_asymm_v5,2020.2.10,Win32,60,60e52e7cfedb1dae636df45f,,,,,,,,,2244,-37,-106,1,0,0,response5disk,,3,6,-12,1,0,0,rectangle,6,-12,1,0,0,,,,,,,6,-12,1,0,0,,0,48,48,113,1,
,,,,,,,,,,,,,FF,,,,,,,,1.007,,,,,,,,,,,,,,,,,,,,,,60da905f8fa5374e57b4ad71,60e57f8a3d2776f571787c24,2021-07-07_12h20.35.835,Simcolourproject_2stim_asymm_v5,2020.2.10,Win32,60,60e52e7cfedb1dae636df45f,,,,,,,,,1685,-44,-101,1,0,0,response5disk,,3,-6,-14,1,0,0,rectangle,-6,-14,1,0,0,,,,,,,-6,-14,1,0,0,,0,49,49,26,1,
,,,,,,,,,,,,,FF,,,,,,,,0.889,,,,,,,,,,,,,,,,,,,,,,60da905f8fa5374e57b4ad71,60e57f8a3d2776f571787c24,2021-07-07_12h20.35.835,Simcolourproject_2stim_asymm_v5,2020.2.10,Win32,60,60e52e7cfedb1dae636df45f,,,,,,,,,2661,-104,-51,1,0,0,response5disk,,2,-17,1,1,0,0,rectangle,-17,1,1,0,0,,,,,,,-17,1,1,0,0,,0,50,50,38,1,
,,,,,,,,,,,,,FF,,,,,,,,1.1182,,,,,,,,,,,,,,,,,,,,,,60da905f8fa5374e57b4ad71,60e57f8a3d2776f571787c24,2021-07-07_12h20.35.835,Simcolourproject_2stim_asymm_v5,2020.2.10,Win32,60,60e52e7cfedb1dae636df45f,,,,,,,,,1177,94,-59,1,0,0,response3disk,,5,-6,-10,1,0,0,rectangle,-6,-10,1,0,0,,,,,,,-6,-10,1,0,0,,0,51,51,88,1,
,,,,,,,,,,,,,FF,,,,,,,,1.0069,,,,,,,,,,,,,,,,,,,,,,60da905f8fa5374e57b4ad71,60e57f8a3d2776f571787c24,2021-07-07_12h20.35.835,Simcolourproject_2stim_asymm_v5,2020.2.10,Win32,60,60e52e7cfedb1dae636df45f,,,,,,,,,2294,-40,-86,1,0,0,response5disk,,3,3,-3,1,0,0,rectangle,3,-3,1,0,0,,,,,,,3,-3,1,0,0,,0,52,52,138,1,
,,,,,,,,,,,,,FF,,,,,,,,0.7499,,,,,,,,,,,,,,,,,,,,,,60da905f8fa5374e57b4ad71,60e57f8a3d2776f571787c24,2021-07-07_12h20.35.835,Simcolourproject_2stim_asymm_v5,2020.2.10,Win32,60,60e52e7cfedb1dae636df45f,,,,,,,,,2528,62,118,1,0,0,response1disk,,7,8,-2,1,0,0,rectangle,8,-2,1,0,0,,,,,,,8,-2,1,0,0,,0,53,53,59,1,
,,,,,,,,,,,,,FF,,,,,,,,1.9861,,,,,,,,,,,,,,,,,,,,,,60da905f8fa5374e57b4ad71,60e57f8a3d2776f571787c24,2021-07-07_12h20.35.835,Simcolourproject_2stim_asymm_v5,2020.2.10,Win32,60,60e52e7cfedb1dae636df45f,,,,,,,,,2867,70,109,1,0,0,response1disk,,7,10,-15,1,0,0,rectangle,10,-15,1,0,0,,,,,,,10,-15,1,0,0,,0,54,54,98,1,
,,,,,,,,,,,,,FF,,,,,,,,1.0554,,,,,,,,,,,,,,,,,,,,,,60da905f8fa5374e57b4ad71,60e57f8a3d2776f571787c24,2021-07-07_12h20.35.835,Simcolourproject_2stim_asymm_v5,2020.2.10,Win32,60,60e52e7cfedb1dae636df45f,,,,,,,,,44,82,-32,1,0,0,response3disk,,5,-26,4,1,0,0,rectangle,-26,4,1,0,0,,,,,,,-26,4,1,0,0,,0,55,55,107,1,
,,,,,,,,,,,,,FF,,,,,,,,1.3613,,,,,,,,,,,,,,,,,,,,,,60da905f8fa5374e57b4ad71,60e57f8a3d2776f571787c24,2021-07-07_12h20.35.835,Simcolourproject_2stim_asymm_v5,2020.2.10,Win32,60,60e52e7cfedb1dae636df45f,,,,,,,,,111,108,38,1,0,0,response1disk,,6,-3,-9,1,0,0,rectangle,-3,-9,1,0,0,,,,,,,-3,-9,1,0,0,,0,56,56,82,1,
,,,,,,,,,,,,,FF,,,,,,,,0.91,,,,,,,,,,,,,,,,,,,,,,60da905f8fa5374e57b4ad71,60e57f8a3d2776f571787c24,2021-07-07_12h20.35.835,Simcolourproject_2stim_asymm_v5,2020.2.10,Win32,60,60e52e7cfedb1dae636df45f,,,,,,,,,2035,-39,-99,1,0,0,response5disk,,3,13,2,1,0,0,rectangle,13,2,1,0,0,,,,,,,13,2,1,0,0,,0,57,57,42,1,
,,,,,,,,,,,,,FF,,,,,,,,1.0413,,,,,,,,,,,,,,,,,,,,,,60da905f8fa5374e57b4ad71,60e57f8a3d2776f571787c24,2021-07-07_12h20.35.835,Simcolourproject_2stim_asymm_v5,2020.2.10,Win32,60,60e52e7cfedb1dae636df45f,,,,,,,,,530,-88,36,1,0,0,response7disk,,1,8,8,1,0,0,rectangle,8,8,1,0,0,,,,,,,8,8,1,0,0,,0,58,58,127,1,
,,,,,,,,,,,,,FF,,,,,,,,0.987,,,,,,,,,,,,,,,,,,,,,,60da905f8fa5374e57b4ad71,60e57f8a3d2776f571787c24,2021-07-07_12h20.35.835,Simcolourproject_2stim_asymm_v5,2020.2.10,Win32,60,60e52e7cfedb1dae636df45f,,,,,,,,,318,103,-39,1,0,0,response3disk,,5,-8,-1,1,0,0,rectangle,-51,-101,1,0,0,response5disk_3,TRUE,3,3,"[138,46,254,284,241,254,282,119,274,157,24,258,137,74,15,183,60,220,104,1]",1.8619,2,-8,1,0,0,rectangle,0,59,59,37,1,
,,,,,,,,,,,,,FF,,,,,,,,1.1329,,,,,,,,,,,,,,,,,,,,,,60da905f8fa5374e57b4ad71,60e57f8a3d2776f571787c24,2021-07-07_12h20.35.835,Simcolourproject_2stim_asymm_v5,2020.2.10,Win32,60,60e52e7cfedb1dae636df45f,,,,,,,,,1689,-51,-102,1,0,0,response5disk,,3,-10,-10,1,0,0,rectangle,-10,-10,1,0,0,,,,,,,-10,-10,1,0,0,,0,60,60,65,1,
,,,,,,,,,,,,,FF,,,,,,,,3.3478,,,,,,,,,,,,,,,,,,,,,,60da905f8fa5374e57b4ad71,60e57f8a3d2776f571787c24,2021-07-07_12h20.35.835,Simcolourproject_2stim_asymm_v5,2020.2.10,Win32,60,60e52e7cfedb1dae636df45f,,,,,,,,,1842,110,30,1,0,0,response1disk,,6,-23,2,1,0,0,rectangle,-23,2,1,0,0,,,,,,,-23,2,1,0,0,,0,61,61,35,1,
,,,,,,,,,,,,,FF,,,,,,,,0.8681,,,,,,,,,,,,,,,,,,,,,,60da905f8fa5374e57b4ad71,60e57f8a3d2776f571787c24,2021-07-07_12h20.35.835,Simcolourproject_2stim_asymm_v5,2020.2.10,Win32,60,60e52e7cfedb1dae636df45f,,,,,,,,,2954,-39,-79,1,0,0,response5disk,,3,4,-8,1,0,0,rectangle,4,-8,1,0,0,,,,,,,4,-8,1,0,0,,0,62,62,6,1,
,,,,,,,,,,,,,FF,,,,,,,,3.3064,,,,,,,,,,,,,,,,,,,,,,60da905f8fa5374e57b4ad71,60e57f8a3d2776f571787c24,2021-07-07_12h20.35.835,Simcolourproject_2stim_asymm_v5,2020.2.10,Win32,60,60e52e7cfedb1dae636df45f,,,,,,,,,2751,75,114,1,0,0,response1disk,,7,-6,6,1,0,0,rectangle,-6,6,1,0,0,,,,,,,-6,6,1,0,0,,0,63,63,3,1,
,,,,,,,,,,,,,FF,,,,,,,,0.8118,,,,,,,,,,,,,,,,,,,,,,60da905f8fa5374e57b4ad71,60e57f8a3d2776f571787c24,2021-07-07_12h20.35.835,Simcolourproject_2stim_asymm_v5,2020.2.10,Win32,60,60e52e7cfedb1dae636df45f,,,,,,,,,2732,-45,-79,1,0,0,response5disk,,3,-3,-8,1,0,0,rectangle,-3,-8,1,0,0,,,,,,,-3,-8,1,0,0,,0,64,64,19,1,
,,,,,,,,,,,,,FF,,,,,,,,2.257,,,,,,,,,,,,,,,,,,,,,,60da905f8fa5374e57b4ad71,60e57f8a3d2776f571787c24,2021-07-07_12h20.35.835,Simcolourproject_2stim_asymm_v5,2020.2.10,Win32,60,60e52e7cfedb1dae636df45f,,,,,,,,,406,89,52,1,0,0,response1disk,,6,-9,12,1,0,0,rectangle,-9,12,1,0,0,,,,,,,-9,12,1,0,0,,0,65,65,27,1,
,,,,,,,,,,,,,FF,,,,,,,,0.7846,,,,,,,,,,,,,,,,,,,,,,60da905f8fa5374e57b4ad71,60e57f8a3d2776f571787c24,2021-07-07_12h20.35.835,Simcolourproject_2stim_asymm_v5,2020.2.10,Win32,60,60e52e7cfedb1dae636df45f,,,,,,,,,4011,54,94,1,0,0,response1disk,,7,-3,9,1,0,0,rectangle,-3,9,1,0,0,,,,,,,-3,9,1,0,0,,0,66,66,57,1,
,,,,,,,,,,,,,FF,,,,,,,,1.3058,,,,,,,,,,,,,,,,,,,,,,60da905f8fa5374e57b4ad71,60e57f8a3d2776f571787c24,2021-07-07_12h20.35.835,Simcolourproject_2stim_asymm_v5,2020.2.10,Win32,60,60e52e7cfedb1dae636df45f,,,,,,,,,3115,64,-92,1,0,0,response3disk,,4,32,2,1,0,0,rectangle,32,2,1,0,0,,,,,,,32,2,1,0,0,,0,67,67,84,1,
,,,,,,,,,,,,,FF,,,,,,,,1.3264,,,,,,,,,,,,,,,,,,,,,,60da905f8fa5374e57b4ad71,60e57f8a3d2776f571787c24,2021-07-07_12h20.35.835,Simcolourproject_2stim_asymm_v5,2020.2.10,Win32,60,60e52e7cfedb1dae636df45f,,,,,,,,,2275,85,-58,1,0,0,response3disk,,5,-16,-3,1,0,0,rectangle,-16,-3,1,0,0,,,,,,,-16,-3,1,0,0,,0,68,68,77,1,
,,,,,,,,,,,,,FF,,,,,,,,1.4373,,,,,,,,,,,,,,,,,,,,,,60da905f8fa5374e57b4ad71,60e57f8a3d2776f571787c24,2021-07-07_12h20.35.835,Simcolourproject_2stim_asymm_v5,2020.2.10,Win32,60,60e52e7cfedb1dae636df45f,,,,,,,,,20,92,32,1,0,0,response1disk,,6,18,0,1,0,0,rectangle,18,0,1,0,0,,,,,,,18,0,1,0,0,,0,69,69,93,1,
,,,,,,,,,,,,,FF,,,,,,,,1.1946,,,,,,,,,,,,,,,,,,,,,,60da905f8fa5374e57b4ad71,60e57f8a3d2776f571787c24,2021-07-07_12h20.35.835,Simcolourproject_2stim_asymm_v5,2020.2.10,Win32,60,60e52e7cfedb1dae636df45f,,,,,,,,,1798,101,44,1,0,0,response1disk,,6,14,2,1,0,0,rectangle,14,2,1,0,0,,,,,,,14,2,1,0,0,,0,70,70,112,1,
,,,,,,,,,,,,,FF,,,,,,,,0.854,,,,,,,,,,,,,,,,,,,,,,60da905f8fa5374e57b4ad71,60e57f8a3d2776f571787c24,2021-07-07_12h20.35.835,Simcolourproject_2stim_asymm_v5,2020.2.10,Win32,60,60e52e7cfedb1dae636df45f,,,,,,,,,967,36,86,1,0,0,response1disk,,7,4,6,1,0,0,rectangle,4,6,1,0,0,,,,,,,4,6,1,0,0,,0,71,71,16,1,
,,,,,,,,,,,,,FF,,,,,,,,1.493,,,,,,,,,,,,,,,,,,,,,,60da905f8fa5374e57b4ad71,60e57f8a3d2776f571787c24,2021-07-07_12h20.35.835,Simcolourproject_2stim_asymm_v5,2020.2.10,Win32,60,60e52e7cfedb1dae636df45f,,,,,,,,,2855,50,-88,1,0,0,response3disk,,4,-5,0,1,0,0,rectangle,-5,0,1,0,0,,,,,,,-5,0,1,0,0,,0,72,72,52,1,
,,,,,,,,,,,,,FF,,,,,,,,1.3057,,,,,,,,,,,,,,,,,,,,,,60da905f8fa5374e57b4ad71,60e57f8a3d2776f571787c24,2021-07-07_12h20.35.835,Simcolourproject_2stim_asymm_v5,2020.2.10,Win32,60,60e52e7cfedb1dae636df45f,,,,,,,,,280,-71,-97,1,0,0,response5disk,,3,-11,-5,1,0,0,rectangle,-54,-98,1,0,0,response5disk_3,TRUE,3,3,"[138,46,254,284,241,254,282,119,274,157,24,258,137,74,15,183,60,220,104,1]",1.4178,-2,-8,1,0,0,rectangle,0,73,73,135,1,
,,,,,,,,,,,,,FF,,,,,,,,2.0207,,,,,,,,,,,,,,,,,,,,,,60da905f8fa5374e57b4ad71,60e57f8a3d2776f571787c24,2021-07-07_12h20.35.835,Simcolourproject_2stim_asymm_v5,2020.2.10,Win32,60,60e52e7cfedb1dae636df45f,,,,,,,,,506,60,107,1,0,0,response1disk,,7,8,3,1,0,0,rectangle,8,3,1,0,0,,,,,,,8,3,1,0,0,,0,74,74,76,1,
,,,,,,,,,,,,,FF,,,,,,,,0.8194,,,,,,,,,,,,,,,,,,,,,,60da905f8fa5374e57b4ad71,60e57f8a3d2776f571787c24,2021-07-07_12h20.35.835,Simcolourproject_2stim_asymm_v5,2020.2.10,Win32,60,60e52e7cfedb1dae636df45f,,,,,,,,,2724,-122,-57,1,0,0,response5disk,,2,10,3,1,0,0,rectangle,10,3,1,0,0,,,,,,,10,3,1,0,0,,0,75,75,11,1,
,,,,,,,,,,,,,FF,,,,,,,,1.3399,,,,,,,,,,,,,,,,,,,,,,60da905f8fa5374e57b4ad71,60e57f8a3d2776f571787c24,2021-07-07_12h20.35.835,Simcolourproject_2stim_asymm_v5,2020.2.10,Win32,60,60e52e7cfedb1dae636df45f,,,,,,,,,2967,50,78,1,0,0,response1disk,,7,-1,8,1,0,0,rectangle,-1,8,1,0,0,,,,,,,-1,8,1,0,0,,0,76,76,119,1,
,,,,,,,,,,,,,FF,,,,,,,,1.3145,,,,,,,,,,,,,,,,,,,,,,60da905f8fa5374e57b4ad71,60e57f8a3d2776f571787c24,2021-07-07_12h20.35.835,Simcolourproject_2stim_asymm_v5,2020.2.10,Win32,60,60e52e7cfedb1dae636df45f,,,,,,,,,1945,80,49,1,0,0,response1disk,,6,-14,-8,1,0,0,rectangle,-14,-8,1,0,0,,,,,,,-14,-8,1,0,0,,0,77,77,85,1,
,,,,,,,,,,,,,FF,,,,,,,,3.2988,,,,,,,,,,,,,,,,,,,,,,60da905f8fa5374e57b4ad71,60e57f8a3d2776f571787c24,2021-07-07_12h20.35.835,Simcolourproject_2stim_asymm_v5,2020.2.10,Win32,60,60e52e7cfedb1dae636df45f,,,,,,,,,727,50,-101,1,0,0,response3disk,,4,-19,2,1,0,0,rectangle,-19,2,1,0,0,,,,,,,-19,2,1,0,0,,0,78,78,97,1,
,,,,,,,,,,,,,FF,,,,,,,,1.4789,,,,,,,,,,,,,,,,,,,,,,60da905f8fa5374e57b4ad71,60e57f8a3d2776f571787c24,2021-07-07_12h20.35.835,Simcolourproject_2stim_asymm_v5,2020.2.10,Win32,60,60e52e7cfedb1dae636df45f,,,,,,,,,652,80,-50,1,0,0,response3disk,,5,-18,-5,1,0,0,rectangle,-18,-5,1,0,0,,,,,,,-18,-5,1,0,0,,0,79,79,94,1,
,,,,,,,,,,,,,FF,,,,,,,,1.2084,,,,,,,,,,,,,,,,,,,,,,60da905f8fa5374e57b4ad71,60e57f8a3d2776f571787c24,2021-07-07_12h20.35.835,Simcolourproject_2stim_asymm_v5,2020.2.10,Win32,60,60e52e7cfedb1dae636df45f,,,,,,,,,2393,80,64,1,0,0,response1disk,,6,4,2,1,0,0,rectangle,4,2,1,0,0,,,,,,,4,2,1,0,0,,0,80,80,158,1,
,,,,,,,,,,,,,FF,,,,,,,,1.9933,,,,,,,,,,,,,,,,,,,,,,60da905f8fa5374e57b4ad71,60e57f8a3d2776f571787c24,2021-07-07_12h20.35.835,Simcolourproject_2stim_asymm_v5,2020.2.10,Win32,60,60e52e7cfedb1dae636df45f,,,,,,,,,3227,45,83,1,0,0,response1disk,,7,-26,-15,1,0,0,rectangle,-26,-15,1,0,0,,,,,,,-26,-15,1,0,0,,0,81,81,58,1,
,,,,,,,,,,,,,FF,,,,,,,,1.1667,,,,,,,,,,,,,,,,,,,,,,60da905f8fa5374e57b4ad71,60e57f8a3d2776f571787c24,2021-07-07_12h20.35.835,Simcolourproject_2stim_asymm_v5,2020.2.10,Win32,60,60e52e7cfedb1dae636df45f,,,,,,,,,3757,-52,-108,1,0,0,response5disk,,3,-5,-5,1,0,0,rectangle,-5,-5,1,0,0,,,,,,,-5,-5,1,0,0,,0,82,82,78,1,
,,,,,,,,,,,,,FF,,,,,,,,0.9304,,,,,,,,,,,,,,,,,,,,,,60da905f8fa5374e57b4ad71,60e57f8a3d2776f571787c24,2021-07-07_12h20.35.835,Simcolourproject_2stim_asymm_v5,2020.2.10,Win32,60,60e52e7cfedb1dae636df45f,,,,,,,,,4353,-126,-35,1,0,0,response5disk,,2,-24,17,1,0,0,rectangle,-24,17,1,0,0,,,,,,,-24,17,1,0,0,,0,83,83,133,1,
,,,,,,,,,,,,,FF,,,,,,,,0.8328,,,,,,,,,,,,,,,,,,,,,,60da905f8fa5374e57b4ad71,60e57f8a3d2776f571787c24,2021-07-07_12h20.35.835,Simcolourproject_2stim_asymm_v5,2020.2.10,Win32,60,60e52e7cfedb1dae636df45f,,,,,,,,,2861,106,-45,1,0,0,response3disk,,5,29,14,1,0,0,rectangle,29,14,1,0,0,,,,,,,29,14,1,0,0,,0,84,84,63,1,
,,,,,,,,,,,,,FF,,,,,,,,1.6667,,,,,,,,,,,,,,,,,,,,,,60da905f8fa5374e57b4ad71,60e57f8a3d2776f571787c24,2021-07-07_12h20.35.835,Simcolourproject_2stim_asymm_v5,2020.2.10,Win32,60,60e52e7cfedb1dae636df45f,,,,,,,,,1765,48,-88,1,0,0,response3disk,,4,15,7,1,0,0,rectangle,15,7,1,0,0,,,,,,,15,7,1,0,0,,0,85,85,116,1,
,,,,,,,,,,,,,FF,,,,,,,,2.0205,,,,,,,,,,,,,,,,,,,,,,60da905f8fa5374e57b4ad71,60e57f8a3d2776f571787c24,2021-07-07_12h20.35.835,Simcolourproject_2stim_asymm_v5,2020.2.10,Win32,60,60e52e7cfedb1dae636df45f,,,,,,,,,1995,76,53,1,0,0,response1disk,,6,-15,-1,1,0,0,rectangle,-15,-1,1,0,0,,,,,,,-15,-1,1,0,0,,0,86,86,153,1,
,,,,,,,,,,,,,FF,,,,,,,,0.9929,,,,,,,,,,,,,,,,,,,,,,60da905f8fa5374e57b4ad71,60e57f8a3d2776f571787c24,2021-07-07_12h20.35.835,Simcolourproject_2stim_asymm_v5,2020.2.10,Win32,60,60e52e7cfedb1dae636df45f,,,,,,,,,202,46,100,1,0,0,response1disk,,7,0,-7,1,0,0,rectangle,0,-7,1,0,0,,,,,,,0,-7,1,0,0,,0,87,87,144,1,
,,,,,,,,,,,,,FF,,,,,,,,1.4308,,,,,,,,,,,,,,,,,,,,,,60da905f8fa5374e57b4ad71,60e57f8a3d2776f571787c24,2021-07-07_12h20.35.835,Simcolourproject_2stim_asymm_v5,2020.2.10,Win32,60,60e52e7cfedb1dae636df45f,,,,,,,,,3741,-120,57,1,0,0,response7disk,,1,5,-1,1,0,0,rectangle,5,-1,1,0,0,,,,,,,5,-1,1,0,0,,0,88,88,15,1,
,,,,,,,,,,,,,FF,,,,,,,,1.8821,,,,,,,,,,,,,,,,,,,,,,60da905f8fa5374e57b4ad71,60e57f8a3d2776f571787c24,2021-07-07_12h20.35.835,Simcolourproject_2stim_asymm_v5,2020.2.10,Win32,60,60e52e7cfedb1dae636df45f,,,,,,,,,2185,108,51,1,0,0,response1disk,,6,27,-18,1,0,0,rectangle,27,-18,1,0,0,,,,,,,27,-18,1,0,0,,0,89,89,46,1,
,,,,,,,,,,,,,FF,,,,,,,,0.9305,,,,,,,,,,,,,,,,,,,,,,60da905f8fa5374e57b4ad71,60e57f8a3d2776f571787c24,2021-07-07_12h20.35.835,Simcolourproject_2stim_asymm_v5,2020.2.10,Win32,60,60e52e7cfedb1dae636df45f,,,,,,,,,4143,-109,-41,1,0,0,response5disk,,2,37,13,1,0,0,rectangle,37,13,1,0,0,,,,,,,37,13,1,0,0,,0,90,90,87,1,
,,,,,,,,,,,,,FF,,,,,,,,1.0486,,,,,,,,,,,,,,,,,,,,,,60da905f8fa5374e57b4ad71,60e57f8a3d2776f571787c24,2021-07-07_12h20.35.835,Simcolourproject_2stim_asymm_v5,2020.2.10,Win32,60,60e52e7cfedb1dae636df45f,,,,,,,,,148,51,-98,1,0,0,response3disk,,4,0,0,1,0,0,rectangle,0,0,1,0,0,,,,,,,0,0,1,0,0,,0,91,91,44,1,
,,,,,,,,,,,,,FF,,,,,,,,0.8194,,,,,,,,,,,,,,,,,,,,,,60da905f8fa5374e57b4ad71,60e57f8a3d2776f571787c24,2021-07-07_12h20.35.835,Simcolourproject_2stim_asymm_v5,2020.2.10,Win32,60,60e52e7cfedb1dae636df45f,,,,,,,,,2952,-76,-98,1,0,0,response5disk,,3,-26,-10,1,0,0,rectangle,-26,-10,1,0,0,,,,,,,-26,-10,1,0,0,,0,92,92,137,1,
,,,,,,,,,,,,,FF,,,,,,,,1.0066,,,,,,,,,,,,,,,,,,,,,,60da905f8fa5374e57b4ad71,60e57f8a3d2776f571787c24,2021-07-07_12h20.35.835,Simcolourproject_2stim_asymm_v5,2020.2.10,Win32,60,60e52e7cfedb1dae636df45f,,,,,,,,,4184,49,-65,1,0,0,response3disk,,4,26,-6,1,0,0,rectangle,26,-6,1,0,0,,,,,,,26,-6,1,0,0,,0,93,93,146,1,
,,,,,,,,,,,,,FF,,,,,,,,0.7988,,,,,,,,,,,,,,,,,,,,,,60da905f8fa5374e57b4ad71,60e57f8a3d2776f571787c24,2021-07-07_12h20.35.835,Simcolourproject_2stim_asymm_v5,2020.2.10,Win32,60,60e52e7cfedb1dae636df45f,,,,,,,,,1896,-103,-38,1,0,0,response5disk,,2,-3,-3,1,0,0,rectangle,-3,-3,1,0,0,,,,,,,-3,-3,1,0,0,,0,94,94,149,1,
,,,,,,,,,,,,,FF,,,,,,,,1.0764,,,,,,,,,,,,,,,,,,,,,,60da905f8fa5374e57b4ad71,60e57f8a3d2776f571787c24,2021-07-07_12h20.35.835,Simcolourproject_2stim_asymm_v5,2020.2.10,Win32,60,60e52e7cfedb1dae636df45f,,,,,,,,,2153,101,-43,1,0,0,response3disk,,5,27,0,1,0,0,rectangle,27,0,1,0,0,,,,,,,27,0,1,0,0,,0,95,95,20,1,
,,,,,,,,,,,,,FF,,,,,,,,2.1249,,,,,,,,,,,,,,,,,,,,,,60da905f8fa5374e57b4ad71,60e57f8a3d2776f571787c24,2021-07-07_12h20.35.835,Simcolourproject_2stim_asymm_v5,2020.2.10,Win32,60,60e52e7cfedb1dae636df45f,,,,,,,,,2313,103,64,1,0,0,response1disk,,6,-7,-4,1,0,0,rectangle,-7,-4,1,0,0,,,,,,,-7,-4,1,0,0,,0,96,96,148,1,
,,,,,,,,,,,,,FF,,,,,,,,1.3541,,,,,,,,,,,,,,,,,,,,,,60da905f8fa5374e57b4ad71,60e57f8a3d2776f571787c24,2021-07-07_12h20.35.835,Simcolourproject_2stim_asymm_v5,2020.2.10,Win32,60,60e52e7cfedb1dae636df45f,,,,,,,,,3972,-125,-33,1,0,0,response5disk,,2,0,9,1,0,0,rectangle,0,9,1,0,0,,,,,,,0,9,1,0,0,,0,97,97,73,1,
,,,,,,,,,,,,,FF,,,,,,,,1.1181,,,,,,,,,,,,,,,,,,,,,,60da905f8fa5374e57b4ad71,60e57f8a3d2776f571787c24,2021-07-07_12h20.35.835,Simcolourproject_2stim_asymm_v5,2020.2.10,Win32,60,60e52e7cfedb1dae636df45f,,,,,,,,,3549,89,50,1,0,0,response1disk,,6,8,-16,1,0,0,rectangle,8,-16,1,0,0,,,,,,,8,-16,1,0,0,,0,98,98,39,1,
,,,,,,,,,,,,,FF,,,,,,,,1.3406,,,,,,,,,,,,,,,,,,,,,,60da905f8fa5374e57b4ad71,60e57f8a3d2776f571787c24,2021-07-07_12h20.35.835,Simcolourproject_2stim_asymm_v5,2020.2.10,Win32,60,60e52e7cfedb1dae636df45f,,,,,,,,,4003,35,-102,1,0,0,response3disk,,4,-29,-4,1,0,0,rectangle,-29,-4,1,0,0,,,,,,,-29,-4,1,0,0,,0,99,99,71,1,
,,,,,,,,,,,,,FF,,,,,,,,1.9721,,,,,,,,,,,,,,,,,,,,,,60da905f8fa5374e57b4ad71,60e57f8a3d2776f571787c24,2021-07-07_12h20.35.835,Simcolourproject_2stim_asymm_v5,2020.2.10,Win32,60,60e52e7cfedb1dae636df45f,,,,,,,,,2475,53,109,1,0,0,response1disk,,7,0,2,1,0,0,rectangle,0,2,1,0,0,,,,,,,0,2,1,0,0,,0,100,100,123,1,
,,,,,,,,,,,,,FF,,,,,,,,1.3474,,,,,,,,,,,,,,,,,,,,,,60da905f8fa5374e57b4ad71,60e57f8a3d2776f571787c24,2021-07-07_12h20.35.835,Simcolourproject_2stim_asymm_v5,2020.2.10,Win32,60,60e52e7cfedb1dae636df45f,,,,,,,,,56,107,-43,1,0,0,response3disk,,5,18,1,1,0,0,rectangle,18,1,1,0,0,,,,,,,18,1,1,0,0,,0,101,101,109,1,
,,,,,,,,,,,,,FF,,,,,,,,2.2222,,,,,,,,,,,,,,,,,,,,,,60da905f8fa5374e57b4ad71,60e57f8a3d2776f571787c24,2021-07-07_12h20.35.835,Simcolourproject_2stim_asymm_v5,2020.2.10,Win32,60,60e52e7cfedb1dae636df45f,,,,,,,,,829,109,42,1,0,0,response1disk,,6,-10,-9,1,0,0,rectangle,-10,-9,1,0,0,,,,,,,-10,-9,1,0,0,,0,102,102,145,1,
,,,,,,,,,,,,,FF,,,,,,,,0.8125,,,,,,,,,,,,,,,,,,,,,,60da905f8fa5374e57b4ad71,60e57f8a3d2776f571787c24,2021-07-07_12h20.35.835,Simcolourproject_2stim_asymm_v5,2020.2.10,Win32,60,60e52e7cfedb1dae636df45f,,,,,,,,,444,-95,-47,1,0,0,response5disk,,2,10,-7,1,0,0,rectangle,-119,-56,1,0,0,response5disk_3,TRUE,2,2,"[138,46,254,284,241,254,282,119,274,157,24,258,137,74,15,183,60,220,104,1]",1.1391,18,3,1,0,0,rectangle,0,103,103,67,1,
,,,,,,,,,,,,,FF,,,,,,,,1.1528,,,,,,,,,,,,,,,,,,,,,,60da905f8fa5374e57b4ad71,60e57f8a3d2776f571787c24,2021-07-07_12h20.35.835,Simcolourproject_2stim_asymm_v5,2020.2.10,Win32,60,60e52e7cfedb1dae636df45f,,,,,,,,,807,-114,-42,1,0,0,response5disk,,2,-4,-6,1,0,0,rectangle,-4,-6,1,0,0,,,,,,,-4,-6,1,0,0,,0,104,104,43,1,
,,,,,,,,,,,,,FF,,,,,,,,0.8054,,,,,,,,,,,,,,,,,,,,,,60da905f8fa5374e57b4ad71,60e57f8a3d2776f571787c24,2021-07-07_12h20.35.835,Simcolourproject_2stim_asymm_v5,2020.2.10,Win32,60,60e52e7cfedb1dae636df45f,,,,,,,,,709,46,-83,1,0,0,response3disk,,4,-2,-17,1,0,0,rectangle,-2,-17,1,0,0,,,,,,,-2,-17,1,0,0,,0,105,105,105,1,
,,,,,,,,,,,,,FF,,,,,,,,0.8128,,,,,,,,,,,,,,,,,,,,,,60da905f8fa5374e57b4ad71,60e57f8a3d2776f571787c24,2021-07-07_12h20.35.835,Simcolourproject_2stim_asymm_v5,2020.2.10,Win32,60,60e52e7cfedb1dae636df45f,,,,,,,,,3126,40,105,1,0,0,response1disk,,7,0,7,1,0,0,rectangle,0,7,1,0,0,,,,,,,0,7,1,0,0,,0,106,106,33,1,
,,,,,,,,,,,,,FF,,,,,,,,0.6039,,,,,,,,,,,,,,,,,,,,,,60da905f8fa5374e57b4ad71,60e57f8a3d2776f571787c24,2021-07-07_12h20.35.835,Simcolourproject_2stim_asymm_v5,2020.2.10,Win32,60,60e52e7cfedb1dae636df45f,,,,,,,,,1981,48,91,1,0,0,response1disk,,7,2,9,1,0,0,rectangle,2,9,1,0,0,,,,,,,2,9,1,0,0,,0,107,107,40,1,
,,,,,,,,,,,,,FF,,,,,,,,0.9517,,,,,,,,,,,,,,,,,,,,,,60da905f8fa5374e57b4ad71,60e57f8a3d2776f571787c24,2021-07-07_12h20.35.835,Simcolourproject_2stim_asymm_v5,2020.2.10,Win32,60,60e52e7cfedb1dae636df45f,,,,,,,,,1379,46,-115,1,0,0,response3disk,,4,-8,-11,1,0,0,rectangle,-8,-11,1,0,0,,,,,,,-8,-11,1,0,0,,0,108,108,12,1,
,,,,,,,,,,,,,FF,,,,,,,,0.903,,,,,,,,,,,,,,,,,,,,,,60da905f8fa5374e57b4ad71,60e57f8a3d2776f571787c24,2021-07-07_12h20.35.835,Simcolourproject_2stim_asymm_v5,2020.2.10,Win32,60,60e52e7cfedb1dae636df45f,,,,,,,,,1066,83,-37,1,0,0,response3disk,,5,-1,-10,1,0,0,rectangle,-1,-10,1,0,0,,,,,,,-1,-10,1,0,0,,0,109,109,23,1,
,,,,,,,,,,,,,FF,,,,,,,,1.1112,,,,,,,,,,,,,,,,,,,,,,60da905f8fa5374e57b4ad71,60e57f8a3d2776f571787c24,2021-07-07_12h20.35.835,Simcolourproject_2stim_asymm_v5,2020.2.10,Win32,60,60e52e7cfedb1dae636df45f,,,,,,,,,3630,-65,102,1,0,0,response7disk,,0,-8,14,1,0,0,rectangle,-8,14,1,0,0,,,,,,,-8,14,1,0,0,,0,110,110,103,1,
,,,,,,,,,,,,,FF,,,,,,,,3.3475,,,,,,,,,,,,,,,,,,,,,,60da905f8fa5374e57b4ad71,60e57f8a3d2776f571787c24,2021-07-07_12h20.35.835,Simcolourproject_2stim_asymm_v5,2020.2.10,Win32,60,60e52e7cfedb1dae636df45f,,,,,,,,,568,108,44,1,0,0,response1disk,,6,6,-16,1,0,0,rectangle,6,-16,1,0,0,,,,,,,6,-16,1,0,0,,0,111,111,31,1,
,,,,,,,,,,,,,FF,,,,,,,,0.7708,,,,,,,,,,,,,,,,,,,,,,60da905f8fa5374e57b4ad71,60e57f8a3d2776f571787c24,2021-07-07_12h20.35.835,Simcolourproject_2stim_asymm_v5,2020.2.10,Win32,60,60e52e7cfedb1dae636df45f,,,,,,,,,3334,48,112,1,0,0,response1disk,,7,-19,6,1,0,0,rectangle,-19,6,1,0,0,,,,,,,-19,6,1,0,0,,0,112,112,14,1,
,,,,,,,,,,,,,FF,,,,,,,,0.7151,,,,,,,,,,,,,,,,,,,,,,60da905f8fa5374e57b4ad71,60e57f8a3d2776f571787c24,2021-07-07_12h20.35.835,Simcolourproject_2stim_asymm_v5,2020.2.10,Win32,60,60e52e7cfedb1dae636df45f,,,,,,,,,290,43,103,1,0,0,response1disk,,7,5,16,1,0,0,rectangle,5,16,1,0,0,,,,,,,5,16,1,0,0,,0,113,113,118,1,
,,,,,,,,,,,,,FF,,,,,,,,1.1597,,,,,,,,,,,,,,,,,,,,,,60da905f8fa5374e57b4ad71,60e57f8a3d2776f571787c24,2021-07-07_12h20.35.835,Simcolourproject_2stim_asymm_v5,2020.2.10,Win32,60,60e52e7cfedb1dae636df45f,,,,,,,,,2667,-47,-100,1,0,0,response5disk,,3,12,2,1,0,0,rectangle,12,2,1,0,0,,,,,,,12,2,1,0,0,,0,114,114,24,1,
,,,,,,,,,,,,,FF,,,,,,,,1.9169,,,,,,,,,,,,,,,,,,,,,,60da905f8fa5374e57b4ad71,60e57f8a3d2776f571787c24,2021-07-07_12h20.35.835,Simcolourproject_2stim_asymm_v5,2020.2.10,Win32,60,60e52e7cfedb1dae636df45f,,,,,,,,,213,50,89,1,0,0,response1disk,,7,9,-4,1,0,0,rectangle,9,-4,1,0,0,,,,,,,9,-4,1,0,0,,0,115,115,4,1,
,,,,,,,,,,,,,FF,,,,,,,,1.7639,,,,,,,,,,,,,,,,,,,,,,60da905f8fa5374e57b4ad71,60e57f8a3d2776f571787c24,2021-07-07_12h20.35.835,Simcolourproject_2stim_asymm_v5,2020.2.10,Win32,60,60e52e7cfedb1dae636df45f,,,,,,,,,684,106,40,1,0,0,response1disk,,6,13,-15,1,0,0,rectangle,13,-15,1,0,0,,,,,,,13,-15,1,0,0,,0,116,116,48,1,
,,,,,,,,,,,,,FF,,,,,,,,1.0211,,,,,,,,,,,,,,,,,,,,,,60da905f8fa5374e57b4ad71,60e57f8a3d2776f571787c24,2021-07-07_12h20.35.835,Simcolourproject_2stim_asymm_v5,2020.2.10,Win32,60,60e52e7cfedb1dae636df45f,,,,,,,,,4129,-58,-118,1,0,0,response5disk,,3,-11,-8,1,0,0,rectangle,-11,-8,1,0,0,,,,,,,-11,-8,1,0,0,,0,117,117,91,1,
,,,,,,,,,,,,,FF,,,,,,,,1.2573,,,,,,,,,,,,,,,,,,,,,,60da905f8fa5374e57b4ad71,60e57f8a3d2776f571787c24,2021-07-07_12h20.35.835,Simcolourproject_2stim_asymm_v5,2020.2.10,Win32,60,60e52e7cfedb1dae636df45f,,,,,,,,,3711,-54,-118,1,0,0,response5disk,,3,3,1,1,0,0,rectangle,-103,-63,1,0,0,response5disk_3,TRUE,2,2,"[138,46,254,284,241,254,282,119,274,157,24,258,137,74,15,183,60,220,104,1]",1.2638,20,-5,1,0,0,rectangle,0,118,118,17,1,
,,,,,,,,,,,,,FF,,,,,,,,1.5626,,,,,,,,,,,,,,,,,,,,,,60da905f8fa5374e57b4ad71,60e57f8a3d2776f571787c24,2021-07-07_12h20.35.835,Simcolourproject_2stim_asymm_v5,2020.2.10,Win32,60,60e52e7cfedb1dae636df45f,,,,,,,,,15,31,-103,1,0,0,response3disk,,4,-9,-11,1,0,0,rectangle,-9,-11,1,0,0,,,,,,,-9,-11,1,0,0,,0,119,119,50,1,
,,,,,,,,,,,,,FF,,,,,,,,0.8121,,,,,,,,,,,,,,,,,,,,,,60da905f8fa5374e57b4ad71,60e57f8a3d2776f571787c24,2021-07-07_12h20.35.835,Simcolourproject_2stim_asymm_v5,2020.2.10,Win32,60,60e52e7cfedb1dae636df45f,,,,,,,,,2508,46,77,1,0,0,response1disk,,7,-7,3,1,0,0,rectangle,-7,3,1,0,0,,,,,,,-7,3,1,0,0,,0,120,120,1,1,
,,,,,,,,,,,,,FF,,,,,,,,1.0067,,,,,,,,,,,,,,,,,,,,,,60da905f8fa5374e57b4ad71,60e57f8a3d2776f571787c24,2021-07-07_12h20.35.835,Simcolourproject_2stim_asymm_v5,2020.2.10,Win32,60,60e52e7cfedb1dae636df45f,,,,,,,,,3440,-36,-104,1,0,0,response5disk,,3,15,-9,1,0,0,rectangle,15,-9,1,0,0,,,,,,,15,-9,1,0,0,,0,121,121,156,1,
,,,,,,,,,,,,,FF,,,,,,,,3.5905,,,,,,,,,,,,,,,,,,,,,,60da905f8fa5374e57b4ad71,60e57f8a3d2776f571787c24,2021-07-07_12h20.35.835,Simcolourproject_2stim_asymm_v5,2020.2.10,Win32,60,60e52e7cfedb1dae636df45f,,,,,,,,,1458,-104,-52,1,0,0,response5disk,,2,-9,3,1,0,0,rectangle,-9,3,1,0,0,,,,,,,-9,3,1,0,0,,0,122,122,75,1,
,,,,,,,,,,,,,FF,,,,,,,,0.9997,,,,,,,,,,,,,,,,,,,,,,60da905f8fa5374e57b4ad71,60e57f8a3d2776f571787c24,2021-07-07_12h20.35.835,Simcolourproject_2stim_asymm_v5,2020.2.10,Win32,60,60e52e7cfedb1dae636df45f,,,,,,,,,1244,73,-51,1,0,0,response3disk,,5,-6,-5,1,0,0,rectangle,-6,-5,1,0,0,,,,,,,-6,-5,1,0,0,,0,123,123,22,1,
,,,,,,,,,,,,,FF,,,,,,,,1.0764,,,,,,,,,,,,,,,,,,,,,,60da905f8fa5374e57b4ad71,60e57f8a3d2776f571787c24,2021-07-07_12h20.35.835,Simcolourproject_2stim_asymm_v5,2020.2.10,Win32,60,60e52e7cfedb1dae636df45f,,,,,,,,,2931,46,94,1,0,0,response1disk,,7,-19,2,1,0,0,rectangle,-19,2,1,0,0,,,,,,,-19,2,1,0,0,,0,124,124,10,1,
,,,,,,,,,,,,,FF,,,,,,,,0.7777,,,,,,,,,,,,,,,,,,,,,,60da905f8fa5374e57b4ad71,60e57f8a3d2776f571787c24,2021-07-07_12h20.35.835,Simcolourproject_2stim_asymm_v5,2020.2.10,Win32,60,60e52e7cfedb1dae636df45f,,,,,,,,,2631,40,113,1,0,0,response1disk,,7,-13,3,1,0,0,rectangle,-13,3,1,0,0,,,,,,,-13,3,1,0,0,,0,125,125,110,1,
,,,,,,,,,,,,,FF,,,,,,,,2.7711,,,,,,,,,,,,,,,,,,,,,,60da905f8fa5374e57b4ad71,60e57f8a3d2776f571787c24,2021-07-07_12h20.35.835,Simcolourproject_2stim_asymm_v5,2020.2.10,Win32,60,60e52e7cfedb1dae636df45f,,,,,,,,,1182,86,46,1,0,0,response1disk,,6,8,-2,1,0,0,rectangle,8,-2,1,0,0,,,,,,,8,-2,1,0,0,,0,126,126,21,1,
,,,,,,,,,,,,,FF,,,,,,,,1.0204,,,,,,,,,,,,,,,,,,,,,,60da905f8fa5374e57b4ad71,60e57f8a3d2776f571787c24,2021-07-07_12h20.35.835,Simcolourproject_2stim_asymm_v5,2020.2.10,Win32,60,60e52e7cfedb1dae636df45f,,,,,,,,,1028,57,-89,1,0,0,response3disk,,4,-2,-12,1,0,0,rectangle,-2,-12,1,0,0,,,,,,,-2,-12,1,0,0,,0,127,127,64,1,
,,,,,,,,,,,,,FF,,,,,,,,1.4722,,,,,,,,,,,,,,,,,,,,,,60da905f8fa5374e57b4ad71,60e57f8a3d2776f571787c24,2021-07-07_12h20.35.835,Simcolourproject_2stim_asymm_v5,2020.2.10,Win32,60,60e52e7cfedb1dae636df45f,,,,,,,,,2520,89,-44,1,0,0,response3disk,,5,-16,-1,1,0,0,rectangle,-16,-1,1,0,0,,,,,,,-16,-1,1,0,0,,0,128,128,152,1,
,,,,,,,,,,,,,FF,,,,,,,,1.4377,,,,,,,,,,,,,,,,,,,,,,60da905f8fa5374e57b4ad71,60e57f8a3d2776f571787c24,2021-07-07_12h20.35.835,Simcolourproject_2stim_asymm_v5,2020.2.10,Win32,60,60e52e7cfedb1dae636df45f,,,,,,,,,471,56,101,1,0,0,response1disk,,7,4,7,1,0,0,rectangle,4,7,1,0,0,,,,,,,4,7,1,0,0,,0,129,129,100,1,
,,,,,,,,,,,,,FF,,,,,,,,2.2509,,,,,,,,,,,,,,,,,,,,,,60da905f8fa5374e57b4ad71,60e57f8a3d2776f571787c24,2021-07-07_12h20.35.835,Simcolourproject_2stim_asymm_v5,2020.2.10,Win32,60,60e52e7cfedb1dae636df45f,,,,,,,,,2969,97,63,1,0,0,response1disk,,6,-6,8,1,0,0,rectangle,-6,8,1,0,0,,,,,,,-6,8,1,0,0,,0,130,130,9,1,
,,,,,,,,,,,,,FF,,,,,,,,1.9024,,,,,,,,,,,,,,,,,,,,,,60da905f8fa5374e57b4ad71,60e57f8a3d2776f571787c24,2021-07-07_12h20.35.835,Simcolourproject_2stim_asymm_v5,2020.2.10,Win32,60,60e52e7cfedb1dae636df45f,,,,,,,,,361,51,107,1,0,0,response1disk,,7,-2,5,1,0,0,rectangle,-2,5,1,0,0,,,,,,,-2,5,1,0,0,,0,131,131,69,1,
,,,,,,,,,,,,,FF,,,,,,,,1.0485,,,,,,,,,,,,,,,,,,,,,,60da905f8fa5374e57b4ad71,60e57f8a3d2776f571787c24,2021-07-07_12h20.35.835,Simcolourproject_2stim_asymm_v5,2020.2.10,Win32,60,60e52e7cfedb1dae636df45f,,,,,,,,,1363,58,102,1,0,0,response1disk,,7,-5,-2,1,0,0,rectangle,-5,-2,1,0,0,,,,,,,-5,-2,1,0,0,,0,132,132,74,1,
,,,,,,,,,,,,,FF,,,,,,,,1.2293,,,,,,,,,,,,,,,,,,,,,,60da905f8fa5374e57b4ad71,60e57f8a3d2776f571787c24,2021-07-07_12h20.35.835,Simcolourproject_2stim_asymm_v5,2020.2.10,Win32,60,60e52e7cfedb1dae636df45f,,,,,,,,,4228,52,98,1,0,0,response1disk,,7,10,5,1,0,0,rectangle,10,5,1,0,0,,,,,,,10,5,1,0,0,,0,133,133,51,1,
,,,,,,,,,,,,,FF,,,,,,,,0.8889,,,,,,,,,,,,,,,,,,,,,,60da905f8fa5374e57b4ad71,60e57f8a3d2776f571787c24,2021-07-07_12h20.35.835,Simcolourproject_2stim_asymm_v5,2020.2.10,Win32,60,60e52e7cfedb1dae636df45f,,,,,,,,,2338,46,93,1,0,0,response1disk,,7,2,2,1,0,0,rectangle,2,2,1,0,0,,,,,,,2,2,1,0,0,,0,134,134,0,1,
,,,,,,,,,,,,,FF,,,,,,,,2.3542,,,,,,,,,,,,,,,,,,,,,,60da905f8fa5374e57b4ad71,60e57f8a3d2776f571787c24,2021-07-07_12h20.35.835,Simcolourproject_2stim_asymm_v5,2020.2.10,Win32,60,60e52e7cfedb1dae636df45f,,,,,,,,,1284,48,99,1,0,0,response1disk,,7,-7,17,1,0,0,rectangle,-7,17,1,0,0,,,,,,,-7,17,1,0,0,,0,135,135,81,1,
,,,,,,,,,,,,,FF,,,,,,,,1.7495,,,,,,,,,,,,,,,,,,,,,,60da905f8fa5374e57b4ad71,60e57f8a3d2776f571787c24,2021-07-07_12h20.35.835,Simcolourproject_2stim_asymm_v5,2020.2.10,Win32,60,60e52e7cfedb1dae636df45f,,,,,,,,,2194,105,38,1,0,0,response1disk,,6,28,1,1,0,0,rectangle,-98,-59,1,0,0,response5disk_3,TRUE,2,2,"[138,46,254,284,241,254,282,119,274,157,24,258,137,74,15,183,60,220,104,1]",1.2224,-2,-1,1,0,0,rectangle,0,136,136,36,1,
,,,,,,,,,,,,,FF,,,,,,,,1.8478,,,,,,,,,,,,,,,,,,,,,,60da905f8fa5374e57b4ad71,60e57f8a3d2776f571787c24,2021-07-07_12h20.35.835,Simcolourproject_2stim_asymm_v5,2020.2.10,Win32,60,60e52e7cfedb1dae636df45f,,,,,,,,,1387,-73,-99,1,0,0,response5disk,,3,-11,-16,1,0,0,rectangle,-64,-102,1,0,0,response5disk_3,TRUE,3,3,"[138,46,254,284,241,254,282,119,274,157,24,258,137,74,15,183,60,220,104,1]",1.2149,-7,-1,1,0,0,rectangle,0,137,137,55,1,
,,,,,,,,,,,,,FF,,,,,,,,3.4313,,,,,,,,,,,,,,,,,,,,,,60da905f8fa5374e57b4ad71,60e57f8a3d2776f571787c24,2021-07-07_12h20.35.835,Simcolourproject_2stim_asymm_v5,2020.2.10,Win32,60,60e52e7cfedb1dae636df45f,,,,,,,,,3118,110,-27,1,0,0,response3disk,,5,8,13,1,0,0,rectangle,8,13,1,0,0,,,,,,,8,13,1,0,0,,0,138,138,66,1,
,,,,,,,,,,,,,FF,,,,,,,,1.1386,,,,,,,,,,,,,,,,,,,,,,60da905f8fa5374e57b4ad71,60e57f8a3d2776f571787c24,2021-07-07_12h20.35.835,Simcolourproject_2stim_asymm_v5,2020.2.10,Win32,60,60e52e7cfedb1dae636df45f,,,,,,,,,619,-122,-42,1,0,0,response5disk,,2,-12,1,1,0,0,rectangle,-12,1,1,0,0,,,,,,,-12,1,1,0,0,,0,139,139,28,1,
,,,,,,,,,,,,,FF,,,,,,,,3.1606,,,,,,,,,,,,,,,,,,,,,,60da905f8fa5374e57b4ad71,60e57f8a3d2776f571787c24,2021-07-07_12h20.35.835,Simcolourproject_2stim_asymm_v5,2020.2.10,Win32,60,60e52e7cfedb1dae636df45f,,,,,,,,,3371,117,28,1,0,0,response1disk,,6,9,3,1,0,0,rectangle,9,3,1,0,0,,,,,,,9,3,1,0,0,,0,140,140,79,1,
,,,,,,,,,,,,,FF,,,,,,,,5.937,,,,,,,,,,,,,,,,,,,,,,60da905f8fa5374e57b4ad71,60e57f8a3d2776f571787c24,2021-07-07_12h20.35.835,Simcolourproject_2stim_asymm_v5,2020.2.10,Win32,60,60e52e7cfedb1dae636df45f,,,,,,,,,710,-48,-90,1,0,0,response5disk,,3,-16,9,1,0,0,rectangle,-16,9,1,0,0,,,,,,,-16,9,1,0,0,,0,141,141,108,1,
,,,,,,,,,,,,,FF,,,,,,,,1.9032,,,,,,,,,,,,,,,,,,,,,,60da905f8fa5374e57b4ad71,60e57f8a3d2776f571787c24,2021-07-07_12h20.35.835,Simcolourproject_2stim_asymm_v5,2020.2.10,Win32,60,60e52e7cfedb1dae636df45f,,,,,,,,,1546,108,-45,1,0,0,response3disk,,5,-23,-8,1,0,0,rectangle,-23,-8,1,0,0,,,,,,,-23,-8,1,0,0,,0,142,142,134,1,
,,,,,,,,,,,,,FF,,,,,,,,1.7019,,,,,,,,,,,,,,,,,,,,,,60da905f8fa5374e57b4ad71,60e57f8a3d2776f571787c24,2021-07-07_12h20.35.835,Simcolourproject_2stim_asymm_v5,2020.2.10,Win32,60,60e52e7cfedb1dae636df45f,,,,,,,,,3812,-114,-47,1,0,0,response5disk,,2,-9,-4,1,0,0,rectangle,-9,-4,1,0,0,,,,,,,-9,-4,1,0,0,,0,143,143,89,1,
,,,,,,,,,,,,,FF,,,,,,,,1.5636,,,,,,,,,,,,,,,,,,,,,,60da905f8fa5374e57b4ad71,60e57f8a3d2776f571787c24,2021-07-07_12h20.35.835,Simcolourproject_2stim_asymm_v5,2020.2.10,Win32,60,60e52e7cfedb1dae636df45f,,,,,,,,,4018,97,45,1,0,0,response1disk,,6,-18,-19,1,0,0,rectangle,-18,-19,1,0,0,,,,,,,-18,-19,1,0,0,,0,144,144,68,1,
,,,,,,,,,,,,,FF,,,,,,,,2.0138,,,,,,,,,,,,,,,,,,,,,,60da905f8fa5374e57b4ad71,60e57f8a3d2776f571787c24,2021-07-07_12h20.35.835,Simcolourproject_2stim_asymm_v5,2020.2.10,Win32,60,60e52e7cfedb1dae636df45f,,,,,,,,,3785,-74,-112,1,0,0,response5disk,,3,-18,-8,1,0,0,rectangle,-18,-8,1,0,0,,,,,,,-18,-8,1,0,0,,0,145,145,70,1,
,,,,,,,,,,,,,FF,,,,,,,,1.5421,,,,,,,,,,,,,,,,,,,,,,60da905f8fa5374e57b4ad71,60e57f8a3d2776f571787c24,2021-07-07_12h20.35.835,Simcolourproject_2stim_asymm_v5,2020.2.10,Win32,60,60e52e7cfedb1dae636df45f,,,,,,,,,675,44,-136,1,0,0,response3disk,,4,5,-13,1,0,0,rectangle,5,-13,1,0,0,,,,,,,5,-13,1,0,0,,0,146,146,34,1,
,,,,,,,,,,,,,FF,,,,,,,,0.9105,,,,,,,,,,,,,,,,,,,,,,60da905f8fa5374e57b4ad71,60e57f8a3d2776f571787c24,2021-07-07_12h20.35.835,Simcolourproject_2stim_asymm_v5,2020.2.10,Win32,60,60e52e7cfedb1dae636df45f,,,,,,,,,2515,110,50,1,0,0,response1disk,,6,-11,-4,1,0,0,rectangle,-11,-4,1,0,0,,,,,,,-11,-4,1,0,0,,0,147,147,80,1,
,,,,,,,,,,,,,FF,,,,,,,,1.4509,,,,,,,,,,,,,,,,,,,,,,60da905f8fa5374e57b4ad71,60e57f8a3d2776f571787c24,2021-07-07_12h20.35.835,Simcolourproject_2stim_asymm_v5,2020.2.10,Win32,60,60e52e7cfedb1dae636df45f,,,,,,,,,3946,-46,-110,1,0,0,response5disk,,3,-6,5,1,0,0,rectangle,-6,5,1,0,0,,,,,,,-6,5,1,0,0,,0,148,148,121,1,
,,,,,,,,,,,,,FF,,,,,,,,4.555,,,,,,,,,,,,,,,,,,,,,,60da905f8fa5374e57b4ad71,60e57f8a3d2776f571787c24,2021-07-07_12h20.35.835,Simcolourproject_2stim_asymm_v5,2020.2.10,Win32,60,60e52e7cfedb1dae636df45f,,,,,,,,,2186,130,-75,1,0,0,response3disk,,5,3,-21,1,0,0,rectangle,3,-21,1,0,0,,,,,,,3,-21,1,0,0,,0,149,149,86,1,
,,,,,,,,,,,,,FF,,,,,,,,1.5284,,,,,,,,,,,,,,,,,,,,,,60da905f8fa5374e57b4ad71,60e57f8a3d2776f571787c24,2021-07-07_12h20.35.835,Simcolourproject_2stim_asymm_v5,2020.2.10,Win32,60,60e52e7cfedb1dae636df45f,,,,,,,,,3348,-57,-112,1,0,0,response5disk,,3,-5,-3,1,0,0,rectangle,-5,-3,1,0,0,,,,,,,-5,-3,1,0,0,,0,150,150,32,1,
,,,,,,,,,,,,,FF,,,,,,,,1.0357,,,,,,,,,,,,,,,,,,,,,,60da905f8fa5374e57b4ad71,60e57f8a3d2776f571787c24,2021-07-07_12h20.35.835,Simcolourproject_2stim_asymm_v5,2020.2.10,Win32,60,60e52e7cfedb1dae636df45f,,,,,,,,,1334,100,-55,1,0,0,response3disk,,5,6,-17,1,0,0,rectangle,6,-17,1,0,0,,,,,,,6,-17,1,0,0,,0,151,151,150,1,
,,,,,,,,,,,,,FF,,,,,,,,1.2921,,,,,,,,,,,,,,,,,,,,,,60da905f8fa5374e57b4ad71,60e57f8a3d2776f571787c24,2021-07-07_12h20.35.835,Simcolourproject_2stim_asymm_v5,2020.2.10,Win32,60,60e52e7cfedb1dae636df45f,,,,,,,,,637,-106,39,1,0,0,response7disk,,1,-2,3,1,0,0,rectangle,-2,3,1,0,0,,,,,,,-2,3,1,0,0,,0,152,152,30,1,
,,,,,,,,,,,,,FF,,,,,,,,1.514,,,,,,,,,,,,,,,,,,,,,,60da905f8fa5374e57b4ad71,60e57f8a3d2776f571787c24,2021-07-07_12h20.35.835,Simcolourproject_2stim_asymm_v5,2020.2.10,Win32,60,60e52e7cfedb1dae636df45f,,,,,,,,,970,-105,51,1,0,0,response7disk,,1,3,-1,1,0,0,rectangle,3,-1,1,0,0,,,,,,,3,-1,1,0,0,,0,153,153,25,1,
,,,,,,,,,,,,,FF,,,,,,,,1.6119,,,,,,,,,,,,,,,,,,,,,,60da905f8fa5374e57b4ad71,60e57f8a3d2776f571787c24,2021-07-07_12h20.35.835,Simcolourproject_2stim_asymm_v5,2020.2.10,Win32,60,60e52e7cfedb1dae636df45f,,,,,,,,,1125,128,47,1,0,0,response1disk,,6,9,-6,1,0,0,rectangle,9,-6,1,0,0,,,,,,,9,-6,1,0,0,,0,154,154,143,1,
,,,,,,,,,,,,,FF,,,,,,,,0.8062,,,,,,,,,,,,,,,,,,,,,,60da905f8fa5374e57b4ad71,60e57f8a3d2776f571787c24,2021-07-07_12h20.35.835,Simcolourproject_2stim_asymm_v5,2020.2.10,Win32,60,60e52e7cfedb1dae636df45f,,,,,,,,,1667,41,105,1,0,0,response1disk,,7,-7,-4,1,0,0,rectangle,-7,-4,1,0,0,,,,,,,-7,-4,1,0,0,,0,155,155,54,1,
,,,,,,,,,,,,,FF,,,,,,,,0.7716,,,,,,,,,,,,,,,,,,,,,,60da905f8fa5374e57b4ad71,60e57f8a3d2776f571787c24,2021-07-07_12h20.35.835,Simcolourproject_2stim_asymm_v5,2020.2.10,Win32,60,60e52e7cfedb1dae636df45f,,,,,,,,,1871,51,114,1,0,0,response1disk,,7,-7,5,1,0,0,rectangle,-38,-128,1,0,0,response5disk_3,TRUE,3,3,"[138,46,254,284,241,254,282,119,274,157,24,258,137,74,15,183,60,220,104,1]",1.1395,-12,-1,1,0,0,rectangle,0,156,156,62,1,
,,,,,,,,,,,,,FF,,,,,,,,1.4655,,,,,,,,,,,,,,,,,,,,,,60da905f8fa5374e57b4ad71,60e57f8a3d2776f571787c24,2021-07-07_12h20.35.835,Simcolourproject_2stim_asymm_v5,2020.2.10,Win32,60,60e52e7cfedb1dae636df45f,,,,,,,,,2489,-68,-123,1,0,0,response5disk,,3,3,-13,1,0,0,rectangle,3,-13,1,0,0,,,,,,,3,-13,1,0,0,,0,157,157,49,1,
,,,,,,,,,,,,,FF,,,,,,,,0.7152,,,,,,,,,,,,,,,,,,,,,,60da905f8fa5374e57b4ad71,60e57f8a3d2776f571787c24,2021-07-07_12h20.35.835,Simcolourproject_2stim_asymm_v5,2020.2.10,Win32,60,60e52e7cfedb1dae636df45f,,,,,,,,,4046,-56,109,1,0,0,response7disk,,0,-5,-7,1,0,0,rectangle,-5,-7,1,0,0,,,,,,,-5,-7,1,0,0,,0,158,158,45,1,
,,,,,,,,,,,,,FF,,,,,,,,1.6321,,,,,,,,,,,,,,,,,,,,,,60da905f8fa5374e57b4ad71,60e57f8a3d2776f571787c24,2021-07-07_12h20.35.835,Simcolourproject_2stim_asymm_v5,2020.2.10,Win32,60,60e52e7cfedb1dae636df45f,,,,,,,,,1719,102,39,1,0,0,response1disk,,6,-2,-4,1,0,0,rectangle,-2,-4,1,0,0,,,,,,,-2,-4,1,0,0,,0,159,159,128,1,
,,,,,,,,,,,,,FF,,,,,,,,0.8334,,,,,,,,,,,,,,,,,,,,,,60da905f8fa5374e57b4ad71,60e57f8a3d2776f571787c24,2021-07-07_12h20.35.835,Simcolourproject_2stim_asymm_v5,2020.2.10,Win32,60,60e52e7cfedb1dae636df45f,,,,,,,,,4218,-90,126,1,0,0,response7disk,,0,-12,-14,1,0,0,rectangle,-12,-14,1,0,0,,,,,,,-12,-14,1,0,0,,1,0,160,138,1,
,,,,,,,,,,,,,FF,,,,,,,,0.8677,,,,,,,,,,,,,,,,,,,,,,60da905f8fa5374e57b4ad71,60e57f8a3d2776f571787c24,2021-07-07_12h20.35.835,Simcolourproject_2stim_asymm_v5,2020.2.10,Win32,60,60e52e7cfedb1dae636df45f,,,,,,,,,2469,51,116,1,0,0,response1disk,,7,-14,-17,1,0,0,rectangle,-14,-17,1,0,0,,,,,,,-14,-17,1,0,0,,1,1,161,66,1,
,,,,,,,,,,,,,FF,,,,,,,,0.9929,,,,,,,,,,,,,,,,,,,,,,60da905f8fa5374e57b4ad71,60e57f8a3d2776f571787c24,2021-07-07_12h20.35.835,Simcolourproject_2stim_asymm_v5,2020.2.10,Win32,60,60e52e7cfedb1dae636df45f,,,,,,,,,206,54,130,1,0,0,response1disk,,7,-5,4,1,0,0,rectangle,-5,4,1,0,0,,,,,,,-5,4,1,0,0,,1,2,162,69,1,
,,,,,,,,,,,,,FF,,,,,,,,1.6181,,,,,,,,,,,,,,,,,,,,,,60da905f8fa5374e57b4ad71,60e57f8a3d2776f571787c24,2021-07-07_12h20.35.835,Simcolourproject_2stim_asymm_v5,2020.2.10,Win32,60,60e52e7cfedb1dae636df45f,,,,,,,,,3581,131,-54,1,0,0,response3disk,,5,-6,-4,1,0,0,rectangle,-6,-4,1,0,0,,,,,,,-6,-4,1,0,0,,1,3,163,136,1,
,,,,,,,,,,,,,FF,,,,,,,,1.4443,,,,,,,,,,,,,,,,,,,,,,60da905f8fa5374e57b4ad71,60e57f8a3d2776f571787c24,2021-07-07_12h20.35.835,Simcolourproject_2stim_asymm_v5,2020.2.10,Win32,60,60e52e7cfedb1dae636df45f,,,,,,,,,1026,117,49,1,0,0,response1disk,,6,-4,-6,1,0,0,rectangle,-4,-6,1,0,0,,,,,,,-4,-6,1,0,0,,1,4,164,33,1,
,,,,,,,,,,,,,FF,,,,,,,,0.9796,,,,,,,,,,,,,,,,,,,,,,60da905f8fa5374e57b4ad71,60e57f8a3d2776f571787c24,2021-07-07_12h20.35.835,Simcolourproject_2stim_asymm_v5,2020.2.10,Win32,60,60e52e7cfedb1dae636df45f,,,,,,,,,4203,-104,-50,1,0,0,response5disk,,2,-10,-7,1,0,0,rectangle,-10,-7,1,0,0,,,,,,,-10,-7,1,0,0,,1,5,165,155,1,
,,,,,,,,,,,,,FF,,,,,,,,0.9373,,,,,,,,,,,,,,,,,,,,,,60da905f8fa5374e57b4ad71,60e57f8a3d2776f571787c24,2021-07-07_12h20.35.835,Simcolourproject_2stim_asymm_v5,2020.2.10,Win32,60,60e52e7cfedb1dae636df45f,,,,,,,,,2581,48,117,1,0,0,response1disk,,7,1,-11,1,0,0,rectangle,1,-11,1,0,0,,,,,,,1,-11,1,0,0,,1,6,166,32,1,
,,,,,,,,,,,,,FF,,,,,,,,1.2845,,,,,,,,,,,,,,,,,,,,,,60da905f8fa5374e57b4ad71,60e57f8a3d2776f571787c24,2021-07-07_12h20.35.835,Simcolourproject_2stim_asymm_v5,2020.2.10,Win32,60,60e52e7cfedb1dae636df45f,,,,,,,,,1443,101,56,1,0,0,response1disk,,6,-6,-5,1,0,0,rectangle,-6,-5,1,0,0,,,,,,,-6,-5,1,0,0,,1,7,167,82,1,
,,,,,,,,,,,,,FF,,,,,,,,0.5902,,,,,,,,,,,,,,,,,,,,,,60da905f8fa5374e57b4ad71,60e57f8a3d2776f571787c24,2021-07-07_12h20.35.835,Simcolourproject_2stim_asymm_v5,2020.2.10,Win32,60,60e52e7cfedb1dae636df45f,,,,,,,,,2014,51,130,1,0,0,response1disk,,7,-15,-2,1,0,0,rectangle,-15,-2,1,0,0,,,,,,,-15,-2,1,0,0,,1,8,168,119,1,
,,,,,,,,,,,,,FF,,,,,,,,0.965,,,,,,,,,,,,,,,,,,,,,,60da905f8fa5374e57b4ad71,60e57f8a3d2776f571787c24,2021-07-07_12h20.35.835,Simcolourproject_2stim_asymm_v5,2020.2.10,Win32,60,60e52e7cfedb1dae636df45f,,,,,,,,,4250,49,111,1,0,0,response1disk,,7,-1,5,1,0,0,rectangle,-1,5,1,0,0,,,,,,,-1,5,1,0,0,,1,9,169,16,1,
,,,,,,,,,,,,,FF,,,,,,,,1.5623,,,,,,,,,,,,,,,,,,,,,,60da905f8fa5374e57b4ad71,60e57f8a3d2776f571787c24,2021-07-07_12h20.35.835,Simcolourproject_2stim_asymm_v5,2020.2.10,Win32,60,60e52e7cfedb1dae636df45f,,,,,,,,,1429,76,-129,1,0,0,response3disk,,4,17,-13,1,0,0,rectangle,17,-13,1,0,0,,,,,,,17,-13,1,0,0,,1,10,170,79,1,
,,,,,,,,,,,,,FF,,,,,,,,2.9515,,,,,,,,,,,,,,,,,,,,,,60da905f8fa5374e57b4ad71,60e57f8a3d2776f571787c24,2021-07-07_12h20.35.835,Simcolourproject_2stim_asymm_v5,2020.2.10,Win32,60,60e52e7cfedb1dae636df45f,,,,,,,,,1325,89,-50,1,0,0,response3disk,,5,1,10,1,0,0,rectangle,1,10,1,0,0,,,,,,,1,10,1,0,0,,1,11,171,37,1,
,,,,,,,,,,,,,FF,,,,,,,,1.4373,,,,,,,,,,,,,,,,,,,,,,60da905f8fa5374e57b4ad71,60e57f8a3d2776f571787c24,2021-07-07_12h20.35.835,Simcolourproject_2stim_asymm_v5,2020.2.10,Win32,60,60e52e7cfedb1dae636df45f,,,,,,,,,2437,106,37,1,0,0,response1disk,,6,3,5,1,0,0,rectangle,3,5,1,0,0,,,,,,,3,5,1,0,0,,1,12,172,42,1,
,,,,,,,,,,,,,FF,,,,,,,,1.2498,,,,,,,,,,,,,,,,,,,,,,60da905f8fa5374e57b4ad71,60e57f8a3d2776f571787c24,2021-07-07_12h20.35.835,Simcolourproject_2stim_asymm_v5,2020.2.10,Win32,60,60e52e7cfedb1dae636df45f,,,,,,,,,4153,71,135,1,0,0,response1disk,,7,-6,-5,1,0,0,rectangle,-6,-5,1,0,0,,,,,,,-6,-5,1,0,0,,1,13,173,95,1,
,,,,,,,,,,,,,FF,,,,,,,,1.632,,,,,,,,,,,,,,,,,,,,,,60da905f8fa5374e57b4ad71,60e57f8a3d2776f571787c24,2021-07-07_12h20.35.835,Simcolourproject_2stim_asymm_v5,2020.2.10,Win32,60,60e52e7cfedb1dae636df45f,,,,,,,,,1179,97,57,1,0,0,response1disk,,6,-15,0,1,0,0,rectangle,-15,0,1,0,0,,,,,,,-15,0,1,0,0,,1,14,174,3,1,
,,,,,,,,,,,,,FF,,,,,,,,1.3055,,,,,,,,,,,,,,,,,,,,,,60da905f8fa5374e57b4ad71,60e57f8a3d2776f571787c24,2021-07-07_12h20.35.835,Simcolourproject_2stim_asymm_v5,2020.2.10,Win32,60,60e52e7cfedb1dae636df45f,,,,,,,,,1714,61,123,1,0,0,response1disk,,7,11,-8,1,0,0,rectangle,11,-8,1,0,0,,,,,,,11,-8,1,0,0,,1,15,175,99,1,
,,,,,,,,,,,,,FF,,,,,,,,0.9299,,,,,,,,,,,,,,,,,,,,,,60da905f8fa5374e57b4ad71,60e57f8a3d2776f571787c24,2021-07-07_12h20.35.835,Simcolourproject_2stim_asymm_v5,2020.2.10,Win32,60,60e52e7cfedb1dae636df45f,,,,,,,,,518,-56,-104,1,0,0,response5disk,,3,5,-1,1,0,0,rectangle,5,-1,1,0,0,,,,,,,5,-1,1,0,0,,1,16,176,123,1,
,,,,,,,,,,,,,FF,,,,,,,,2.1806,,,,,,,,,,,,,,,,,,,,,,60da905f8fa5374e57b4ad71,60e57f8a3d2776f571787c24,2021-07-07_12h20.35.835,Simcolourproject_2stim_asymm_v5,2020.2.10,Win32,60,60e52e7cfedb1dae636df45f,,,,,,,,,3525,60,-95,1,0,0,response3disk,,4,11,0,1,0,0,rectangle,11,0,1,0,0,,,,,,,11,0,1,0,0,,1,17,177,107,1,
,,,,,,,,,,,,,FF,,,,,,,,1.736,,,,,,,,,,,,,,,,,,,,,,60da905f8fa5374e57b4ad71,60e57f8a3d2776f571787c24,2021-07-07_12h20.35.835,Simcolourproject_2stim_asymm_v5,2020.2.10,Win32,60,60e52e7cfedb1dae636df45f,,,,,,,,,1682,-78,-53,1,0,0,response5disk,,2,9,-6,1,0,0,rectangle,9,-6,1,0,0,,,,,,,9,-6,1,0,0,,1,18,178,159,1,
,,,,,,,,,,,,,FF,,,,,,,,1.4234,,,,,,,,,,,,,,,,,,,,,,60da905f8fa5374e57b4ad71,60e57f8a3d2776f571787c24,2021-07-07_12h20.35.835,Simcolourproject_2stim_asymm_v5,2020.2.10,Win32,60,60e52e7cfedb1dae636df45f,,,,,,,,,1579,33,-96,1,0,0,response3disk,,4,2,-2,1,0,0,rectangle,2,-2,1,0,0,,,,,,,2,-2,1,0,0,,1,19,179,11,1,
,,,,,,,,,,,,,FF,,,,,,,,0.7915,,,,,,,,,,,,,,,,,,,,,,60da905f8fa5374e57b4ad71,60e57f8a3d2776f571787c24,2021-07-07_12h20.35.835,Simcolourproject_2stim_asymm_v5,2020.2.10,Win32,60,60e52e7cfedb1dae636df45f,,,,,,,,,4210,58,113,1,0,0,response1disk,,7,6,8,1,0,0,rectangle,6,8,1,0,0,,,,,,,6,8,1,0,0,,1,20,180,41,1,
,,,,,,,,,,,,,FF,,,,,,,,2.0488,,,,,,,,,,,,,,,,,,,,,,60da905f8fa5374e57b4ad71,60e57f8a3d2776f571787c24,2021-07-07_12h20.35.835,Simcolourproject_2stim_asymm_v5,2020.2.10,Win32,60,60e52e7cfedb1dae636df45f,,,,,,,,,539,66,113,1,0,0,response1disk,,7,11,-3,1,0,0,rectangle,11,-3,1,0,0,,,,,,,11,-3,1,0,0,,1,21,181,84,1,
,,,,,,,,,,,,,FF,,,,,,,,1.5411,,,,,,,,,,,,,,,,,,,,,,60da905f8fa5374e57b4ad71,60e57f8a3d2776f571787c24,2021-07-07_12h20.35.835,Simcolourproject_2stim_asymm_v5,2020.2.10,Win32,60,60e52e7cfedb1dae636df45f,,,,,,,,,3835,49,-117,1,0,0,response3disk,,4,-28,9,1,0,0,rectangle,-103,-58,1,0,0,response5disk_3,TRUE,2,2,"[138,46,254,284,241,254,282,119,274,157,24,258,137,74,15,183,60,220,104,1]",1.2155,2,-1,1,0,0,rectangle,1,22,182,114,1,
,,,,,,,,,,,,,FF,,,,,,,,1.9856,,,,,,,,,,,,,,,,,,,,,,60da905f8fa5374e57b4ad71,60e57f8a3d2776f571787c24,2021-07-07_12h20.35.835,Simcolourproject_2stim_asymm_v5,2020.2.10,Win32,60,60e52e7cfedb1dae636df45f,,,,,,,,,760,110,61,1,0,0,response1disk,,6,-11,-3,1,0,0,rectangle,-11,-3,1,0,0,,,,,,,-11,-3,1,0,0,,1,23,183,23,1,
,,,,,,,,,,,,,FF,,,,,,,,0.8673,,,,,,,,,,,,,,,,,,,,,,60da905f8fa5374e57b4ad71,60e57f8a3d2776f571787c24,2021-07-07_12h20.35.835,Simcolourproject_2stim_asymm_v5,2020.2.10,Win32,60,60e52e7cfedb1dae636df45f,,,,,,,,,3034,80,118,1,0,0,response1disk,,7,6,14,1,0,0,rectangle,6,14,1,0,0,,,,,,,6,14,1,0,0,,1,24,184,97,1,
,,,,,,,,,,,,,FF,,,,,,,,1.3053,,,,,,,,,,,,,,,,,,,,,,60da905f8fa5374e57b4ad71,60e57f8a3d2776f571787c24,2021-07-07_12h20.35.835,Simcolourproject_2stim_asymm_v5,2020.2.10,Win32,60,60e52e7cfedb1dae636df45f,,,,,,,,,1772,108,-67,1,0,0,response3disk,,5,-23,-7,1,0,0,rectangle,-23,-7,1,0,0,,,,,,,-23,-7,1,0,0,,1,25,185,13,1,
,,,,,,,,,,,,,FF,,,,,,,,1.1181,,,,,,,,,,,,,,,,,,,,,,60da905f8fa5374e57b4ad71,60e57f8a3d2776f571787c24,2021-07-07_12h20.35.835,Simcolourproject_2stim_asymm_v5,2020.2.10,Win32,60,60e52e7cfedb1dae636df45f,,,,,,,,,352,-68,-115,1,0,0,response5disk,,3,0,-19,1,0,0,rectangle,0,-19,1,0,0,,,,,,,0,-19,1,0,0,,1,26,186,130,1,
,,,,,,,,,,,,,FF,,,,,,,,3.7502,,,,,,,,,,,,,,,,,,,,,,60da905f8fa5374e57b4ad71,60e57f8a3d2776f571787c24,2021-07-07_12h20.35.835,Simcolourproject_2stim_asymm_v5,2020.2.10,Win32,60,60e52e7cfedb1dae636df45f,,,,,,,,,1843,125,41,1,0,0,response1disk,,6,-2,3,1,0,0,rectangle,-2,3,1,0,0,,,,,,,-2,3,1,0,0,,1,27,187,106,1,
,,,,,,,,,,,,,FF,,,,,,,,1.8471,,,,,,,,,,,,,,,,,,,,,,60da905f8fa5374e57b4ad71,60e57f8a3d2776f571787c24,2021-07-07_12h20.35.835,Simcolourproject_2stim_asymm_v5,2020.2.10,Win32,60,60e52e7cfedb1dae636df45f,,,,,,,,,1858,76,112,1,0,0,response1disk,,7,-10,-12,1,0,0,rectangle,-10,-12,1,0,0,,,,,,,-10,-12,1,0,0,,1,28,188,85,1,
,,,,,,,,,,,,,FF,,,,,,,,0.9026,,,,,,,,,,,,,,,,,,,,,,60da905f8fa5374e57b4ad71,60e57f8a3d2776f571787c24,2021-07-07_12h20.35.835,Simcolourproject_2stim_asymm_v5,2020.2.10,Win32,60,60e52e7cfedb1dae636df45f,,,,,,,,,3940,-56,-121,1,0,0,response5disk,,3,-6,-4,1,0,0,rectangle,-6,-4,1,0,0,,,,,,,-6,-4,1,0,0,,1,29,189,111,1,
,,,,,,,,,,,,,FF,,,,,,,,2.8541,,,,,,,,,,,,,,,,,,,,,,60da905f8fa5374e57b4ad71,60e57f8a3d2776f571787c24,2021-07-07_12h20.35.835,Simcolourproject_2stim_asymm_v5,2020.2.10,Win32,60,60e52e7cfedb1dae636df45f,,,,,,,,,1613,-70,-104,1,0,0,response5disk,,3,-13,-7,1,0,0,rectangle,-13,-7,1,0,0,,,,,,,-13,-7,1,0,0,,1,30,190,55,1,
,,,,,,,,,,,,,FF,,,,,,,,1.3677,,,,,,,,,,,,,,,,,,,,,,60da905f8fa5374e57b4ad71,60e57f8a3d2776f571787c24,2021-07-07_12h20.35.835,Simcolourproject_2stim_asymm_v5,2020.2.10,Win32,60,60e52e7cfedb1dae636df45f,,,,,,,,,1655,71,112,1,0,0,response1disk,,7,11,0,1,0,0,rectangle,11,0,1,0,0,,,,,,,11,0,1,0,0,,1,31,191,157,1,
,,,,,,,,,,,,,FF,,,,,,,,1.3127,,,,,,,,,,,,,,,,,,,,,,60da905f8fa5374e57b4ad71,60e57f8a3d2776f571787c24,2021-07-07_12h20.35.835,Simcolourproject_2stim_asymm_v5,2020.2.10,Win32,60,60e52e7cfedb1dae636df45f,,,,,,,,,960,49,108,1,0,0,response1disk,,7,-12,10,1,0,0,rectangle,-12,10,1,0,0,,,,,,,-12,10,1,0,0,,1,32,192,117,1,
,,,,,,,,,,,,,FF,,,,,,,,1.2016,,,,,,,,,,,,,,,,,,,,,,60da905f8fa5374e57b4ad71,60e57f8a3d2776f571787c24,2021-07-07_12h20.35.835,Simcolourproject_2stim_asymm_v5,2020.2.10,Win32,60,60e52e7cfedb1dae636df45f,,,,,,,,,692,113,58,1,0,0,response1disk,,6,6,11,1,0,0,rectangle,6,11,1,0,0,,,,,,,6,11,1,0,0,,1,33,193,110,1,
,,,,,,,,,,,,,FF,,,,,,,,2.6664,,,,,,,,,,,,,,,,,,,,,,60da905f8fa5374e57b4ad71,60e57f8a3d2776f571787c24,2021-07-07_12h20.35.835,Simcolourproject_2stim_asymm_v5,2020.2.10,Win32,60,60e52e7cfedb1dae636df45f,,,,,,,,,1103,54,97,1,0,0,response1disk,,7,8,-15,1,0,0,rectangle,8,-15,1,0,0,,,,,,,8,-15,1,0,0,,1,34,194,25,1,
,,,,,,,,,,,,,FF,,,,,,,,1.3128,,,,,,,,,,,,,,,,,,,,,,60da905f8fa5374e57b4ad71,60e57f8a3d2776f571787c24,2021-07-07_12h20.35.835,Simcolourproject_2stim_asymm_v5,2020.2.10,Win32,60,60e52e7cfedb1dae636df45f,,,,,,,,,1213,-136,-49,1,0,0,response5disk,,2,-10,-4,1,0,0,rectangle,-10,-4,1,0,0,,,,,,,-10,-4,1,0,0,,1,35,195,34,1,
,,,,,,,,,,,,,FF,,,,,,,,1.4093,,,,,,,,,,,,,,,,,,,,,,60da905f8fa5374e57b4ad71,60e57f8a3d2776f571787c24,2021-07-07_12h20.35.835,Simcolourproject_2stim_asymm_v5,2020.2.10,Win32,60,60e52e7cfedb1dae636df45f,,,,,,,,,1693,56,-104,1,0,0,response3disk,,4,-20,-4,1,0,0,rectangle,-20,-4,1,0,0,,,,,,,-20,-4,1,0,0,,1,36,196,44,1,
,,,,,,,,,,,,,FF,,,,,,,,2.3958,,,,,,,,,,,,,,,,,,,,,,60da905f8fa5374e57b4ad71,60e57f8a3d2776f571787c24,2021-07-07_12h20.35.835,Simcolourproject_2stim_asymm_v5,2020.2.10,Win32,60,60e52e7cfedb1dae636df45f,,,,,,,,,4074,48,-110,1,0,0,response3disk,,4,-2,3,1,0,0,rectangle,-2,3,1,0,0,,,,,,,-2,3,1,0,0,,1,37,197,28,1,
,,,,,,,,,,,,,FF,,,,,,,,1.0067,,,,,,,,,,,,,,,,,,,,,,60da905f8fa5374e57b4ad71,60e57f8a3d2776f571787c24,2021-07-07_12h20.35.835,Simcolourproject_2stim_asymm_v5,2020.2.10,Win32,60,60e52e7cfedb1dae636df45f,,,,,,,,,848,102,-56,1,0,0,response3disk,,5,-15,2,1,0,0,rectangle,-15,2,1,0,0,,,,,,,-15,2,1,0,0,,1,38,198,49,1,
,,,,,,,,,,,,,FF,,,,,,,,4.0349,,,,,,,,,,,,,,,,,,,,,,60da905f8fa5374e57b4ad71,60e57f8a3d2776f571787c24,2021-07-07_12h20.35.835,Simcolourproject_2stim_asymm_v5,2020.2.10,Win32,60,60e52e7cfedb1dae636df45f,,,,,,,,,1277,99,47,1,0,0,response1disk,,6,-6,-8,1,0,0,rectangle,-6,-8,1,0,0,,,,,,,-6,-8,1,0,0,,1,39,199,56,1,
,,,,,,,,,,,,,FF,,,,,,,,1.5483,,,,,,,,,,,,,,,,,,,,,,60da905f8fa5374e57b4ad71,60e57f8a3d2776f571787c24,2021-07-07_12h20.35.835,Simcolourproject_2stim_asymm_v5,2020.2.10,Win32,60,60e52e7cfedb1dae636df45f,,,,,,,,,2651,119,-44,1,0,0,response3disk,,5,11,8,1,0,0,rectangle,11,8,1,0,0,,,,,,,11,8,1,0,0,,1,40,200,102,1,
,,,,,,,,,,,,,FF,,,,,,,,1.0138,,,,,,,,,,,,,,,,,,,,,,60da905f8fa5374e57b4ad71,60e57f8a3d2776f571787c24,2021-07-07_12h20.35.835,Simcolourproject_2stim_asymm_v5,2020.2.10,Win32,60,60e52e7cfedb1dae636df45f,,,,,,,,,3715,-109,-44,1,0,0,response5disk,,2,-12,17,1,0,0,rectangle,-12,17,1,0,0,,,,,,,-12,17,1,0,0,,1,41,201,15,1,
,,,,,,,,,,,,,FF,,,,,,,,1.4167,,,,,,,,,,,,,,,,,,,,,,60da905f8fa5374e57b4ad71,60e57f8a3d2776f571787c24,2021-07-07_12h20.35.835,Simcolourproject_2stim_asymm_v5,2020.2.10,Win32,60,60e52e7cfedb1dae636df45f,,,,,,,,,3080,45,-119,1,0,0,response3disk,,4,14,-6,1,0,0,rectangle,14,-6,1,0,0,,,,,,,14,-6,1,0,0,,1,42,202,58,1,
,,,,,,,,,,,,,FF,,,,,,,,0.9514,,,,,,,,,,,,,,,,,,,,,,60da905f8fa5374e57b4ad71,60e57f8a3d2776f571787c24,2021-07-07_12h20.35.835,Simcolourproject_2stim_asymm_v5,2020.2.10,Win32,60,60e52e7cfedb1dae636df45f,,,,,,,,,3320,100,-54,1,0,0,response3disk,,5,12,9,1,0,0,rectangle,12,9,1,0,0,,,,,,,12,9,1,0,0,,1,43,203,80,1,
,,,,,,,,,,,,,FF,,,,,,,,1.7292,,,,,,,,,,,,,,,,,,,,,,60da905f8fa5374e57b4ad71,60e57f8a3d2776f571787c24,2021-07-07_12h20.35.835,Simcolourproject_2stim_asymm_v5,2020.2.10,Win32,60,60e52e7cfedb1dae636df45f,,,,,,,,,563,47,-107,1,0,0,response3disk,,4,-1,-2,1,0,0,rectangle,-1,-2,1,0,0,,,,,,,-1,-2,1,0,0,,1,44,204,78,1,
,,,,,,,,,,,,,FF,,,,,,,,1.0346,,,,,,,,,,,,,,,,,,,,,,60da905f8fa5374e57b4ad71,60e57f8a3d2776f571787c24,2021-07-07_12h20.35.835,Simcolourproject_2stim_asymm_v5,2020.2.10,Win32,60,60e52e7cfedb1dae636df45f,,,,,,,,,1979,99,-37,1,0,0,response3disk,,5,-2,1,1,0,0,rectangle,-2,1,1,0,0,,,,,,,-2,1,1,0,0,,1,45,205,141,1,
,,,,,,,,,,,,,FF,,,,,,,,1.6318,,,,,,,,,,,,,,,,,,,,,,60da905f8fa5374e57b4ad71,60e57f8a3d2776f571787c24,2021-07-07_12h20.35.835,Simcolourproject_2stim_asymm_v5,2020.2.10,Win32,60,60e52e7cfedb1dae636df45f,,,,,,,,,1142,118,47,1,0,0,response1disk,,6,-1,-3,1,0,0,rectangle,-1,-3,1,0,0,,,,,,,-1,-3,1,0,0,,1,46,206,122,1,
,,,,,,,,,,,,,FF,,,,,,,,3.1251,,,,,,,,,,,,,,,,,,,,,,60da905f8fa5374e57b4ad71,60e57f8a3d2776f571787c24,2021-07-07_12h20.35.835,Simcolourproject_2stim_asymm_v5,2020.2.10,Win32,60,60e52e7cfedb1dae636df45f,,,,,,,,,2,-127,-48,1,0,0,response5disk,,2,8,0,1,0,0,rectangle,8,0,1,0,0,,,,,,,8,0,1,0,0,,1,47,207,125,1,
,,,,,,,,,,,,,FF,,,,,,,,1.2987,,,,,,,,,,,,,,,,,,,,,,60da905f8fa5374e57b4ad71,60e57f8a3d2776f571787c24,2021-07-07_12h20.35.835,Simcolourproject_2stim_asymm_v5,2020.2.10,Win32,60,60e52e7cfedb1dae636df45f,,,,,,,,,2244,-124,-43,1,0,0,response5disk,,2,-1,-9,1,0,0,rectangle,-1,-9,1,0,0,,,,,,,-1,-9,1,0,0,,1,48,208,90,1,
,,,,,,,,,,,,,FF,,,,,,,,1.7426,,,,,,,,,,,,,,,,,,,,,,60da905f8fa5374e57b4ad71,60e57f8a3d2776f571787c24,2021-07-07_12h20.35.835,Simcolourproject_2stim_asymm_v5,2020.2.10,Win32,60,60e52e7cfedb1dae636df45f,,,,,,,,,1685,-84,-112,1,0,0,response5disk,,3,-13,-12,1,0,0,rectangle,-13,-12,1,0,0,,,,,,,-13,-12,1,0,0,,1,49,209,27,1,
,,,,,,,,,,,,,FF,,,,,,,,0.7642,,,,,,,,,,,,,,,,,,,,,,60da905f8fa5374e57b4ad71,60e57f8a3d2776f571787c24,2021-07-07_12h20.35.835,Simcolourproject_2stim_asymm_v5,2020.2.10,Win32,60,60e52e7cfedb1dae636df45f,,,,,,,,,2661,-106,53,1,0,0,response7disk,,1,10,-4,1,0,0,rectangle,10,-4,1,0,0,,,,,,,10,-4,1,0,0,,1,50,210,31,1,
,,,,,,,,,,,,,FF,,,,,,,,1.0696,,,,,,,,,,,,,,,,,,,,,,60da905f8fa5374e57b4ad71,60e57f8a3d2776f571787c24,2021-07-07_12h20.35.835,Simcolourproject_2stim_asymm_v5,2020.2.10,Win32,60,60e52e7cfedb1dae636df45f,,,,,,,,,1177,92,-74,1,0,0,response3disk,,5,4,-19,1,0,0,rectangle,4,-19,1,0,0,,,,,,,4,-19,1,0,0,,1,51,211,139,1,
,,,,,,,,,,,,,FF,,,,,,,,1.0073,,,,,,,,,,,,,,,,,,,,,,60da905f8fa5374e57b4ad71,60e57f8a3d2776f571787c24,2021-07-07_12h20.35.835,Simcolourproject_2stim_asymm_v5,2020.2.10,Win32,60,60e52e7cfedb1dae636df45f,,,,,,,,,2294,-97,-49,1,0,0,response5disk,,2,-31,1,1,0,0,rectangle,-31,1,1,0,0,,,,,,,-31,1,1,0,0,,1,52,212,20,1,
,,,,,,,,,,,,,FF,,,,,,,,0.8265,,,,,,,,,,,,,,,,,,,,,,60da905f8fa5374e57b4ad71,60e57f8a3d2776f571787c24,2021-07-07_12h20.35.835,Simcolourproject_2stim_asymm_v5,2020.2.10,Win32,60,60e52e7cfedb1dae636df45f,,,,,,,,,2528,62,90,1,0,0,response1disk,,7,6,-7,1,0,0,rectangle,6,-7,1,0,0,,,,,,,6,-7,1,0,0,,1,53,213,121,1,
,,,,,,,,,,,,,FF,,,,,,,,1.639,,,,,,,,,,,,,,,,,,,,,,60da905f8fa5374e57b4ad71,60e57f8a3d2776f571787c24,2021-07-07_12h20.35.835,Simcolourproject_2stim_asymm_v5,2020.2.10,Win32,60,60e52e7cfedb1dae636df45f,,,,,,,,,2867,58,-99,1,0,0,response3disk,,4,7,-7,1,0,0,rectangle,7,-7,1,0,0,,,,,,,7,-7,1,0,0,,1,54,214,143,1,
,,,,,,,,,,,,,FF,,,,,,,,1.4932,,,,,,,,,,,,,,,,,,,,,,60da905f8fa5374e57b4ad71,60e57f8a3d2776f571787c24,2021-07-07_12h20.35.835,Simcolourproject_2stim_asymm_v5,2020.2.10,Win32,60,60e52e7cfedb1dae636df45f,,,,,,,,,44,106,-58,1,0,0,response3disk,,5,8,-11,1,0,0,rectangle,8,-11,1,0,0,,,,,,,8,-11,1,0,0,,1,55,215,135,1,
,,,,,,,,,,,,,FF,,,,,,,,1.5413,,,,,,,,,,,,,,,,,,,,,,60da905f8fa5374e57b4ad71,60e57f8a3d2776f571787c24,2021-07-07_12h20.35.835,Simcolourproject_2stim_asymm_v5,2020.2.10,Win32,60,60e52e7cfedb1dae636df45f,,,,,,,,,111,32,-108,1,0,0,response3disk,,4,-13,-1,1,0,0,rectangle,-13,-1,1,0,0,,,,,,,-13,-1,1,0,0,,1,56,216,6,1,
,,,,,,,,,,,,,FF,,,,,,,,0.8678,,,,,,,,,,,,,,,,,,,,,,60da905f8fa5374e57b4ad71,60e57f8a3d2776f571787c24,2021-07-07_12h20.35.835,Simcolourproject_2stim_asymm_v5,2020.2.10,Win32,60,60e52e7cfedb1dae636df45f,,,,,,,,,2035,-133,-52,1,0,0,response5disk,,2,5,2,1,0,0,rectangle,5,2,1,0,0,,,,,,,5,2,1,0,0,,1,57,217,43,1,
,,,,,,,,,,,,,FF,,,,,,,,0.9372,,,,,,,,,,,,,,,,,,,,,,60da905f8fa5374e57b4ad71,60e57f8a3d2776f571787c24,2021-07-07_12h20.35.835,Simcolourproject_2stim_asymm_v5,2020.2.10,Win32,60,60e52e7cfedb1dae636df45f,,,,,,,,,530,-114,73,1,0,0,response7disk,,1,7,-4,1,0,0,rectangle,7,-4,1,0,0,,,,,,,7,-4,1,0,0,,1,58,218,39,1,
,,,,,,,,,,,,,FF,,,,,,,,1.3541,,,,,,,,,,,,,,,,,,,,,,60da905f8fa5374e57b4ad71,60e57f8a3d2776f571787c24,2021-07-07_12h20.35.835,Simcolourproject_2stim_asymm_v5,2020.2.10,Win32,60,60e52e7cfedb1dae636df45f,,,,,,,,,318,84,51,1,0,0,response1disk,,6,14,4,1,0,0,rectangle,126,-51,1,0,0,response3disk_3,TRUE,5,5,"[138,46,254,284,241,254,282,119,274,157,24,258,137,74,15,183,60,220,104,1]",1.3888,-12,-2,1,0,0,rectangle,1,59,219,158,1,
,,,,,,,,,,,,,FF,,,,,,,,2.0557,,,,,,,,,,,,,,,,,,,,,,60da905f8fa5374e57b4ad71,60e57f8a3d2776f571787c24,2021-07-07_12h20.35.835,Simcolourproject_2stim_asymm_v5,2020.2.10,Win32,60,60e52e7cfedb1dae636df45f,,,,,,,,,1689,-57,-104,1,0,0,response5disk,,3,30,-3,1,0,0,rectangle,30,-3,1,0,0,,,,,,,30,-3,1,0,0,,1,60,220,140,1,
,,,,,,,,,,,,,FF,,,,,,,,0.7843,,,,,,,,,,,,,,,,,,,,,,60da905f8fa5374e57b4ad71,60e57f8a3d2776f571787c24,2021-07-07_12h20.35.835,Simcolourproject_2stim_asymm_v5,2020.2.10,Win32,60,60e52e7cfedb1dae636df45f,,,,,,,,,1842,111,-35,1,0,0,response3disk,,5,23,13,1,0,0,rectangle,23,13,1,0,0,,,,,,,23,13,1,0,0,,1,61,221,38,1,
,,,,,,,,,,,,,FF,,,,,,,,0.8543,,,,,,,,,,,,,,,,,,,,,,60da905f8fa5374e57b4ad71,60e57f8a3d2776f571787c24,2021-07-07_12h20.35.835,Simcolourproject_2stim_asymm_v5,2020.2.10,Win32,60,60e52e7cfedb1dae636df45f,,,,,,,,,2954,-115,-41,1,0,0,response5disk,,2,-7,-4,1,0,0,rectangle,-7,-4,1,0,0,,,,,,,-7,-4,1,0,0,,1,62,222,72,1,
,,,,,,,,,,,,,FF,,,,,,,,0.799,,,,,,,,,,,,,,,,,,,,,,60da905f8fa5374e57b4ad71,60e57f8a3d2776f571787c24,2021-07-07_12h20.35.835,Simcolourproject_2stim_asymm_v5,2020.2.10,Win32,60,60e52e7cfedb1dae636df45f,,,,,,,,,2751,99,44,1,0,0,response1disk,,6,2,15,1,0,0,rectangle,2,15,1,0,0,,,,,,,2,15,1,0,0,,1,63,223,21,1,
,,,,,,,,,,,,,FF,,,,,,,,2.1183,,,,,,,,,,,,,,,,,,,,,,60da905f8fa5374e57b4ad71,60e57f8a3d2776f571787c24,2021-07-07_12h20.35.835,Simcolourproject_2stim_asymm_v5,2020.2.10,Win32,60,60e52e7cfedb1dae636df45f,,,,,,,,,2732,100,-60,1,0,0,response3disk,,5,10,-8,1,0,0,rectangle,10,-8,1,0,0,,,,,,,10,-8,1,0,0,,1,64,224,0,1,
,,,,,,,,,,,,,FF,,,,,,,,5.1331,,,,,,,,,,,,,,,,,,,,,,60da905f8fa5374e57b4ad71,60e57f8a3d2776f571787c24,2021-07-07_12h20.35.835,Simcolourproject_2stim_asymm_v5,2020.2.10,Win32,60,60e52e7cfedb1dae636df45f,,,,,,,,,406,68,-100,1,0,0,response3disk,,4,28,-5,1,0,0,rectangle,28,-5,1,0,0,,,,,,,28,-5,1,0,0,,1,65,225,59,1,
,,,,,,,,,,,,,FF,,,,,,,,0.9306,,,,,,,,,,,,,,,,,,,,,,60da905f8fa5374e57b4ad71,60e57f8a3d2776f571787c24,2021-07-07_12h20.35.835,Simcolourproject_2stim_asymm_v5,2020.2.10,Win32,60,60e52e7cfedb1dae636df45f,,,,,,,,,4011,36,128,1,0,0,response1disk,,7,-2,3,1,0,0,rectangle,-2,3,1,0,0,,,,,,,-2,3,1,0,0,,1,66,226,148,1,
,,,,,,,,,,,,,FF,,,,,,,,0.966,,,,,,,,,,,,,,,,,,,,,,60da905f8fa5374e57b4ad71,60e57f8a3d2776f571787c24,2021-07-07_12h20.35.835,Simcolourproject_2stim_asymm_v5,2020.2.10,Win32,60,60e52e7cfedb1dae636df45f,,,,,,,,,3115,-59,-114,1,0,0,response5disk,,3,13,-2,1,0,0,rectangle,13,-2,1,0,0,,,,,,,13,-2,1,0,0,,1,67,227,45,1,
,,,,,,,,,,,,,FF,,,,,,,,1.3757,,,,,,,,,,,,,,,,,,,,,,60da905f8fa5374e57b4ad71,60e57f8a3d2776f571787c24,2021-07-07_12h20.35.835,Simcolourproject_2stim_asymm_v5,2020.2.10,Win32,60,60e52e7cfedb1dae636df45f,,,,,,,,,2275,-52,-106,1,0,0,response5disk,,3,-18,16,1,0,0,rectangle,-18,16,1,0,0,,,,,,,-18,16,1,0,0,,1,68,228,118,1,
,,,,,,,,,,,,,FF,,,,,,,,4.3476,,,,,,,,,,,,,,,,,,,,,,60da905f8fa5374e57b4ad71,60e57f8a3d2776f571787c24,2021-07-07_12h20.35.835,Simcolourproject_2stim_asymm_v5,2020.2.10,Win32,60,60e52e7cfedb1dae636df45f,,,,,,,,,20,44,-97,1,0,0,response3disk,,4,10,-15,1,0,0,rectangle,10,-15,1,0,0,,,,,,,10,-15,1,0,0,,1,69,229,133,1,
,,,,,,,,,,,,,FF,,,,,,,,1.7564,,,,,,,,,,,,,,,,,,,,,,60da905f8fa5374e57b4ad71,60e57f8a3d2776f571787c24,2021-07-07_12h20.35.835,Simcolourproject_2stim_asymm_v5,2020.2.10,Win32,60,60e52e7cfedb1dae636df45f,,,,,,,,,1798,112,74,1,0,0,response1disk,,6,5,-4,1,0,0,rectangle,5,-4,1,0,0,,,,,,,5,-4,1,0,0,,1,70,230,35,1,
,,,,,,,,,,,,,FF,,,,,,,,0.8612,,,,,,,,,,,,,,,,,,,,,,60da905f8fa5374e57b4ad71,60e57f8a3d2776f571787c24,2021-07-07_12h20.35.835,Simcolourproject_2stim_asymm_v5,2020.2.10,Win32,60,60e52e7cfedb1dae636df45f,,,,,,,,,967,72,117,1,0,0,response1disk,,7,-29,-6,1,0,0,rectangle,-29,-6,1,0,0,,,,,,,-29,-6,1,0,0,,1,71,231,115,1,
,,,,,,,,,,,,,FF,,,,,,,,1.43,,,,,,,,,,,,,,,,,,,,,,60da905f8fa5374e57b4ad71,60e57f8a3d2776f571787c24,2021-07-07_12h20.35.835,Simcolourproject_2stim_asymm_v5,2020.2.10,Win32,60,60e52e7cfedb1dae636df45f,,,,,,,,,2855,100,-61,1,0,0,response3disk,,5,19,-17,1,0,0,rectangle,19,-17,1,0,0,,,,,,,19,-17,1,0,0,,1,72,232,96,1,
,,,,,,,,,,,,,FF,,,,,,,,1.8254,,,,,,,,,,,,,,,,,,,,,,60da905f8fa5374e57b4ad71,60e57f8a3d2776f571787c24,2021-07-07_12h20.35.835,Simcolourproject_2stim_asymm_v5,2020.2.10,Win32,60,60e52e7cfedb1dae636df45f,,,,,,,,,280,42,-103,1,0,0,response3disk,,4,-13,-11,1,0,0,rectangle,-13,-11,1,0,0,,,,,,,-13,-11,1,0,0,,1,73,233,89,1,
,,,,,,,,,,,,,FF,,,,,,,,1.6459,,,,,,,,,,,,,,,,,,,,,,60da905f8fa5374e57b4ad71,60e57f8a3d2776f571787c24,2021-07-07_12h20.35.835,Simcolourproject_2stim_asymm_v5,2020.2.10,Win32,60,60e52e7cfedb1dae636df45f,,,,,,,,,506,102,-59,1,0,0,response3disk,,5,7,18,1,0,0,rectangle,7,18,1,0,0,,,,,,,7,18,1,0,0,,1,74,234,131,1,
,,,,,,,,,,,,,FF,,,,,,,,0.9167,,,,,,,,,,,,,,,,,,,,,,60da905f8fa5374e57b4ad71,60e57f8a3d2776f571787c24,2021-07-07_12h20.35.835,Simcolourproject_2stim_asymm_v5,2020.2.10,Win32,60,60e52e7cfedb1dae636df45f,,,,,,,,,2724,-94,-48,1,0,0,response5disk,,2,-25,-11,1,0,0,rectangle,-25,-11,1,0,0,,,,,,,-25,-11,1,0,0,,1,75,235,8,1,
,,,,,,,,,,,,,FF,,,,,,,,1.104,,,,,,,,,,,,,,,,,,,,,,60da905f8fa5374e57b4ad71,60e57f8a3d2776f571787c24,2021-07-07_12h20.35.835,Simcolourproject_2stim_asymm_v5,2020.2.10,Win32,60,60e52e7cfedb1dae636df45f,,,,,,,,,2967,100,65,1,0,0,response1disk,,6,-3,-4,1,0,0,rectangle,-3,-4,1,0,0,,,,,,,-3,-4,1,0,0,,1,76,236,10,1,
,,,,,,,,,,,,,FF,,,,,,,,1.0217,,,,,,,,,,,,,,,,,,,,,,60da905f8fa5374e57b4ad71,60e57f8a3d2776f571787c24,2021-07-07_12h20.35.835,Simcolourproject_2stim_asymm_v5,2020.2.10,Win32,60,60e52e7cfedb1dae636df45f,,,,,,,,,1945,56,116,1,0,0,response1disk,,7,-4,-7,1,0,0,rectangle,-4,-7,1,0,0,,,,,,,-4,-7,1,0,0,,1,77,237,92,1,
,,,,,,,,,,,,,FF,,,,,,,,1.4097,,,,,,,,,,,,,,,,,,,,,,60da905f8fa5374e57b4ad71,60e57f8a3d2776f571787c24,2021-07-07_12h20.35.835,Simcolourproject_2stim_asymm_v5,2020.2.10,Win32,60,60e52e7cfedb1dae636df45f,,,,,,,,,727,104,-45,1,0,0,response3disk,,5,26,16,1,0,0,rectangle,26,16,1,0,0,,,,,,,26,16,1,0,0,,1,78,238,91,1,
,,,,,,,,,,,,,FF,,,,,,,,1.7076,,,,,,,,,,,,,,,,,,,,,,60da905f8fa5374e57b4ad71,60e57f8a3d2776f571787c24,2021-07-07_12h20.35.835,Simcolourproject_2stim_asymm_v5,2020.2.10,Win32,60,60e52e7cfedb1dae636df45f,,,,,,,,,652,100,-64,1,0,0,response3disk,,5,-4,-3,1,0,0,rectangle,-4,-3,1,0,0,,,,,,,-4,-3,1,0,0,,1,79,239,70,1,
,,,,,,,,,,,,,FF,,,,,,,,1.0838,,,,,,,,,,,,,,,,,,,,,,60da905f8fa5374e57b4ad71,60e57f8a3d2776f571787c24,2021-07-07_12h20.35.835,Simcolourproject_2stim_asymm_v5,2020.2.10,Win32,60,60e52e7cfedb1dae636df45f,,,,,,,,,2393,119,57,1,0,0,response1disk,,6,23,7,1,0,0,rectangle,-102,-61,1,0,0,response5disk_3,TRUE,2,2,"[138,46,254,284,241,254,282,119,274,157,24,258,137,74,15,183,60,220,104,1]",1.279,16,1,1,0,0,rectangle,1,80,240,48,1,
,,,,,,,,,,,,,FF,,,,,,,,3.1948,,,,,,,,,,,,,,,,,,,,,,60da905f8fa5374e57b4ad71,60e57f8a3d2776f571787c24,2021-07-07_12h20.35.835,Simcolourproject_2stim_asymm_v5,2020.2.10,Win32,60,60e52e7cfedb1dae636df45f,,,,,,,,,3227,54,-109,1,0,0,response3disk,,4,13,-7,1,0,0,rectangle,13,-7,1,0,0,,,,,,,13,-7,1,0,0,,1,81,241,127,1,
,,,,,,,,,,,,,FF,,,,,,,,3.6248,,,,,,,,,,,,,,,,,,,,,,60da905f8fa5374e57b4ad71,60e57f8a3d2776f571787c24,2021-07-07_12h20.35.835,Simcolourproject_2stim_asymm_v5,2020.2.10,Win32,60,60e52e7cfedb1dae636df45f,,,,,,,,,3757,95,-62,1,0,0,response3disk,,5,0,-8,1,0,0,rectangle,0,-8,1,0,0,,,,,,,0,-8,1,0,0,,1,82,242,40,1,
,,,,,,,,,,,,,FF,,,,,,,,0.8273,,,,,,,,,,,,,,,,,,,,,,60da905f8fa5374e57b4ad71,60e57f8a3d2776f571787c24,2021-07-07_12h20.35.835,Simcolourproject_2stim_asymm_v5,2020.2.10,Win32,60,60e52e7cfedb1dae636df45f,,,,,,,,,4353,-122,-46,1,0,0,response5disk,,2,-14,8,1,0,0,rectangle,-14,8,1,0,0,,,,,,,-14,8,1,0,0,,1,83,243,81,1,
,,,,,,,,,,,,,FF,,,,,,,,0.9437,,,,,,,,,,,,,,,,,,,,,,60da905f8fa5374e57b4ad71,60e57f8a3d2776f571787c24,2021-07-07_12h20.35.835,Simcolourproject_2stim_asymm_v5,2020.2.10,Win32,60,60e52e7cfedb1dae636df45f,,,,,,,,,2861,45,-114,1,0,0,response3disk,,4,7,2,1,0,0,rectangle,7,2,1,0,0,,,,,,,7,2,1,0,0,,1,84,244,150,1,
,,,,,,,,,,,,,FF,,,,,,,,1.4519,,,,,,,,,,,,,,,,,,,,,,60da905f8fa5374e57b4ad71,60e57f8a3d2776f571787c24,2021-07-07_12h20.35.835,Simcolourproject_2stim_asymm_v5,2020.2.10,Win32,60,60e52e7cfedb1dae636df45f,,,,,,,,,1765,86,-45,1,0,0,response3disk,,5,35,6,1,0,0,rectangle,35,6,1,0,0,,,,,,,35,6,1,0,0,,1,85,245,54,1,
,,,,,,,,,,,,,FF,,,,,,,,1.6113,,,,,,,,,,,,,,,,,,,,,,60da905f8fa5374e57b4ad71,60e57f8a3d2776f571787c24,2021-07-07_12h20.35.835,Simcolourproject_2stim_asymm_v5,2020.2.10,Win32,60,60e52e7cfedb1dae636df45f,,,,,,,,,1995,72,98,1,0,0,response1disk,,7,7,-5,1,0,0,rectangle,7,-5,1,0,0,,,,,,,7,-5,1,0,0,,1,86,246,73,1,
,,,,,,,,,,,,,FF,,,,,,,,0.9367,,,,,,,,,,,,,,,,,,,,,,60da905f8fa5374e57b4ad71,60e57f8a3d2776f571787c24,2021-07-07_12h20.35.835,Simcolourproject_2stim_asymm_v5,2020.2.10,Win32,60,60e52e7cfedb1dae636df45f,,,,,,,,,202,115,49,1,0,0,response1disk,,6,17,3,1,0,0,rectangle,17,3,1,0,0,,,,,,,17,3,1,0,0,,1,87,247,108,1,
,,,,,,,,,,,,,FF,,,,,,,,0.5966,,,,,,,,,,,,,,,,,,,,,,60da905f8fa5374e57b4ad71,60e57f8a3d2776f571787c24,2021-07-07_12h20.35.835,Simcolourproject_2stim_asymm_v5,2020.2.10,Win32,60,60e52e7cfedb1dae636df45f,,,,,,,,,3741,-69,114,1,0,0,response7disk,,0,-13,8,1,0,0,rectangle,-13,8,1,0,0,,,,,,,-13,8,1,0,0,,1,88,248,103,1,
,,,,,,,,,,,,,FF,,,,,,,,1.0547,,,,,,,,,,,,,,,,,,,,,,60da905f8fa5374e57b4ad71,60e57f8a3d2776f571787c24,2021-07-07_12h20.35.835,Simcolourproject_2stim_asymm_v5,2020.2.10,Win32,60,60e52e7cfedb1dae636df45f,,,,,,,,,2185,39,-123,1,0,0,response3disk,,4,-5,9,1,0,0,rectangle,-5,9,1,0,0,,,,,,,-5,9,1,0,0,,1,89,249,147,1,
,,,,,,,,,,,,,FF,,,,,,,,0.7571,,,,,,,,,,,,,,,,,,,,,,60da905f8fa5374e57b4ad71,60e57f8a3d2776f571787c24,2021-07-07_12h20.35.835,Simcolourproject_2stim_asymm_v5,2020.2.10,Win32,60,60e52e7cfedb1dae636df45f,,,,,,,,,4143,-107,-42,1,0,0,response5disk,,2,-1,10,1,0,0,rectangle,-1,10,1,0,0,,,,,,,-1,10,1,0,0,,1,90,250,134,1,
,,,,,,,,,,,,,FF,,,,,,,,1.0419,,,,,,,,,,,,,,,,,,,,,,60da905f8fa5374e57b4ad71,60e57f8a3d2776f571787c24,2021-07-07_12h20.35.835,Simcolourproject_2stim_asymm_v5,2020.2.10,Win32,60,60e52e7cfedb1dae636df45f,,,,,,,,,148,106,-51,1,0,0,response3disk,,5,13,-2,1,0,0,rectangle,13,-2,1,0,0,,,,,,,13,-2,1,0,0,,1,91,251,101,1,
,,,,,,,,,,,,,FF,,,,,,,,1.3749,,,,,,,,,,,,,,,,,,,,,,60da905f8fa5374e57b4ad71,60e57f8a3d2776f571787c24,2021-07-07_12h20.35.835,Simcolourproject_2stim_asymm_v5,2020.2.10,Win32,60,60e52e7cfedb1dae636df45f,,,,,,,,,2952,51,-106,1,0,0,response3disk,,4,8,13,1,0,0,rectangle,8,13,1,0,0,,,,,,,8,13,1,0,0,,1,92,252,126,1,
,,,,,,,,,,,,,FF,,,,,,,,1.4786,,,,,,,,,,,,,,,,,,,,,,60da905f8fa5374e57b4ad71,60e57f8a3d2776f571787c24,2021-07-07_12h20.35.835,Simcolourproject_2stim_asymm_v5,2020.2.10,Win32,60,60e52e7cfedb1dae636df45f,,,,,,,,,4184,36,-105,1,0,0,response3disk,,4,-4,-3,1,0,0,rectangle,48,-129,1,0,0,response3disk_3,TRUE,4,4,"[138,46,254,284,241,254,282,119,274,157,24,258,137,74,15,183,60,220,104,1]",1.1183,0,1,1,0,0,rectangle,1,93,253,63,1,
,,,,,,,,,,,,,FF,,,,,,,,1.298,,,,,,,,,,,,,,,,,,,,,,60da905f8fa5374e57b4ad71,60e57f8a3d2776f571787c24,2021-07-07_12h20.35.835,Simcolourproject_2stim_asymm_v5,2020.2.10,Win32,60,60e52e7cfedb1dae636df45f,,,,,,,,,1896,-84,-111,1,0,0,response5disk,,3,-2,-10,1,0,0,rectangle,-2,-10,1,0,0,,,,,,,-2,-10,1,0,0,,1,94,254,77,1,
,,,,,,,,,,,,,FF,,,,,,,,1.48,,,,,,,,,,,,,,,,,,,,,,60da905f8fa5374e57b4ad71,60e57f8a3d2776f571787c24,2021-07-07_12h20.35.835,Simcolourproject_2stim_asymm_v5,2020.2.10,Win32,60,60e52e7cfedb1dae636df45f,,,,,,,,,2153,82,-150,1,0,0,response3disk,,4,-3,-2,1,0,0,rectangle,-3,-2,1,0,0,,,,,,,-3,-2,1,0,0,,1,95,255,75,1,
,,,,,,,,,,,,,FF,,,,,,,,3.9788,,,,,,,,,,,,,,,,,,,,,,60da905f8fa5374e57b4ad71,60e57f8a3d2776f571787c24,2021-07-07_12h20.35.835,Simcolourproject_2stim_asymm_v5,2020.2.10,Win32,60,60e52e7cfedb1dae636df45f,,,,,,,,,2313,88,43,1,0,0,response1disk,,6,-10,5,1,0,0,rectangle,-10,5,1,0,0,,,,,,,-10,5,1,0,0,,1,96,256,98,1,
,,,,,,,,,,,,,FF,,,,,,,,1.271,,,,,,,,,,,,,,,,,,,,,,60da905f8fa5374e57b4ad71,60e57f8a3d2776f571787c24,2021-07-07_12h20.35.835,Simcolourproject_2stim_asymm_v5,2020.2.10,Win32,60,60e52e7cfedb1dae636df45f,,,,,,,,,3972,-66,-118,1,0,0,response5disk,,3,-5,-8,1,0,0,rectangle,-50,-133,1,0,0,response5disk_3,TRUE,3,3,"[138,46,254,284,241,254,282,119,274,157,24,258,137,74,15,183,60,220,104,1]",1.2293,1,-7,1,0,0,rectangle,1,97,257,74,1,
,,,,,,,,,,,,,FF,,,,,,,,1.5479,,,,,,,,,,,,,,,,,,,,,,60da905f8fa5374e57b4ad71,60e57f8a3d2776f571787c24,2021-07-07_12h20.35.835,Simcolourproject_2stim_asymm_v5,2020.2.10,Win32,60,60e52e7cfedb1dae636df45f,,,,,,,,,3549,36,-114,1,0,0,response3disk,,4,-5,12,1,0,0,rectangle,-5,12,1,0,0,,,,,,,-5,12,1,0,0,,1,98,258,153,1,
,,,,,,,,,,,,,FF,,,,,,,,1.2354,,,,,,,,,,,,,,,,,,,,,,60da905f8fa5374e57b4ad71,60e57f8a3d2776f571787c24,2021-07-07_12h20.35.835,Simcolourproject_2stim_asymm_v5,2020.2.10,Win32,60,60e52e7cfedb1dae636df45f,,,,,,,,,4003,-55,-127,1,0,0,response5disk,,3,-17,-5,1,0,0,rectangle,-17,-5,1,0,0,,,,,,,-17,-5,1,0,0,,1,99,259,29,1,
,,,,,,,,,,,,,FF,,,,,,,,0.9793,,,,,,,,,,,,,,,,,,,,,,60da905f8fa5374e57b4ad71,60e57f8a3d2776f571787c24,2021-07-07_12h20.35.835,Simcolourproject_2stim_asymm_v5,2020.2.10,Win32,60,60e52e7cfedb1dae636df45f,,,,,,,,,2475,89,-59,1,0,0,response3disk,,5,1,2,1,0,0,rectangle,1,2,1,0,0,,,,,,,1,2,1,0,0,,1,100,260,1,1,
,,,,,,,,,,,,,FF,,,,,,,,3.1738,,,,,,,,,,,,,,,,,,,,,,60da905f8fa5374e57b4ad71,60e57f8a3d2776f571787c24,2021-07-07_12h20.35.835,Simcolourproject_2stim_asymm_v5,2020.2.10,Win32,60,60e52e7cfedb1dae636df45f,,,,,,,,,56,126,48,1,0,0,response1disk,,6,-20,5,1,0,0,rectangle,-20,5,1,0,0,,,,,,,-20,5,1,0,0,,1,101,261,50,1,
,,,,,,,,,,,,,FF,,,,,,,,0.9645,,,,,,,,,,,,,,,,,,,,,,60da905f8fa5374e57b4ad71,60e57f8a3d2776f571787c24,2021-07-07_12h20.35.835,Simcolourproject_2stim_asymm_v5,2020.2.10,Win32,60,60e52e7cfedb1dae636df45f,,,,,,,,,829,106,-46,1,0,0,response3disk,,5,8,-3,1,0,0,rectangle,8,-3,1,0,0,,,,,,,8,-3,1,0,0,,1,102,262,144,1,
,,,,,,,,,,,,,FF,,,,,,,,0.8604,,,,,,,,,,,,,,,,,,,,,,60da905f8fa5374e57b4ad71,60e57f8a3d2776f571787c24,2021-07-07_12h20.35.835,Simcolourproject_2stim_asymm_v5,2020.2.10,Win32,60,60e52e7cfedb1dae636df45f,,,,,,,,,444,-111,-54,1,0,0,response5disk,,2,20,-6,1,0,0,rectangle,20,-6,1,0,0,,,,,,,20,-6,1,0,0,,1,103,263,120,1,
,,,,,,,,,,,,,FF,,,,,,,,0.9584,,,,,,,,,,,,,,,,,,,,,,60da905f8fa5374e57b4ad71,60e57f8a3d2776f571787c24,2021-07-07_12h20.35.835,Simcolourproject_2stim_asymm_v5,2020.2.10,Win32,60,60e52e7cfedb1dae636df45f,,,,,,,,,807,-103,-51,1,0,0,response5disk,,2,-9,4,1,0,0,rectangle,-9,4,1,0,0,,,,,,,-9,4,1,0,0,,1,104,264,142,1,
,,,,,,,,,,,,,FF,,,,,,,,1.4367,,,,,,,,,,,,,,,,,,,,,,60da905f8fa5374e57b4ad71,60e57f8a3d2776f571787c24,2021-07-07_12h20.35.835,Simcolourproject_2stim_asymm_v5,2020.2.10,Win32,60,60e52e7cfedb1dae636df45f,,,,,,,,,709,-42,-117,1,0,0,response5disk,,3,18,-6,1,0,0,rectangle,18,-6,1,0,0,,,,,,,18,-6,1,0,0,,1,105,265,60,1,
,,,,,,,,,,,,,FF,,,,,,,,1.5863,,,,,,,,,,,,,,,,,,,,,,60da905f8fa5374e57b4ad71,60e57f8a3d2776f571787c24,2021-07-07_12h20.35.835,Simcolourproject_2stim_asymm_v5,2020.2.10,Win32,60,60e52e7cfedb1dae636df45f,,,,,,,,,3126,103,-51,1,0,0,response3disk,,5,4,5,1,0,0,rectangle,4,5,1,0,0,,,,,,,4,5,1,0,0,,1,106,266,71,1,
,,,,,,,,,,,,,FF,,,,,,,,1.5626,,,,,,,,,,,,,,,,,,,,,,60da905f8fa5374e57b4ad71,60e57f8a3d2776f571787c24,2021-07-07_12h20.35.835,Simcolourproject_2stim_asymm_v5,2020.2.10,Win32,60,60e52e7cfedb1dae636df45f,,,,,,,,,1981,79,114,1,0,0,response1disk,,7,-6,9,1,0,0,rectangle,-6,9,1,0,0,,,,,,,-6,9,1,0,0,,1,107,267,64,1,
,,,,,,,,,,,,,FF,,,,,,,,4.2922,,,,,,,,,,,,,,,,,,,,,,60da905f8fa5374e57b4ad71,60e57f8a3d2776f571787c24,2021-07-07_12h20.35.835,Simcolourproject_2stim_asymm_v5,2020.2.10,Win32,60,60e52e7cfedb1dae636df45f,,,,,,,,,1379,-111,-60,1,0,0,response5disk,,2,-12,16,1,0,0,rectangle,-12,16,1,0,0,,,,,,,-12,16,1,0,0,,1,108,268,87,1,
,,,,,,,,,,,,,FF,,,,,,,,1.187,,,,,,,,,,,,,,,,,,,,,,60da905f8fa5374e57b4ad71,60e57f8a3d2776f571787c24,2021-07-07_12h20.35.835,Simcolourproject_2stim_asymm_v5,2020.2.10,Win32,60,60e52e7cfedb1dae636df45f,,,,,,,,,1066,87,-114,1,0,0,response3disk,,4,11,-19,1,0,0,rectangle,11,-19,1,0,0,,,,,,,11,-19,1,0,0,,1,109,269,104,1,
,,,,,,,,,,,,,FF,,,,,,,,0.6042,,,,,,,,,,,,,,,,,,,,,,60da905f8fa5374e57b4ad71,60e57f8a3d2776f571787c24,2021-07-07_12h20.35.835,Simcolourproject_2stim_asymm_v5,2020.2.10,Win32,60,60e52e7cfedb1dae636df45f,,,,,,,,,3630,-63,122,1,0,0,response7disk,,0,-22,0,1,0,0,rectangle,-22,0,1,0,0,,,,,,,-22,0,1,0,0,,1,110,270,7,1,
,,,,,,,,,,,,,FF,,,,,,,,2.5421,,,,,,,,,,,,,,,,,,,,,,60da905f8fa5374e57b4ad71,60e57f8a3d2776f571787c24,2021-07-07_12h20.35.835,Simcolourproject_2stim_asymm_v5,2020.2.10,Win32,60,60e52e7cfedb1dae636df45f,,,,,,,,,568,-45,-114,1,0,0,response5disk,,3,-13,4,1,0,0,rectangle,-13,4,1,0,0,,,,,,,-13,4,1,0,0,,1,111,271,152,1,
,,,,,,,,,,,,,FF,,,,,,,,1.4369,,,,,,,,,,,,,,,,,,,,,,60da905f8fa5374e57b4ad71,60e57f8a3d2776f571787c24,2021-07-07_12h20.35.835,Simcolourproject_2stim_asymm_v5,2020.2.10,Win32,60,60e52e7cfedb1dae636df45f,,,,,,,,,3334,118,-57,1,0,0,response3disk,,5,-9,2,1,0,0,rectangle,-9,2,1,0,0,,,,,,,-9,2,1,0,0,,1,112,272,149,1,
,,,,,,,,,,,,,FF,,,,,,,,1.1531,,,,,,,,,,,,,,,,,,,,,,60da905f8fa5374e57b4ad71,60e57f8a3d2776f571787c24,2021-07-07_12h20.35.835,Simcolourproject_2stim_asymm_v5,2020.2.10,Win32,60,60e52e7cfedb1dae636df45f,,,,,,,,,290,60,139,1,0,0,response1disk,,7,-2,-3,1,0,0,rectangle,-110,42,1,0,0,response7disk_3,TRUE,1,1,"[138,46,254,284,241,254,282,119,274,157,24,258,137,74,15,183,60,220,104,1]",1.563,-12,-1,1,0,0,rectangle,1,113,273,5,1,
,,,,,,,,,,,,,FF,,,,,,,,0.8819,,,,,,,,,,,,,,,,,,,,,,60da905f8fa5374e57b4ad71,60e57f8a3d2776f571787c24,2021-07-07_12h20.35.835,Simcolourproject_2stim_asymm_v5,2020.2.10,Win32,60,60e52e7cfedb1dae636df45f,,,,,,,,,2667,-119,51,1,0,0,response7disk,,1,-5,-6,1,0,0,rectangle,-5,-6,1,0,0,,,,,,,-5,-6,1,0,0,,1,114,274,17,1,
,,,,,,,,,,,,,FF,,,,,,,,1.1112,,,,,,,,,,,,,,,,,,,,,,60da905f8fa5374e57b4ad71,60e57f8a3d2776f571787c24,2021-07-07_12h20.35.835,Simcolourproject_2stim_asymm_v5,2020.2.10,Win32,60,60e52e7cfedb1dae636df45f,,,,,,,,,213,-42,-116,1,0,0,response5disk,,3,6,-15,1,0,0,rectangle,6,-15,1,0,0,,,,,,,6,-15,1,0,0,,1,115,275,53,1,
,,,,,,,,,,,,,FF,,,,,,,,1.104,,,,,,,,,,,,,,,,,,,,,,60da905f8fa5374e57b4ad71,60e57f8a3d2776f571787c24,2021-07-07_12h20.35.835,Simcolourproject_2stim_asymm_v5,2020.2.10,Win32,60,60e52e7cfedb1dae636df45f,,,,,,,,,684,110,42,1,0,0,response1disk,,6,15,-15,1,0,0,rectangle,15,-15,1,0,0,,,,,,,15,-15,1,0,0,,1,116,276,100,1,
,,,,,,,,,,,,,FF,,,,,,,,0.7911,,,,,,,,,,,,,,,,,,,,,,60da905f8fa5374e57b4ad71,60e57f8a3d2776f571787c24,2021-07-07_12h20.35.835,Simcolourproject_2stim_asymm_v5,2020.2.10,Win32,60,60e52e7cfedb1dae636df45f,,,,,,,,,4129,-53,-117,1,0,0,response5disk,,3,-1,-8,1,0,0,rectangle,-1,-8,1,0,0,,,,,,,-1,-8,1,0,0,,1,117,277,65,1,
,,,,,,,,,,,,,FF,,,,,,,,0.7291,,,,,,,,,,,,,,,,,,,,,,60da905f8fa5374e57b4ad71,60e57f8a3d2776f571787c24,2021-07-07_12h20.35.835,Simcolourproject_2stim_asymm_v5,2020.2.10,Win32,60,60e52e7cfedb1dae636df45f,,,,,,,,,3711,-112,-46,1,0,0,response5disk,,2,17,-17,1,0,0,rectangle,17,-17,1,0,0,,,,,,,17,-17,1,0,0,,1,118,278,129,1,
,,,,,,,,,,,,,FF,,,,,,,,0.9584,,,,,,,,,,,,,,,,,,,,,,60da905f8fa5374e57b4ad71,60e57f8a3d2776f571787c24,2021-07-07_12h20.35.835,Simcolourproject_2stim_asymm_v5,2020.2.10,Win32,60,60e52e7cfedb1dae636df45f,,,,,,,,,15,63,-130,1,0,0,response3disk,,4,-18,2,1,0,0,rectangle,-18,2,1,0,0,,,,,,,-18,2,1,0,0,,1,119,279,116,1,
,,,,,,,,,,,,,FF,,,,,,,,1.2359,,,,,,,,,,,,,,,,,,,,,,60da905f8fa5374e57b4ad71,60e57f8a3d2776f571787c24,2021-07-07_12h20.35.835,Simcolourproject_2stim_asymm_v5,2020.2.10,Win32,60,60e52e7cfedb1dae636df45f,,,,,,,,,2508,59,94,1,0,0,response1disk,,7,17,8,1,0,0,rectangle,17,8,1,0,0,,,,,,,17,8,1,0,0,,1,120,280,12,1,
,,,,,,,,,,,,,FF,,,,,,,,1.4583,,,,,,,,,,,,,,,,,,,,,,60da905f8fa5374e57b4ad71,60e57f8a3d2776f571787c24,2021-07-07_12h20.35.835,Simcolourproject_2stim_asymm_v5,2020.2.10,Win32,60,60e52e7cfedb1dae636df45f,,,,,,,,,3440,115,-46,1,0,0,response3disk,,5,7,-13,1,0,0,rectangle,-156,61,1,0,0,response7disk_3,TRUE,1,1,"[138,46,254,284,241,254,282,119,274,157,24,258,137,74,15,183,60,220,104,1]",1.3674,15,-11,1,0,0,rectangle,1,121,281,105,1,
,,,,,,,,,,,,,FF,,,,,,,,1.2985,,,,,,,,,,,,,,,,,,,,,,60da905f8fa5374e57b4ad71,60e57f8a3d2776f571787c24,2021-07-07_12h20.35.835,Simcolourproject_2stim_asymm_v5,2020.2.10,Win32,60,60e52e7cfedb1dae636df45f,,,,,,,,,1458,-120,-56,1,0,0,response5disk,,2,15,8,1,0,0,rectangle,15,8,1,0,0,,,,,,,15,8,1,0,0,,1,122,282,151,1,
,,,,,,,,,,,,,FF,,,,,,,,0.8333,,,,,,,,,,,,,,,,,,,,,,60da905f8fa5374e57b4ad71,60e57f8a3d2776f571787c24,2021-07-07_12h20.35.835,Simcolourproject_2stim_asymm_v5,2020.2.10,Win32,60,60e52e7cfedb1dae636df45f,,,,,,,,,1244,-52,-122,1,0,0,response5disk,,3,9,-9,1,0,0,rectangle,106,-57,1,0,0,response3disk_3,TRUE,5,5,"[138,46,254,284,241,254,282,119,274,157,24,258,137,74,15,183,60,220,104,1]",1.1737,1,-3,1,0,0,rectangle,1,123,283,24,1,
,,,,,,,,,,,,,FF,,,,,,,,0.743,,,,,,,,,,,,,,,,,,,,,,60da905f8fa5374e57b4ad71,60e57f8a3d2776f571787c24,2021-07-07_12h20.35.835,Simcolourproject_2stim_asymm_v5,2020.2.10,Win32,60,60e52e7cfedb1dae636df45f,,,,,,,,,2931,65,120,1,0,0,response1disk,,7,-11,7,1,0,0,rectangle,-11,7,1,0,0,,,,,,,-11,7,1,0,0,,1,124,284,137,1,
,,,,,,,,,,,,,FF,,,,,,,,1.6804,,,,,,,,,,,,,,,,,,,,,,60da905f8fa5374e57b4ad71,60e57f8a3d2776f571787c24,2021-07-07_12h20.35.835,Simcolourproject_2stim_asymm_v5,2020.2.10,Win32,60,60e52e7cfedb1dae636df45f,,,,,,,,,2631,63,125,1,0,0,response1disk,,7,-2,7,1,0,0,rectangle,-2,7,1,0,0,,,,,,,-2,7,1,0,0,,1,125,285,128,1,
,,,,,,,,,,,,,FF,,,,,,,,5.2289,,,,,,,,,,,,,,,,,,,,,,60da905f8fa5374e57b4ad71,60e57f8a3d2776f571787c24,2021-07-07_12h20.35.835,Simcolourproject_2stim_asymm_v5,2020.2.10,Win32,60,60e52e7cfedb1dae636df45f,,,,,,,,,1182,113,-47,1,0,0,response3disk,,5,12,4,1,0,0,rectangle,12,4,1,0,0,,,,,,,12,4,1,0,0,,1,126,286,46,1,
,,,,,,,,,,,,,FF,,,,,,,,6.1737,,,,,,,,,,,,,,,,,,,,,,60da905f8fa5374e57b4ad71,60e57f8a3d2776f571787c24,2021-07-07_12h20.35.835,Simcolourproject_2stim_asymm_v5,2020.2.10,Win32,60,60e52e7cfedb1dae636df45f,,,,,,,,,1028,60,115,1,0,0,response1disk,,7,-13,-4,1,0,0,rectangle,-13,-4,1,0,0,,,,,,,-13,-4,1,0,0,,1,127,287,62,1,
,,,,,,,,,,,,,FF,,,,,,,,7.91,,,,,,,,,,,,,,,,,,,,,,60da905f8fa5374e57b4ad71,60e57f8a3d2776f571787c24,2021-07-07_12h20.35.835,Simcolourproject_2stim_asymm_v5,2020.2.10,Win32,60,60e52e7cfedb1dae636df45f,,,,,,,,,2520,114,-56,1,0,0,response3disk,,5,12,5,1,0,0,rectangle,12,5,1,0,0,,,,,,,12,5,1,0,0,,1,128,288,86,1,
,,,,,,,,,,,,,FF,,,,,,,,1.3264,,,,,,,,,,,,,,,,,,,,,,60da905f8fa5374e57b4ad71,60e57f8a3d2776f571787c24,2021-07-07_12h20.35.835,Simcolourproject_2stim_asymm_v5,2020.2.10,Win32,60,60e52e7cfedb1dae636df45f,,,,,,,,,471,105,41,1,0,0,response1disk,,6,-2,-5,1,0,0,rectangle,-2,-5,1,0,0,,,,,,,-2,-5,1,0,0,,1,129,289,14,1,
,,,,,,,,,,,,,FF,,,,,,,,1.458,,,,,,,,,,,,,,,,,,,,,,60da905f8fa5374e57b4ad71,60e57f8a3d2776f571787c24,2021-07-07_12h20.35.835,Simcolourproject_2stim_asymm_v5,2020.2.10,Win32,60,60e52e7cfedb1dae636df45f,,,,,,,,,2969,72,106,1,0,0,response1disk,,7,-10,-7,1,0,0,rectangle,-10,-7,1,0,0,,,,,,,-10,-7,1,0,0,,1,130,290,67,1,
,,,,,,,,,,,,,FF,,,,,,,,2.8476,,,,,,,,,,,,,,,,,,,,,,60da905f8fa5374e57b4ad71,60e57f8a3d2776f571787c24,2021-07-07_12h20.35.835,Simcolourproject_2stim_asymm_v5,2020.2.10,Win32,60,60e52e7cfedb1dae636df45f,,,,,,,,,361,116,51,1,0,0,response1disk,,6,19,-18,1,0,0,rectangle,19,-18,1,0,0,,,,,,,19,-18,1,0,0,,1,131,291,124,1,
,,,,,,,,,,,,,FF,,,,,,,,1.2569,,,,,,,,,,,,,,,,,,,,,,60da905f8fa5374e57b4ad71,60e57f8a3d2776f571787c24,2021-07-07_12h20.35.835,Simcolourproject_2stim_asymm_v5,2020.2.10,Win32,60,60e52e7cfedb1dae636df45f,,,,,,,,,1363,61,-123,1,0,0,response3disk,,4,-20,13,1,0,0,rectangle,-20,13,1,0,0,,,,,,,-20,13,1,0,0,,1,132,292,132,1,
,,,,,,,,,,,,,FF,,,,,,,,1.4508,,,,,,,,,,,,,,,,,,,,,,60da905f8fa5374e57b4ad71,60e57f8a3d2776f571787c24,2021-07-07_12h20.35.835,Simcolourproject_2stim_asymm_v5,2020.2.10,Win32,60,60e52e7cfedb1dae636df45f,,,,,,,,,4228,96,-59,1,0,0,response3disk,,5,23,-13,1,0,0,rectangle,23,-13,1,0,0,,,,,,,23,-13,1,0,0,,1,133,293,26,1,
,,,,,,,,,,,,,FF,,,,,,,,1.4862,,,,,,,,,,,,,,,,,,,,,,60da905f8fa5374e57b4ad71,60e57f8a3d2776f571787c24,2021-07-07_12h20.35.835,Simcolourproject_2stim_asymm_v5,2020.2.10,Win32,60,60e52e7cfedb1dae636df45f,,,,,,,,,2338,120,36,1,0,0,response1disk,,6,12,-19,1,0,0,rectangle,12,-19,1,0,0,,,,,,,12,-19,1,0,0,,1,134,294,22,1,
,,,,,,,,,,,,,FF,,,,,,,,1.2291,,,,,,,,,,,,,,,,,,,,,,60da905f8fa5374e57b4ad71,60e57f8a3d2776f571787c24,2021-07-07_12h20.35.835,Simcolourproject_2stim_asymm_v5,2020.2.10,Win32,60,60e52e7cfedb1dae636df45f,,,,,,,,,1284,94,-79,1,0,0,response3disk,,5,-38,7,1,0,0,rectangle,-38,7,1,0,0,,,,,,,-38,7,1,0,0,,1,135,295,93,1,
,,,,,,,,,,,,,FF,,,,,,,,1.9513,,,,,,,,,,,,,,,,,,,,,,60da905f8fa5374e57b4ad71,60e57f8a3d2776f571787c24,2021-07-07_12h20.35.835,Simcolourproject_2stim_asymm_v5,2020.2.10,Win32,60,60e52e7cfedb1dae636df45f,,,,,,,,,2194,116,-55,1,0,0,response3disk,,5,12,19,1,0,0,rectangle,12,19,1,0,0,,,,,,,12,19,1,0,0,,1,136,296,47,1,
,,,,,,,,,,,,,FF,,,,,,,,1.0556,,,,,,,,,,,,,,,,,,,,,,60da905f8fa5374e57b4ad71,60e57f8a3d2776f571787c24,2021-07-07_12h20.35.835,Simcolourproject_2stim_asymm_v5,2020.2.10,Win32,60,60e52e7cfedb1dae636df45f,,,,,,,,,1387,-55,-124,1,0,0,response5disk,,3,6,8,1,0,0,rectangle,6,8,1,0,0,,,,,,,6,8,1,0,0,,1,137,297,113,1,
,,,,,,,,,,,,,FF,,,,,,,,0.8815,,,,,,,,,,,,,,,,,,,,,,60da905f8fa5374e57b4ad71,60e57f8a3d2776f571787c24,2021-07-07_12h20.35.835,Simcolourproject_2stim_asymm_v5,2020.2.10,Win32,60,60e52e7cfedb1dae636df45f,,,,,,,,,3118,56,-123,1,0,0,response3disk,,4,19,-10,1,0,0,rectangle,19,-10,1,0,0,,,,,,,19,-10,1,0,0,,1,138,298,9,1,
,,,,,,,,,,,,,FF,,,,,,,,0.9095,,,,,,,,,,,,,,,,,,,,,,60da905f8fa5374e57b4ad71,60e57f8a3d2776f571787c24,2021-07-07_12h20.35.835,Simcolourproject_2stim_asymm_v5,2020.2.10,Win32,60,60e52e7cfedb1dae636df45f,,,,,,,,,619,-132,-51,1,0,0,response5disk,,2,-4,-12,1,0,0,rectangle,-4,-12,1,0,0,,,,,,,-4,-12,1,0,0,,1,139,299,154,1,
,,,,,,,,,,,,,FF,,,,,,,,1.6668,,,,,,,,,,,,,,,,,,,,,,60da905f8fa5374e57b4ad71,60e57f8a3d2776f571787c24,2021-07-07_12h20.35.835,Simcolourproject_2stim_asymm_v5,2020.2.10,Win32,60,60e52e7cfedb1dae636df45f,,,,,,,,,3371,54,-116,1,0,0,response3disk,,4,-7,-7,1,0,0,rectangle,-7,-7,1,0,0,,,,,,,-7,-7,1,0,0,,1,140,300,88,1,
