key_resp.keys,key_resp.rt,key_resp_14.keys,key_resp_14.rt,key_resp_15.keys,key_resp_15.rt,key_resp_17.keys,key_resp_17.rt,key_resp_9.keys,key_resp_9.rt,key_resp_10.keys,key_resp_10.rt,practice_comparison,Ecc,mouse_5.x,mouse_5.y,mouse_5.leftButton,mouse_5.midButton,mouse_5.rightButton,mouse_5.clicked_name,pracsimilarity,response_time,mouse_10.x,mouse_10.y,mouse_10.leftButton,mouse_10.midButton,mouse_10.rightButton,mouse_10.clicked_name,mouse_7.x,mouse_7.y,mouse_7.leftButton,mouse_7.midButton,mouse_7.rightButton,mouse_6.x,mouse_6.y,mouse_6.leftButton,mouse_6.midButton,mouse_6.rightButton,duringprac.thisRepN,duringprac.thisTrialN,duringprac.thisN,duringprac.thisIndex,duringprac.ran,participant,session,date,expName,psychopyVersion,OS,frameRate,study_id,mouse_7.clicked_name,catchpracsimilarity,catch_response_time,catchnumberprac,catchtrialorderprac,mouse_6.clicked_name,key_resp_22.keys,key_resp_22.rt,realcomparison,mouse.x,mouse.y,mouse.leftButton,mouse.midButton,mouse.rightButton,mouse.clicked_name,Colour2,similarity,mouse_2.x,mouse_2.y,mouse_2.leftButton,mouse_2.midButton,mouse_2.rightButton,mouse_2.clicked_name,mouse_3.x,mouse_3.y,mouse_3.leftButton,mouse_3.midButton,mouse_3.rightButton,mouse_11.x,mouse_11.y,mouse_11.leftButton,mouse_11.midButton,mouse_11.rightButton,trials_2.thisRepN,trials_2.thisTrialN,trials_2.thisN,trials_2.thisIndex,trials_2.ran,Colour1,mouse_3.clicked_name,catchornah,catchsimilarity,catchnumber,catchtrialorder,catchRT,mouse_11.clicked_name
space,5.2187,space,26.3399,space,33.6082,space,21.9291,space,30.3019,space,16.7936,110,FF,-52,-36,1,0,0,response5disk_5,2,6.6297,2,2,1,0,0,rectangle_8,2,2,1,0,0,2,2,1,0,0,0,0,0,0,1,60de3d32aeb7f2a8b4bba07d,60e563a6486a4d6c555c3f23,2021-07-07_10h21.30.088,Simcolourproject_2stim_asymm_v5,2020.2.10,Win32,60,60e52e7cfedb1dae636df45f,,,,,,,,,,,,,,,,,,,,,,,,,,,,,,,,,,,,,,,,,,,,,,
,,,,,,,,,,,,33,PF,29,91,1,0,0,response1disk_5,7,14.284,-5,9,1,0,0,rectangle_8,89,-46,1,0,0,-3,-2,1,0,0,0,1,1,2,1,60de3d32aeb7f2a8b4bba07d,60e563a6486a4d6c555c3f23,2021-07-07_10h21.30.088,Simcolourproject_2stim_asymm_v5,2020.2.10,Win32,60,60e52e7cfedb1dae636df45f,response3disk_7,5,6.3106,5,"[2,5]",rectangle_4,,,,,,,,,,,,,,,,,,,,,,,,,,,,,,,,,,,,,,,,
,,,,,,,,,,,,56,FF,39,89,1,0,0,response1disk_5,7,3.0067,7,-9,1,0,0,rectangle_8,7,-9,1,0,0,7,-9,1,0,0,0,2,2,5,1,60de3d32aeb7f2a8b4bba07d,60e563a6486a4d6c555c3f23,2021-07-07_10h21.30.088,Simcolourproject_2stim_asymm_v5,2020.2.10,Win32,60,60e52e7cfedb1dae636df45f,,,,,,,,,,,,,,,,,,,,,,,,,,,,,,,,,,,,,,,,,,,,,,
,,,,,,,,,,,,120,PF,35,84,1,0,0,response1disk_5,7,3.7522,-7,-4,1,0,0,rectangle_8,-7,-4,1,0,0,-7,-4,1,0,0,0,3,3,4,1,60de3d32aeb7f2a8b4bba07d,60e563a6486a4d6c555c3f23,2021-07-07_10h21.30.088,Simcolourproject_2stim_asymm_v5,2020.2.10,Win32,60,60e52e7cfedb1dae636df45f,,,,,,,,,,,,,,,,,,,,,,,,,,,,,,,,,,,,,,,,,,,,,,
,,,,,,,,,,,,87,PF,43,94,1,0,0,response1disk_5,7,5.7838,3,9,1,0,0,rectangle_8,100,-47,1,0,0,18,4,1,0,0,0,4,4,6,1,60de3d32aeb7f2a8b4bba07d,60e563a6486a4d6c555c3f23,2021-07-07_10h21.30.088,Simcolourproject_2stim_asymm_v5,2020.2.10,Win32,60,60e52e7cfedb1dae636df45f,response3disk_7,5,3.7007,5,"[2,5]",rectangle_4,,,,,,,,,,,,,,,,,,,,,,,,,,,,,,,,,,,,,,,,
,,,,,,,,,,,,104,PF,41,80,1,0,0,response1disk_5,7,10.0157,3,-12,1,0,0,rectangle_8,3,-12,1,0,0,3,-12,1,0,0,0,5,5,1,1,60de3d32aeb7f2a8b4bba07d,60e563a6486a4d6c555c3f23,2021-07-07_10h21.30.088,Simcolourproject_2stim_asymm_v5,2020.2.10,Win32,60,60e52e7cfedb1dae636df45f,,,,,,,,,,,,,,,,,,,,,,,,,,,,,,,,,,,,,,,,,,,,,,
,,,,,,,,,,,,142,FF,33,95,1,0,0,response1disk_5,7,1.771,-1,2,1,0,0,rectangle_8,-1,2,1,0,0,-1,2,1,0,0,0,6,6,3,1,60de3d32aeb7f2a8b4bba07d,60e563a6486a4d6c555c3f23,2021-07-07_10h21.30.088,Simcolourproject_2stim_asymm_v5,2020.2.10,Win32,60,60e52e7cfedb1dae636df45f,,,,,,,,,,,,,,,,,,,,,,,,,,,,,,,,,,,,,,,,,,,,,,
,,,,,,,,,,,,,FF,,,,,,,,5.2253,,,,,,,,,,,,,,,,,,,,,,60de3d32aeb7f2a8b4bba07d,60e563a6486a4d6c555c3f23,2021-07-07_10h21.30.088,Simcolourproject_2stim_asymm_v5,2020.2.10,Win32,60,60e52e7cfedb1dae636df45f,,,,,,,space,18.2473,4282,58,112,1,0,0,response1disk,,7,0,12,1,0,0,rectangle,0,12,1,0,0,0,12,1,0,0,0,0,0,111,1,,,,,,,,
,,,,,,,,,,,,,FF,,,,,,,,3.2846,,,,,,,,,,,,,,,,,,,,,,60de3d32aeb7f2a8b4bba07d,60e563a6486a4d6c555c3f23,2021-07-07_10h21.30.088,Simcolourproject_2stim_asymm_v5,2020.2.10,Win32,60,60e52e7cfedb1dae636df45f,,,,,,,,,3694,31,77,1,0,0,response1disk,,7,6,-5,1,0,0,rectangle,6,-5,1,0,0,6,-5,1,0,0,0,1,1,47,1,,,,,,,,
,,,,,,,,,,,,,FF,,,,,,,,15.7378,,,,,,,,,,,,,,,,,,,,,,60de3d32aeb7f2a8b4bba07d,60e563a6486a4d6c555c3f23,2021-07-07_10h21.30.088,Simcolourproject_2stim_asymm_v5,2020.2.10,Win32,60,60e52e7cfedb1dae636df45f,,,,,,,,,792,40,89,1,0,0,response1disk,,7,4,-8,1,0,0,rectangle,4,-8,1,0,0,4,-8,1,0,0,0,2,2,55,1,,,,,,,,
,,,,,,,,,,,,,FF,,,,,,,,5.7514,,,,,,,,,,,,,,,,,,,,,,60de3d32aeb7f2a8b4bba07d,60e563a6486a4d6c555c3f23,2021-07-07_10h21.30.088,Simcolourproject_2stim_asymm_v5,2020.2.10,Win32,60,60e52e7cfedb1dae636df45f,,,,,,,,,1465,-64,90,1,0,0,response7disk,,0,2,-2,1,0,0,rectangle,2,-2,1,0,0,2,-2,1,0,0,0,3,3,37,1,,,,,,,,
,,,,,,,,,,,,,FF,,,,,,,,1.8325,,,,,,,,,,,,,,,,,,,,,,60de3d32aeb7f2a8b4bba07d,60e563a6486a4d6c555c3f23,2021-07-07_10h21.30.088,Simcolourproject_2stim_asymm_v5,2020.2.10,Win32,60,60e52e7cfedb1dae636df45f,,,,,,,,,34,43,81,1,0,0,response1disk,,7,-7,4,1,0,0,rectangle,40,79,1,0,0,-12,-1,1,0,0,0,4,4,7,1,,response1disk_3,TRUE,7,7,"[66,9,226,262,110,129,199,193,25,237,115,93,242,5,144,103,48,219,175,62]",4.3838,rectangle
,,,,,,,,,,,,,FF,,,,,,,,5.0908,,,,,,,,,,,,,,,,,,,,,,60de3d32aeb7f2a8b4bba07d,60e563a6486a4d6c555c3f23,2021-07-07_10h21.30.088,Simcolourproject_2stim_asymm_v5,2020.2.10,Win32,60,60e52e7cfedb1dae636df45f,,,,,,,,,1603,-41,102,1,0,0,response7disk,,0,2,-5,1,0,0,rectangle,2,-5,1,0,0,2,-5,1,0,0,0,5,5,41,1,,,,,,,,
,,,,,,,,,,,,,FF,,,,,,,,1.8186,,,,,,,,,,,,,,,,,,,,,,60de3d32aeb7f2a8b4bba07d,60e563a6486a4d6c555c3f23,2021-07-07_10h21.30.088,Simcolourproject_2stim_asymm_v5,2020.2.10,Win32,60,60e52e7cfedb1dae636df45f,,,,,,,,,2347,31,88,1,0,0,response1disk,,7,-9,6,1,0,0,rectangle,-9,6,1,0,0,-9,6,1,0,0,0,6,6,5,1,,,,,,,,
,,,,,,,,,,,,,FF,,,,,,,,3.119,,,,,,,,,,,,,,,,,,,,,,60de3d32aeb7f2a8b4bba07d,60e563a6486a4d6c555c3f23,2021-07-07_10h21.30.088,Simcolourproject_2stim_asymm_v5,2020.2.10,Win32,60,60e52e7cfedb1dae636df45f,,,,,,,,,2999,-52,97,1,0,0,response7disk,,0,4,6,1,0,0,rectangle,4,6,1,0,0,4,6,1,0,0,0,7,7,155,1,,,,,,,,
,,,,,,,,,,,,,FF,,,,,,,,1.6507,,,,,,,,,,,,,,,,,,,,,,60de3d32aeb7f2a8b4bba07d,60e563a6486a4d6c555c3f23,2021-07-07_10h21.30.088,Simcolourproject_2stim_asymm_v5,2020.2.10,Win32,60,60e52e7cfedb1dae636df45f,,,,,,,,,2495,51,68,1,0,0,response1disk,,7,-8,-8,1,0,0,rectangle,96,-55,1,0,0,17,-2,1,0,0,0,8,8,128,1,,response3disk_3,TRUE,5,5,"[66,9,226,262,110,129,199,193,25,237,115,93,242,5,144,103,48,219,175,62]",3.1513,rectangle
,,,,,,,,,,,,,FF,,,,,,,,2.3015,,,,,,,,,,,,,,,,,,,,,,60de3d32aeb7f2a8b4bba07d,60e563a6486a4d6c555c3f23,2021-07-07_10h21.30.088,Simcolourproject_2stim_asymm_v5,2020.2.10,Win32,60,60e52e7cfedb1dae636df45f,,,,,,,,,3837,36,67,1,0,0,response1disk,,7,-9,-2,1,0,0,rectangle,-9,-2,1,0,0,-9,-2,1,0,0,0,9,9,29,1,,,,,,,,
,,,,,,,,,,,,,FF,,,,,,,,1.8673,,,,,,,,,,,,,,,,,,,,,,60de3d32aeb7f2a8b4bba07d,60e563a6486a4d6c555c3f23,2021-07-07_10h21.30.088,Simcolourproject_2stim_asymm_v5,2020.2.10,Win32,60,60e52e7cfedb1dae636df45f,,,,,,,,,3726,39,87,1,0,0,response1disk,,7,-5,-1,1,0,0,rectangle,-5,-1,1,0,0,-5,-1,1,0,0,0,10,10,148,1,,,,,,,,
,,,,,,,,,,,,,FF,,,,,,,,1.7504,,,,,,,,,,,,,,,,,,,,,,60de3d32aeb7f2a8b4bba07d,60e563a6486a4d6c555c3f23,2021-07-07_10h21.30.088,Simcolourproject_2stim_asymm_v5,2020.2.10,Win32,60,60e52e7cfedb1dae636df45f,,,,,,,,,609,56,97,1,0,0,response1disk,,7,7,-3,1,0,0,rectangle,7,-3,1,0,0,7,-3,1,0,0,0,11,11,49,1,,,,,,,,
,,,,,,,,,,,,,FF,,,,,,,,1.735,,,,,,,,,,,,,,,,,,,,,,60de3d32aeb7f2a8b4bba07d,60e563a6486a4d6c555c3f23,2021-07-07_10h21.30.088,Simcolourproject_2stim_asymm_v5,2020.2.10,Win32,60,60e52e7cfedb1dae636df45f,,,,,,,,,2890,-41,74,1,0,0,response7disk,,0,0,-10,1,0,0,rectangle,0,-10,1,0,0,0,-10,1,0,0,0,12,12,0,1,,,,,,,,
,,,,,,,,,,,,,FF,,,,,,,,1.5508,,,,,,,,,,,,,,,,,,,,,,60de3d32aeb7f2a8b4bba07d,60e563a6486a4d6c555c3f23,2021-07-07_10h21.30.088,Simcolourproject_2stim_asymm_v5,2020.2.10,Win32,60,60e52e7cfedb1dae636df45f,,,,,,,,,3975,38,91,1,0,0,response1disk,,7,8,-12,1,0,0,rectangle,8,-12,1,0,0,8,-12,1,0,0,0,13,13,99,1,,,,,,,,
,,,,,,,,,,,,,FF,,,,,,,,1.5207,,,,,,,,,,,,,,,,,,,,,,60de3d32aeb7f2a8b4bba07d,60e563a6486a4d6c555c3f23,2021-07-07_10h21.30.088,Simcolourproject_2stim_asymm_v5,2020.2.10,Win32,60,60e52e7cfedb1dae636df45f,,,,,,,,,3005,24,90,1,0,0,response1disk,,7,15,2,1,0,0,rectangle,15,2,1,0,0,15,2,1,0,0,0,14,14,3,1,,,,,,,,
,,,,,,,,,,,,,FF,,,,,,,,1.6188,,,,,,,,,,,,,,,,,,,,,,60de3d32aeb7f2a8b4bba07d,60e563a6486a4d6c555c3f23,2021-07-07_10h21.30.088,Simcolourproject_2stim_asymm_v5,2020.2.10,Win32,60,60e52e7cfedb1dae636df45f,,,,,,,,,253,-38,95,1,0,0,response7disk,,0,-9,4,1,0,0,rectangle,-9,4,1,0,0,-9,4,1,0,0,0,15,15,30,1,,,,,,,,
,,,,,,,,,,,,,FF,,,,,,,,1.5015,,,,,,,,,,,,,,,,,,,,,,60de3d32aeb7f2a8b4bba07d,60e563a6486a4d6c555c3f23,2021-07-07_10h21.30.088,Simcolourproject_2stim_asymm_v5,2020.2.10,Win32,60,60e52e7cfedb1dae636df45f,,,,,,,,,1922,41,101,1,0,0,response1disk,,7,-1,11,1,0,0,rectangle,-1,11,1,0,0,-1,11,1,0,0,0,16,16,66,1,,,,,,,,
,,,,,,,,,,,,,FF,,,,,,,,2.7131,,,,,,,,,,,,,,,,,,,,,,60de3d32aeb7f2a8b4bba07d,60e563a6486a4d6c555c3f23,2021-07-07_10h21.30.088,Simcolourproject_2stim_asymm_v5,2020.2.10,Win32,60,60e52e7cfedb1dae636df45f,,,,,,,,,2418,-42,89,1,0,0,response7disk,,0,1,-3,1,0,0,rectangle,1,-3,1,0,0,1,-3,1,0,0,0,17,17,142,1,,,,,,,,
,,,,,,,,,,,,,FF,,,,,,,,1.4995,,,,,,,,,,,,,,,,,,,,,,60de3d32aeb7f2a8b4bba07d,60e563a6486a4d6c555c3f23,2021-07-07_10h21.30.088,Simcolourproject_2stim_asymm_v5,2020.2.10,Win32,60,60e52e7cfedb1dae636df45f,,,,,,,,,1439,34,84,1,0,0,response1disk,,7,-11,-6,1,0,0,rectangle,-11,-6,1,0,0,-11,-6,1,0,0,0,18,18,39,1,,,,,,,,
,,,,,,,,,,,,,FF,,,,,,,,2.1004,,,,,,,,,,,,,,,,,,,,,,60de3d32aeb7f2a8b4bba07d,60e563a6486a4d6c555c3f23,2021-07-07_10h21.30.088,Simcolourproject_2stim_asymm_v5,2020.2.10,Win32,60,60e52e7cfedb1dae636df45f,,,,,,,,,1472,36,83,1,0,0,response1disk,,7,-9,-2,1,0,0,rectangle,-9,-2,1,0,0,-9,-2,1,0,0,0,19,19,81,1,,,,,,,,
,,,,,,,,,,,,,FF,,,,,,,,1.3232,,,,,,,,,,,,,,,,,,,,,,60de3d32aeb7f2a8b4bba07d,60e563a6486a4d6c555c3f23,2021-07-07_10h21.30.088,Simcolourproject_2stim_asymm_v5,2020.2.10,Win32,60,60e52e7cfedb1dae636df45f,,,,,,,,,3683,39,77,1,0,0,response1disk,,7,-1,6,1,0,0,rectangle,-1,6,1,0,0,-1,6,1,0,0,0,20,20,97,1,,,,,,,,
,,,,,,,,,,,,,FF,,,,,,,,1.369,,,,,,,,,,,,,,,,,,,,,,60de3d32aeb7f2a8b4bba07d,60e563a6486a4d6c555c3f23,2021-07-07_10h21.30.088,Simcolourproject_2stim_asymm_v5,2020.2.10,Win32,60,60e52e7cfedb1dae636df45f,,,,,,,,,3652,40,85,1,0,0,response1disk,,7,-10,5,1,0,0,rectangle,-10,5,1,0,0,-10,5,1,0,0,0,21,21,44,1,,,,,,,,
,,,,,,,,,,,,,FF,,,,,,,,1.6671,,,,,,,,,,,,,,,,,,,,,,60de3d32aeb7f2a8b4bba07d,60e563a6486a4d6c555c3f23,2021-07-07_10h21.30.088,Simcolourproject_2stim_asymm_v5,2020.2.10,Win32,60,60e52e7cfedb1dae636df45f,,,,,,,,,2055,34,90,1,0,0,response1disk,,7,-16,6,1,0,0,rectangle,-16,6,1,0,0,-16,6,1,0,0,0,22,22,72,1,,,,,,,,
,,,,,,,,,,,,,FF,,,,,,,,1.4939,,,,,,,,,,,,,,,,,,,,,,60de3d32aeb7f2a8b4bba07d,60e563a6486a4d6c555c3f23,2021-07-07_10h21.30.088,Simcolourproject_2stim_asymm_v5,2020.2.10,Win32,60,60e52e7cfedb1dae636df45f,,,,,,,,,695,26,81,1,0,0,response1disk,,7,5,9,1,0,0,rectangle,5,9,1,0,0,5,9,1,0,0,0,23,23,100,1,,,,,,,,
,,,,,,,,,,,,,FF,,,,,,,,1.4817,,,,,,,,,,,,,,,,,,,,,,60de3d32aeb7f2a8b4bba07d,60e563a6486a4d6c555c3f23,2021-07-07_10h21.30.088,Simcolourproject_2stim_asymm_v5,2020.2.10,Win32,60,60e52e7cfedb1dae636df45f,,,,,,,,,297,53,77,1,0,0,response1disk,,7,2,-5,1,0,0,rectangle,-40,106,1,0,0,-2,2,1,0,0,0,24,24,58,1,,response7disk_3,TRUE,0,0,"[66,9,226,262,110,129,199,193,25,237,115,93,242,5,144,103,48,219,175,62]",5.5,rectangle
,,,,,,,,,,,,,FF,,,,,,,,3.6506,,,,,,,,,,,,,,,,,,,,,,60de3d32aeb7f2a8b4bba07d,60e563a6486a4d6c555c3f23,2021-07-07_10h21.30.088,Simcolourproject_2stim_asymm_v5,2020.2.10,Win32,60,60e52e7cfedb1dae636df45f,,,,,,,,,1739,-49,97,1,0,0,response7disk,,0,-12,2,1,0,0,rectangle,-12,2,1,0,0,-12,2,1,0,0,0,25,25,115,1,,,,,,,,
,,,,,,,,,,,,,FF,,,,,,,,1.2824,,,,,,,,,,,,,,,,,,,,,,60de3d32aeb7f2a8b4bba07d,60e563a6486a4d6c555c3f23,2021-07-07_10h21.30.088,Simcolourproject_2stim_asymm_v5,2020.2.10,Win32,60,60e52e7cfedb1dae636df45f,,,,,,,,,1230,-39,90,1,0,0,response7disk,,0,-18,-1,1,0,0,rectangle,-18,-1,1,0,0,-18,-1,1,0,0,0,26,26,59,1,,,,,,,,
,,,,,,,,,,,,,FF,,,,,,,,1.5095,,,,,,,,,,,,,,,,,,,,,,60de3d32aeb7f2a8b4bba07d,60e563a6486a4d6c555c3f23,2021-07-07_10h21.30.088,Simcolourproject_2stim_asymm_v5,2020.2.10,Win32,60,60e52e7cfedb1dae636df45f,,,,,,,,,1511,-39,83,1,0,0,response7disk,,0,-7,11,1,0,0,rectangle,-7,11,1,0,0,-7,11,1,0,0,0,27,27,19,1,,,,,,,,
,,,,,,,,,,,,,FF,,,,,,,,1.7846,,,,,,,,,,,,,,,,,,,,,,60de3d32aeb7f2a8b4bba07d,60e563a6486a4d6c555c3f23,2021-07-07_10h21.30.088,Simcolourproject_2stim_asymm_v5,2020.2.10,Win32,60,60e52e7cfedb1dae636df45f,,,,,,,,,1247,28,69,1,0,0,response1disk,,7,8,-9,1,0,0,rectangle,8,-9,1,0,0,8,-9,1,0,0,0,28,28,95,1,,,,,,,,
,,,,,,,,,,,,,FF,,,,,,,,1.7357,,,,,,,,,,,,,,,,,,,,,,60de3d32aeb7f2a8b4bba07d,60e563a6486a4d6c555c3f23,2021-07-07_10h21.30.088,Simcolourproject_2stim_asymm_v5,2020.2.10,Win32,60,60e52e7cfedb1dae636df45f,,,,,,,,,2880,-39,87,1,0,0,response7disk,,0,0,4,1,0,0,rectangle,0,4,1,0,0,0,4,1,0,0,0,29,29,6,1,,,,,,,,
,,,,,,,,,,,,,FF,,,,,,,,1.3727,,,,,,,,,,,,,,,,,,,,,,60de3d32aeb7f2a8b4bba07d,60e563a6486a4d6c555c3f23,2021-07-07_10h21.30.088,Simcolourproject_2stim_asymm_v5,2020.2.10,Win32,60,60e52e7cfedb1dae636df45f,,,,,,,,,857,38,78,1,0,0,response1disk,,7,3,4,1,0,0,rectangle,3,4,1,0,0,3,4,1,0,0,0,30,30,11,1,,,,,,,,
,,,,,,,,,,,,,FF,,,,,,,,1.2004,,,,,,,,,,,,,,,,,,,,,,60de3d32aeb7f2a8b4bba07d,60e563a6486a4d6c555c3f23,2021-07-07_10h21.30.088,Simcolourproject_2stim_asymm_v5,2020.2.10,Win32,60,60e52e7cfedb1dae636df45f,,,,,,,,,876,35,90,1,0,0,response1disk,,7,-1,4,1,0,0,rectangle,-1,4,1,0,0,-1,4,1,0,0,0,31,31,54,1,,,,,,,,
,,,,,,,,,,,,,FF,,,,,,,,1.2711,,,,,,,,,,,,,,,,,,,,,,60de3d32aeb7f2a8b4bba07d,60e563a6486a4d6c555c3f23,2021-07-07_10h21.30.088,Simcolourproject_2stim_asymm_v5,2020.2.10,Win32,60,60e52e7cfedb1dae636df45f,,,,,,,,,619,-39,87,1,0,0,response7disk,,0,-22,10,1,0,0,rectangle,-22,10,1,0,0,-22,10,1,0,0,0,32,32,68,1,,,,,,,,
,,,,,,,,,,,,,FF,,,,,,,,3.4505,,,,,,,,,,,,,,,,,,,,,,60de3d32aeb7f2a8b4bba07d,60e563a6486a4d6c555c3f23,2021-07-07_10h21.30.088,Simcolourproject_2stim_asymm_v5,2020.2.10,Win32,60,60e52e7cfedb1dae636df45f,,,,,,,,,4139,53,110,1,0,0,response1disk,,7,-16,5,1,0,0,rectangle,-16,5,1,0,0,-16,5,1,0,0,0,33,33,94,1,,,,,,,,
,,,,,,,,,,,,,FF,,,,,,,,1.4724,,,,,,,,,,,,,,,,,,,,,,60de3d32aeb7f2a8b4bba07d,60e563a6486a4d6c555c3f23,2021-07-07_10h21.30.088,Simcolourproject_2stim_asymm_v5,2020.2.10,Win32,60,60e52e7cfedb1dae636df45f,,,,,,,,,4340,-32,98,1,0,0,response7disk,,0,-25,-7,1,0,0,rectangle,-25,-7,1,0,0,-25,-7,1,0,0,0,34,34,42,1,,,,,,,,
,,,,,,,,,,,,,FF,,,,,,,,1.1194,,,,,,,,,,,,,,,,,,,,,,60de3d32aeb7f2a8b4bba07d,60e563a6486a4d6c555c3f23,2021-07-07_10h21.30.088,Simcolourproject_2stim_asymm_v5,2020.2.10,Win32,60,60e52e7cfedb1dae636df45f,,,,,,,,,2776,-42,82,1,0,0,response7disk,,0,3,7,1,0,0,rectangle,3,7,1,0,0,3,7,1,0,0,0,35,35,77,1,,,,,,,,
,,,,,,,,,,,,,FF,,,,,,,,1.2235,,,,,,,,,,,,,,,,,,,,,,60de3d32aeb7f2a8b4bba07d,60e563a6486a4d6c555c3f23,2021-07-07_10h21.30.088,Simcolourproject_2stim_asymm_v5,2020.2.10,Win32,60,60e52e7cfedb1dae636df45f,,,,,,,,,2403,45,79,1,0,0,response1disk,,7,-3,15,1,0,0,rectangle,-3,15,1,0,0,-3,15,1,0,0,0,36,36,156,1,,,,,,,,
,,,,,,,,,,,,,FF,,,,,,,,1.4839,,,,,,,,,,,,,,,,,,,,,,60de3d32aeb7f2a8b4bba07d,60e563a6486a4d6c555c3f23,2021-07-07_10h21.30.088,Simcolourproject_2stim_asymm_v5,2020.2.10,Win32,60,60e52e7cfedb1dae636df45f,,,,,,,,,2479,30,94,1,0,0,response1disk,,7,-9,12,1,0,0,rectangle,-9,12,1,0,0,-9,12,1,0,0,0,37,37,98,1,,,,,,,,
,,,,,,,,,,,,,FF,,,,,,,,1.4608,,,,,,,,,,,,,,,,,,,,,,60de3d32aeb7f2a8b4bba07d,60e563a6486a4d6c555c3f23,2021-07-07_10h21.30.088,Simcolourproject_2stim_asymm_v5,2020.2.10,Win32,60,60e52e7cfedb1dae636df45f,,,,,,,,,4170,-31,100,1,0,0,response7disk,,0,-2,12,1,0,0,rectangle,-2,12,1,0,0,-2,12,1,0,0,0,38,38,157,1,,,,,,,,
,,,,,,,,,,,,,FF,,,,,,,,1.3005,,,,,,,,,,,,,,,,,,,,,,60de3d32aeb7f2a8b4bba07d,60e563a6486a4d6c555c3f23,2021-07-07_10h21.30.088,Simcolourproject_2stim_asymm_v5,2020.2.10,Win32,60,60e52e7cfedb1dae636df45f,,,,,,,,,621,41,80,1,0,0,response1disk,,7,-14,12,1,0,0,rectangle,-14,12,1,0,0,-14,12,1,0,0,0,39,39,32,1,,,,,,,,
,,,,,,,,,,,,,FF,,,,,,,,1.6002,,,,,,,,,,,,,,,,,,,,,,60de3d32aeb7f2a8b4bba07d,60e563a6486a4d6c555c3f23,2021-07-07_10h21.30.088,Simcolourproject_2stim_asymm_v5,2020.2.10,Win32,60,60e52e7cfedb1dae636df45f,,,,,,,,,960,30,68,1,0,0,response1disk,,7,-5,-5,1,0,0,rectangle,-5,-5,1,0,0,-5,-5,1,0,0,0,40,40,93,1,,,,,,,,
,,,,,,,,,,,,,FF,,,,,,,,1.317,,,,,,,,,,,,,,,,,,,,,,60de3d32aeb7f2a8b4bba07d,60e563a6486a4d6c555c3f23,2021-07-07_10h21.30.088,Simcolourproject_2stim_asymm_v5,2020.2.10,Win32,60,60e52e7cfedb1dae636df45f,,,,,,,,,577,26,58,1,0,0,response1disk,,7,1,0,1,0,0,rectangle,1,0,1,0,0,1,0,1,0,0,0,41,41,107,1,,,,,,,,
,,,,,,,,,,,,,FF,,,,,,,,1.233,,,,,,,,,,,,,,,,,,,,,,60de3d32aeb7f2a8b4bba07d,60e563a6486a4d6c555c3f23,2021-07-07_10h21.30.088,Simcolourproject_2stim_asymm_v5,2020.2.10,Win32,60,60e52e7cfedb1dae636df45f,,,,,,,,,860,-50,99,1,0,0,response7disk,,0,4,15,1,0,0,rectangle,4,15,1,0,0,4,15,1,0,0,0,42,42,153,1,,,,,,,,
,,,,,,,,,,,,,FF,,,,,,,,1.1842,,,,,,,,,,,,,,,,,,,,,,60de3d32aeb7f2a8b4bba07d,60e563a6486a4d6c555c3f23,2021-07-07_10h21.30.088,Simcolourproject_2stim_asymm_v5,2020.2.10,Win32,60,60e52e7cfedb1dae636df45f,,,,,,,,,3510,-32,84,1,0,0,response7disk,,0,4,1,1,0,0,rectangle,4,1,1,0,0,4,1,1,0,0,0,43,43,63,1,,,,,,,,
,,,,,,,,,,,,,FF,,,,,,,,1.1838,,,,,,,,,,,,,,,,,,,,,,60de3d32aeb7f2a8b4bba07d,60e563a6486a4d6c555c3f23,2021-07-07_10h21.30.088,Simcolourproject_2stim_asymm_v5,2020.2.10,Win32,60,60e52e7cfedb1dae636df45f,,,,,,,,,4183,-28,61,1,0,0,response7disk,,0,3,-13,1,0,0,rectangle,3,-13,1,0,0,3,-13,1,0,0,0,44,44,132,1,,,,,,,,
,,,,,,,,,,,,,FF,,,,,,,,2.5761,,,,,,,,,,,,,,,,,,,,,,60de3d32aeb7f2a8b4bba07d,60e563a6486a4d6c555c3f23,2021-07-07_10h21.30.088,Simcolourproject_2stim_asymm_v5,2020.2.10,Win32,60,60e52e7cfedb1dae636df45f,,,,,,,,,3950,-47,90,1,0,0,response7disk,,0,0,4,1,0,0,rectangle,0,4,1,0,0,0,4,1,0,0,0,45,45,147,1,,,,,,,,
,,,,,,,,,,,,,FF,,,,,,,,1.653,,,,,,,,,,,,,,,,,,,,,,60de3d32aeb7f2a8b4bba07d,60e563a6486a4d6c555c3f23,2021-07-07_10h21.30.088,Simcolourproject_2stim_asymm_v5,2020.2.10,Win32,60,60e52e7cfedb1dae636df45f,,,,,,,,,3184,-35,79,1,0,0,response7disk,,0,18,-8,1,0,0,rectangle,18,-8,1,0,0,18,-8,1,0,0,0,46,46,64,1,,,,,,,,
,,,,,,,,,,,,,FF,,,,,,,,1.552,,,,,,,,,,,,,,,,,,,,,,60de3d32aeb7f2a8b4bba07d,60e563a6486a4d6c555c3f23,2021-07-07_10h21.30.088,Simcolourproject_2stim_asymm_v5,2020.2.10,Win32,60,60e52e7cfedb1dae636df45f,,,,,,,,,2193,36,87,1,0,0,response1disk,,7,17,-5,1,0,0,rectangle,40,91,1,0,0,-6,0,1,0,0,0,47,47,90,1,,response1disk_3,TRUE,7,7,"[66,9,226,262,110,129,199,193,25,237,115,93,242,5,144,103,48,219,175,62]",2.4167,rectangle
,,,,,,,,,,,,,FF,,,,,,,,1.6012,,,,,,,,,,,,,,,,,,,,,,60de3d32aeb7f2a8b4bba07d,60e563a6486a4d6c555c3f23,2021-07-07_10h21.30.088,Simcolourproject_2stim_asymm_v5,2020.2.10,Win32,60,60e52e7cfedb1dae636df45f,,,,,,,,,1311,-49,95,1,0,0,response7disk,,0,-8,6,1,0,0,rectangle,-8,6,1,0,0,-8,6,1,0,0,0,48,48,104,1,,,,,,,,
,,,,,,,,,,,,,FF,,,,,,,,1.1053,,,,,,,,,,,,,,,,,,,,,,60de3d32aeb7f2a8b4bba07d,60e563a6486a4d6c555c3f23,2021-07-07_10h21.30.088,Simcolourproject_2stim_asymm_v5,2020.2.10,Win32,60,60e52e7cfedb1dae636df45f,,,,,,,,,3374,33,77,1,0,0,response1disk,,7,-1,1,1,0,0,rectangle,-1,1,1,0,0,-1,1,1,0,0,0,49,49,82,1,,,,,,,,
,,,,,,,,,,,,,FF,,,,,,,,2.07,,,,,,,,,,,,,,,,,,,,,,60de3d32aeb7f2a8b4bba07d,60e563a6486a4d6c555c3f23,2021-07-07_10h21.30.088,Simcolourproject_2stim_asymm_v5,2020.2.10,Win32,60,60e52e7cfedb1dae636df45f,,,,,,,,,2726,33,76,1,0,0,response1disk,,7,7,5,1,0,0,rectangle,7,5,1,0,0,7,5,1,0,0,0,50,50,8,1,,,,,,,,
,,,,,,,,,,,,,FF,,,,,,,,1.3839,,,,,,,,,,,,,,,,,,,,,,60de3d32aeb7f2a8b4bba07d,60e563a6486a4d6c555c3f23,2021-07-07_10h21.30.088,Simcolourproject_2stim_asymm_v5,2020.2.10,Win32,60,60e52e7cfedb1dae636df45f,,,,,,,,,3959,24,81,1,0,0,response1disk,,7,-19,-4,1,0,0,rectangle,-19,-4,1,0,0,-19,-4,1,0,0,0,51,51,118,1,,,,,,,,
,,,,,,,,,,,,,FF,,,,,,,,1.2656,,,,,,,,,,,,,,,,,,,,,,60de3d32aeb7f2a8b4bba07d,60e563a6486a4d6c555c3f23,2021-07-07_10h21.30.088,Simcolourproject_2stim_asymm_v5,2020.2.10,Win32,60,60e52e7cfedb1dae636df45f,,,,,,,,,870,26,77,1,0,0,response1disk,,7,-4,1,1,0,0,rectangle,-4,1,1,0,0,-4,1,1,0,0,0,52,52,18,1,,,,,,,,
,,,,,,,,,,,,,FF,,,,,,,,1.2006,,,,,,,,,,,,,,,,,,,,,,60de3d32aeb7f2a8b4bba07d,60e563a6486a4d6c555c3f23,2021-07-07_10h21.30.088,Simcolourproject_2stim_asymm_v5,2020.2.10,Win32,60,60e52e7cfedb1dae636df45f,,,,,,,,,430,-37,75,1,0,0,response7disk,,0,-21,-7,1,0,0,rectangle,-21,-7,1,0,0,-21,-7,1,0,0,0,53,53,159,1,,,,,,,,
,,,,,,,,,,,,,FF,,,,,,,,1.2839,,,,,,,,,,,,,,,,,,,,,,60de3d32aeb7f2a8b4bba07d,60e563a6486a4d6c555c3f23,2021-07-07_10h21.30.088,Simcolourproject_2stim_asymm_v5,2020.2.10,Win32,60,60e52e7cfedb1dae636df45f,,,,,,,,,2807,27,66,1,0,0,response1disk,,7,7,12,1,0,0,rectangle,7,12,1,0,0,7,12,1,0,0,0,54,54,123,1,,,,,,,,
,,,,,,,,,,,,,FF,,,,,,,,2.1411,,,,,,,,,,,,,,,,,,,,,,60de3d32aeb7f2a8b4bba07d,60e563a6486a4d6c555c3f23,2021-07-07_10h21.30.088,Simcolourproject_2stim_asymm_v5,2020.2.10,Win32,60,60e52e7cfedb1dae636df45f,,,,,,,,,147,37,71,1,0,0,response1disk,,7,-2,10,1,0,0,rectangle,-2,10,1,0,0,-2,10,1,0,0,0,55,55,21,1,,,,,,,,
,,,,,,,,,,,,,FF,,,,,,,,1.5059,,,,,,,,,,,,,,,,,,,,,,60de3d32aeb7f2a8b4bba07d,60e563a6486a4d6c555c3f23,2021-07-07_10h21.30.088,Simcolourproject_2stim_asymm_v5,2020.2.10,Win32,60,60e52e7cfedb1dae636df45f,,,,,,,,,477,32,87,1,0,0,response1disk,,7,-6,13,1,0,0,rectangle,-6,13,1,0,0,-6,13,1,0,0,0,56,56,23,1,,,,,,,,
,,,,,,,,,,,,,FF,,,,,,,,1.2337,,,,,,,,,,,,,,,,,,,,,,60de3d32aeb7f2a8b4bba07d,60e563a6486a4d6c555c3f23,2021-07-07_10h21.30.088,Simcolourproject_2stim_asymm_v5,2020.2.10,Win32,60,60e52e7cfedb1dae636df45f,,,,,,,,,4322,27,79,1,0,0,response1disk,,7,12,3,1,0,0,rectangle,12,3,1,0,0,12,3,1,0,0,0,57,57,4,1,,,,,,,,
,,,,,,,,,,,,,FF,,,,,,,,1.3506,,,,,,,,,,,,,,,,,,,,,,60de3d32aeb7f2a8b4bba07d,60e563a6486a4d6c555c3f23,2021-07-07_10h21.30.088,Simcolourproject_2stim_asymm_v5,2020.2.10,Win32,60,60e52e7cfedb1dae636df45f,,,,,,,,,1756,-38,72,1,0,0,response7disk,,0,-6,-3,1,0,0,rectangle,-6,-3,1,0,0,-6,-3,1,0,0,0,58,58,79,1,,,,,,,,
,,,,,,,,,,,,,FF,,,,,,,,1.4341,,,,,,,,,,,,,,,,,,,,,,60de3d32aeb7f2a8b4bba07d,60e563a6486a4d6c555c3f23,2021-07-07_10h21.30.088,Simcolourproject_2stim_asymm_v5,2020.2.10,Win32,60,60e52e7cfedb1dae636df45f,,,,,,,,,901,-27,93,1,0,0,response7disk,,0,1,4,1,0,0,rectangle,1,4,1,0,0,1,4,1,0,0,0,59,59,114,1,,,,,,,,
,,,,,,,,,,,,,FF,,,,,,,,1.2673,,,,,,,,,,,,,,,,,,,,,,60de3d32aeb7f2a8b4bba07d,60e563a6486a4d6c555c3f23,2021-07-07_10h21.30.088,Simcolourproject_2stim_asymm_v5,2020.2.10,Win32,60,60e52e7cfedb1dae636df45f,,,,,,,,,3054,-28,69,1,0,0,response7disk,,0,3,-4,1,0,0,rectangle,3,-4,1,0,0,3,-4,1,0,0,0,60,60,91,1,,,,,,,,
,,,,,,,,,,,,,FF,,,,,,,,1.3454,,,,,,,,,,,,,,,,,,,,,,60de3d32aeb7f2a8b4bba07d,60e563a6486a4d6c555c3f23,2021-07-07_10h21.30.088,Simcolourproject_2stim_asymm_v5,2020.2.10,Win32,60,60e52e7cfedb1dae636df45f,,,,,,,,,1836,-31,114,1,0,0,response7disk,,0,-10,-8,1,0,0,rectangle,-112,49,1,0,0,-9,8,1,0,0,0,61,61,119,1,,response7disk_3,TRUE,1,1,"[66,9,226,262,110,129,199,193,25,237,115,93,242,5,144,103,48,219,175,62]",4.4501,rectangle
,,,,,,,,,,,,,FF,,,,,,,,4,,,,,,,,,,,,,,,,,,,,,,60de3d32aeb7f2a8b4bba07d,60e563a6486a4d6c555c3f23,2021-07-07_10h21.30.088,Simcolourproject_2stim_asymm_v5,2020.2.10,Win32,60,60e52e7cfedb1dae636df45f,,,,,,,,,3020,-45,82,1,0,0,response7disk,,0,16,11,1,0,0,rectangle,16,11,1,0,0,16,11,1,0,0,0,62,62,141,1,,,,,,,,
,,,,,,,,,,,,,FF,,,,,,,,1.2503,,,,,,,,,,,,,,,,,,,,,,60de3d32aeb7f2a8b4bba07d,60e563a6486a4d6c555c3f23,2021-07-07_10h21.30.088,Simcolourproject_2stim_asymm_v5,2020.2.10,Win32,60,60e52e7cfedb1dae636df45f,,,,,,,,,4243,51,101,1,0,0,response1disk,,7,-15,2,1,0,0,rectangle,-15,2,1,0,0,-15,2,1,0,0,0,63,63,103,1,,,,,,,,
,,,,,,,,,,,,,FF,,,,,,,,1.2839,,,,,,,,,,,,,,,,,,,,,,60de3d32aeb7f2a8b4bba07d,60e563a6486a4d6c555c3f23,2021-07-07_10h21.30.088,Simcolourproject_2stim_asymm_v5,2020.2.10,Win32,60,60e52e7cfedb1dae636df45f,,,,,,,,,747,19,92,1,0,0,response1disk,,7,-7,13,1,0,0,rectangle,-7,13,1,0,0,-7,13,1,0,0,0,64,64,154,1,,,,,,,,
,,,,,,,,,,,,,FF,,,,,,,,1.2035,,,,,,,,,,,,,,,,,,,,,,60de3d32aeb7f2a8b4bba07d,60e563a6486a4d6c555c3f23,2021-07-07_10h21.30.088,Simcolourproject_2stim_asymm_v5,2020.2.10,Win32,60,60e52e7cfedb1dae636df45f,,,,,,,,,656,31,77,1,0,0,response1disk,,7,-6,6,1,0,0,rectangle,97,-29,1,0,0,-3,4,1,0,0,0,65,65,40,1,,response3disk_3,TRUE,5,5,"[66,9,226,262,110,129,199,193,25,237,115,93,242,5,144,103,48,219,175,62]",2.7333,rectangle
,,,,,,,,,,,,,FF,,,,,,,,1.4338,,,,,,,,,,,,,,,,,,,,,,60de3d32aeb7f2a8b4bba07d,60e563a6486a4d6c555c3f23,2021-07-07_10h21.30.088,Simcolourproject_2stim_asymm_v5,2020.2.10,Win32,60,60e52e7cfedb1dae636df45f,,,,,,,,,924,37,89,1,0,0,response1disk,,7,-2,5,1,0,0,rectangle,-2,5,1,0,0,-2,5,1,0,0,0,66,66,10,1,,,,,,,,
,,,,,,,,,,,,,FF,,,,,,,,1.1172,,,,,,,,,,,,,,,,,,,,,,60de3d32aeb7f2a8b4bba07d,60e563a6486a4d6c555c3f23,2021-07-07_10h21.30.088,Simcolourproject_2stim_asymm_v5,2020.2.10,Win32,60,60e52e7cfedb1dae636df45f,,,,,,,,,2705,34,86,1,0,0,response1disk,,7,4,-1,1,0,0,rectangle,4,-1,1,0,0,4,-1,1,0,0,0,67,67,73,1,,,,,,,,
,,,,,,,,,,,,,FF,,,,,,,,1.113,,,,,,,,,,,,,,,,,,,,,,60de3d32aeb7f2a8b4bba07d,60e563a6486a4d6c555c3f23,2021-07-07_10h21.30.088,Simcolourproject_2stim_asymm_v5,2020.2.10,Win32,60,60e52e7cfedb1dae636df45f,,,,,,,,,3139,33,89,1,0,0,response1disk,,7,14,7,1,0,0,rectangle,14,7,1,0,0,14,7,1,0,0,0,68,68,34,1,,,,,,,,
,,,,,,,,,,,,,FF,,,,,,,,1.1235,,,,,,,,,,,,,,,,,,,,,,60de3d32aeb7f2a8b4bba07d,60e563a6486a4d6c555c3f23,2021-07-07_10h21.30.088,Simcolourproject_2stim_asymm_v5,2020.2.10,Win32,60,60e52e7cfedb1dae636df45f,,,,,,,,,2606,-34,75,1,0,0,response7disk,,0,-2,8,1,0,0,rectangle,-2,8,1,0,0,-2,8,1,0,0,0,69,69,51,1,,,,,,,,
,,,,,,,,,,,,,FF,,,,,,,,1.0007,,,,,,,,,,,,,,,,,,,,,,60de3d32aeb7f2a8b4bba07d,60e563a6486a4d6c555c3f23,2021-07-07_10h21.30.088,Simcolourproject_2stim_asymm_v5,2020.2.10,Win32,60,60e52e7cfedb1dae636df45f,,,,,,,,,473,-33,79,1,0,0,response7disk,,0,-13,9,1,0,0,rectangle,-13,9,1,0,0,-13,9,1,0,0,0,70,70,145,1,,,,,,,,
,,,,,,,,,,,,,FF,,,,,,,,1.2171,,,,,,,,,,,,,,,,,,,,,,60de3d32aeb7f2a8b4bba07d,60e563a6486a4d6c555c3f23,2021-07-07_10h21.30.088,Simcolourproject_2stim_asymm_v5,2020.2.10,Win32,60,60e52e7cfedb1dae636df45f,,,,,,,,,202,-39,65,1,0,0,response7disk,,0,3,6,1,0,0,rectangle,3,6,1,0,0,3,6,1,0,0,0,71,71,35,1,,,,,,,,
,,,,,,,,,,,,,FF,,,,,,,,1.1342,,,,,,,,,,,,,,,,,,,,,,60de3d32aeb7f2a8b4bba07d,60e563a6486a4d6c555c3f23,2021-07-07_10h21.30.088,Simcolourproject_2stim_asymm_v5,2020.2.10,Win32,60,60e52e7cfedb1dae636df45f,,,,,,,,,146,24,58,1,0,0,response1disk,,7,5,7,1,0,0,rectangle,5,7,1,0,0,5,7,1,0,0,0,72,72,92,1,,,,,,,,
,,,,,,,,,,,,,FF,,,,,,,,2.0186,,,,,,,,,,,,,,,,,,,,,,60de3d32aeb7f2a8b4bba07d,60e563a6486a4d6c555c3f23,2021-07-07_10h21.30.088,Simcolourproject_2stim_asymm_v5,2020.2.10,Win32,60,60e52e7cfedb1dae636df45f,,,,,,,,,4217,25,74,1,0,0,response1disk,,7,7,-9,1,0,0,rectangle,7,-9,1,0,0,7,-9,1,0,0,0,73,73,149,1,,,,,,,,
,,,,,,,,,,,,,FF,,,,,,,,1.4733,,,,,,,,,,,,,,,,,,,,,,60de3d32aeb7f2a8b4bba07d,60e563a6486a4d6c555c3f23,2021-07-07_10h21.30.088,Simcolourproject_2stim_asymm_v5,2020.2.10,Win32,60,60e52e7cfedb1dae636df45f,,,,,,,,,1719,24,83,1,0,0,response1disk,,7,9,3,1,0,0,rectangle,9,3,1,0,0,9,3,1,0,0,0,74,74,146,1,,,,,,,,
,,,,,,,,,,,,,FF,,,,,,,,3.3169,,,,,,,,,,,,,,,,,,,,,,60de3d32aeb7f2a8b4bba07d,60e563a6486a4d6c555c3f23,2021-07-07_10h21.30.088,Simcolourproject_2stim_asymm_v5,2020.2.10,Win32,60,60e52e7cfedb1dae636df45f,,,,,,,,,3984,19,67,1,0,0,response1disk,,7,1,6,1,0,0,rectangle,1,6,1,0,0,1,6,1,0,0,0,75,75,14,1,,,,,,,,
,,,,,,,,,,,,,FF,,,,,,,,1.4508,,,,,,,,,,,,,,,,,,,,,,60de3d32aeb7f2a8b4bba07d,60e563a6486a4d6c555c3f23,2021-07-07_10h21.30.088,Simcolourproject_2stim_asymm_v5,2020.2.10,Win32,60,60e52e7cfedb1dae636df45f,,,,,,,,,1173,-27,69,1,0,0,response7disk,,0,5,9,1,0,0,rectangle,5,9,1,0,0,5,9,1,0,0,0,76,76,65,1,,,,,,,,
,,,,,,,,,,,,,FF,,,,,,,,1.2069,,,,,,,,,,,,,,,,,,,,,,60de3d32aeb7f2a8b4bba07d,60e563a6486a4d6c555c3f23,2021-07-07_10h21.30.088,Simcolourproject_2stim_asymm_v5,2020.2.10,Win32,60,60e52e7cfedb1dae636df45f,,,,,,,,,2902,-28,67,1,0,0,response7disk,,0,3,14,1,0,0,rectangle,3,14,1,0,0,3,14,1,0,0,0,77,77,125,1,,,,,,,,
,,,,,,,,,,,,,FF,,,,,,,,1.3677,,,,,,,,,,,,,,,,,,,,,,60de3d32aeb7f2a8b4bba07d,60e563a6486a4d6c555c3f23,2021-07-07_10h21.30.088,Simcolourproject_2stim_asymm_v5,2020.2.10,Win32,60,60e52e7cfedb1dae636df45f,,,,,,,,,3728,24,52,1,0,0,response1disk,,7,12,9,1,0,0,rectangle,12,9,1,0,0,12,9,1,0,0,0,78,78,78,1,,,,,,,,
,,,,,,,,,,,,,FF,,,,,,,,2.2724,,,,,,,,,,,,,,,,,,,,,,60de3d32aeb7f2a8b4bba07d,60e563a6486a4d6c555c3f23,2021-07-07_10h21.30.088,Simcolourproject_2stim_asymm_v5,2020.2.10,Win32,60,60e52e7cfedb1dae636df45f,,,,,,,,,482,22,73,1,0,0,response1disk,,7,-1,7,1,0,0,rectangle,-1,7,1,0,0,-1,7,1,0,0,0,79,79,24,1,,,,,,,,
,,,,,,,,,,,,,FF,,,,,,,,1.3335,,,,,,,,,,,,,,,,,,,,,,60de3d32aeb7f2a8b4bba07d,60e563a6486a4d6c555c3f23,2021-07-07_10h21.30.088,Simcolourproject_2stim_asymm_v5,2020.2.10,Win32,60,60e52e7cfedb1dae636df45f,,,,,,,,,812,-34,54,1,0,0,response7disk,,0,-9,1,1,0,0,rectangle,-9,1,1,0,0,-9,1,1,0,0,0,80,80,62,1,,,,,,,,
,,,,,,,,,,,,,FF,,,,,,,,1.268,,,,,,,,,,,,,,,,,,,,,,60de3d32aeb7f2a8b4bba07d,60e563a6486a4d6c555c3f23,2021-07-07_10h21.30.088,Simcolourproject_2stim_asymm_v5,2020.2.10,Win32,60,60e52e7cfedb1dae636df45f,,,,,,,,,2041,-35,62,1,0,0,response7disk,,0,-11,14,1,0,0,rectangle,-11,14,1,0,0,-11,14,1,0,0,0,81,81,151,1,,,,,,,,
,,,,,,,,,,,,,FF,,,,,,,,1.2504,,,,,,,,,,,,,,,,,,,,,,60de3d32aeb7f2a8b4bba07d,60e563a6486a4d6c555c3f23,2021-07-07_10h21.30.088,Simcolourproject_2stim_asymm_v5,2020.2.10,Win32,60,60e52e7cfedb1dae636df45f,,,,,,,,,3880,18,43,1,0,0,response1disk,,7,6,14,1,0,0,rectangle,6,14,1,0,0,6,14,1,0,0,0,82,82,25,1,,,,,,,,
,,,,,,,,,,,,,FF,,,,,,,,1.3394,,,,,,,,,,,,,,,,,,,,,,60de3d32aeb7f2a8b4bba07d,60e563a6486a4d6c555c3f23,2021-07-07_10h21.30.088,Simcolourproject_2stim_asymm_v5,2020.2.10,Win32,60,60e52e7cfedb1dae636df45f,,,,,,,,,3639,34,64,1,0,0,response1disk,,7,1,12,1,0,0,rectangle,1,12,1,0,0,1,12,1,0,0,0,83,83,135,1,,,,,,,,
,,,,,,,,,,,,,FF,,,,,,,,2.8352,,,,,,,,,,,,,,,,,,,,,,60de3d32aeb7f2a8b4bba07d,60e563a6486a4d6c555c3f23,2021-07-07_10h21.30.088,Simcolourproject_2stim_asymm_v5,2020.2.10,Win32,60,60e52e7cfedb1dae636df45f,,,,,,,,,43,62,87,1,0,0,response1disk,,7,-10,1,1,0,0,rectangle,-10,1,1,0,0,-10,1,1,0,0,0,84,84,131,1,,,,,,,,
,,,,,,,,,,,,,FF,,,,,,,,1.5347,,,,,,,,,,,,,,,,,,,,,,60de3d32aeb7f2a8b4bba07d,60e563a6486a4d6c555c3f23,2021-07-07_10h21.30.088,Simcolourproject_2stim_asymm_v5,2020.2.10,Win32,60,60e52e7cfedb1dae636df45f,,,,,,,,,2097,-46,70,1,0,0,response7disk,,0,-5,6,1,0,0,rectangle,-5,6,1,0,0,-5,6,1,0,0,0,85,85,110,1,,,,,,,,
,,,,,,,,,,,,,FF,,,,,,,,1.901,,,,,,,,,,,,,,,,,,,,,,60de3d32aeb7f2a8b4bba07d,60e563a6486a4d6c555c3f23,2021-07-07_10h21.30.088,Simcolourproject_2stim_asymm_v5,2020.2.10,Win32,60,60e52e7cfedb1dae636df45f,,,,,,,,,2260,35,88,1,0,0,response1disk,,7,-10,-8,1,0,0,rectangle,-10,-8,1,0,0,-10,-8,1,0,0,0,86,86,116,1,,,,,,,,
,,,,,,,,,,,,,FF,,,,,,,,1.8353,,,,,,,,,,,,,,,,,,,,,,60de3d32aeb7f2a8b4bba07d,60e563a6486a4d6c555c3f23,2021-07-07_10h21.30.088,Simcolourproject_2stim_asymm_v5,2020.2.10,Win32,60,60e52e7cfedb1dae636df45f,,,,,,,,,4080,29,59,1,0,0,response1disk,,7,-2,-3,1,0,0,rectangle,-2,-3,1,0,0,-2,-3,1,0,0,0,87,87,15,1,,,,,,,,
,,,,,,,,,,,,,FF,,,,,,,,1.9676,,,,,,,,,,,,,,,,,,,,,,60de3d32aeb7f2a8b4bba07d,60e563a6486a4d6c555c3f23,2021-07-07_10h21.30.088,Simcolourproject_2stim_asymm_v5,2020.2.10,Win32,60,60e52e7cfedb1dae636df45f,,,,,,,,,182,-36,81,1,0,0,response7disk,,0,-1,-9,1,0,0,rectangle,-1,-9,1,0,0,-1,-9,1,0,0,0,88,88,17,1,,,,,,,,
,,,,,,,,,,,,,FF,,,,,,,,1.2099,,,,,,,,,,,,,,,,,,,,,,60de3d32aeb7f2a8b4bba07d,60e563a6486a4d6c555c3f23,2021-07-07_10h21.30.088,Simcolourproject_2stim_asymm_v5,2020.2.10,Win32,60,60e52e7cfedb1dae636df45f,,,,,,,,,842,25,50,1,0,0,response1disk,,7,-7,-4,1,0,0,rectangle,-7,-4,1,0,0,-7,-4,1,0,0,0,89,89,121,1,,,,,,,,
,,,,,,,,,,,,,FF,,,,,,,,1.7726,,,,,,,,,,,,,,,,,,,,,,60de3d32aeb7f2a8b4bba07d,60e563a6486a4d6c555c3f23,2021-07-07_10h21.30.088,Simcolourproject_2stim_asymm_v5,2020.2.10,Win32,60,60e52e7cfedb1dae636df45f,,,,,,,,,2046,-32,99,1,0,0,response7disk,,0,-14,11,1,0,0,rectangle,-14,11,1,0,0,-14,11,1,0,0,0,90,90,112,1,,,,,,,,
,,,,,,,,,,,,,FF,,,,,,,,1.1675,,,,,,,,,,,,,,,,,,,,,,60de3d32aeb7f2a8b4bba07d,60e563a6486a4d6c555c3f23,2021-07-07_10h21.30.088,Simcolourproject_2stim_asymm_v5,2020.2.10,Win32,60,60e52e7cfedb1dae636df45f,,,,,,,,,1896,-44,79,1,0,0,response7disk,,0,-15,-4,1,0,0,rectangle,-15,-4,1,0,0,-15,-4,1,0,0,0,91,91,139,1,,,,,,,,
,,,,,,,,,,,,,FF,,,,,,,,1.4667,,,,,,,,,,,,,,,,,,,,,,60de3d32aeb7f2a8b4bba07d,60e563a6486a4d6c555c3f23,2021-07-07_10h21.30.088,Simcolourproject_2stim_asymm_v5,2020.2.10,Win32,60,60e52e7cfedb1dae636df45f,,,,,,,,,2942,-35,90,1,0,0,response7disk,,0,-8,-10,1,0,0,rectangle,104,-35,1,0,0,-4,-2,1,0,0,0,92,92,150,1,,response3disk_3,TRUE,5,5,"[66,9,226,262,110,129,199,193,25,237,115,93,242,5,144,103,48,219,175,62]",2.7996,rectangle
,,,,,,,,,,,,,FF,,,,,,,,1.2672,,,,,,,,,,,,,,,,,,,,,,60de3d32aeb7f2a8b4bba07d,60e563a6486a4d6c555c3f23,2021-07-07_10h21.30.088,Simcolourproject_2stim_asymm_v5,2020.2.10,Win32,60,60e52e7cfedb1dae636df45f,,,,,,,,,1117,-32,72,1,0,0,response7disk,,0,-13,9,1,0,0,rectangle,-13,9,1,0,0,-13,9,1,0,0,0,93,93,31,1,,,,,,,,
,,,,,,,,,,,,,FF,,,,,,,,1.2341,,,,,,,,,,,,,,,,,,,,,,60de3d32aeb7f2a8b4bba07d,60e563a6486a4d6c555c3f23,2021-07-07_10h21.30.088,Simcolourproject_2stim_asymm_v5,2020.2.10,Win32,60,60e52e7cfedb1dae636df45f,,,,,,,,,1431,-33,82,1,0,0,response7disk,,0,3,3,1,0,0,rectangle,3,3,1,0,0,3,3,1,0,0,0,94,94,101,1,,,,,,,,
,,,,,,,,,,,,,FF,,,,,,,,1.2007,,,,,,,,,,,,,,,,,,,,,,60de3d32aeb7f2a8b4bba07d,60e563a6486a4d6c555c3f23,2021-07-07_10h21.30.088,Simcolourproject_2stim_asymm_v5,2020.2.10,Win32,60,60e52e7cfedb1dae636df45f,,,,,,,,,3395,-26,77,1,0,0,response7disk,,0,-10,2,1,0,0,rectangle,-10,2,1,0,0,-10,2,1,0,0,0,95,95,143,1,,,,,,,,
,,,,,,,,,,,,,FF,,,,,,,,1.7161,,,,,,,,,,,,,,,,,,,,,,60de3d32aeb7f2a8b4bba07d,60e563a6486a4d6c555c3f23,2021-07-07_10h21.30.088,Simcolourproject_2stim_asymm_v5,2020.2.10,Win32,60,60e52e7cfedb1dae636df45f,,,,,,,,,1166,30,70,1,0,0,response1disk,,7,15,-3,1,0,0,rectangle,15,-3,1,0,0,15,-3,1,0,0,0,96,96,67,1,,,,,,,,
,,,,,,,,,,,,,FF,,,,,,,,1.7999,,,,,,,,,,,,,,,,,,,,,,60de3d32aeb7f2a8b4bba07d,60e563a6486a4d6c555c3f23,2021-07-07_10h21.30.088,Simcolourproject_2stim_asymm_v5,2020.2.10,Win32,60,60e52e7cfedb1dae636df45f,,,,,,,,,1495,30,67,1,0,0,response1disk,,7,12,15,1,0,0,rectangle,12,15,1,0,0,12,15,1,0,0,0,97,97,43,1,,,,,,,,
,,,,,,,,,,,,,FF,,,,,,,,2.8545,,,,,,,,,,,,,,,,,,,,,,60de3d32aeb7f2a8b4bba07d,60e563a6486a4d6c555c3f23,2021-07-07_10h21.30.088,Simcolourproject_2stim_asymm_v5,2020.2.10,Win32,60,60e52e7cfedb1dae636df45f,,,,,,,,,3453,33,82,1,0,0,response1disk,,7,4,12,1,0,0,rectangle,4,12,1,0,0,4,12,1,0,0,0,98,98,122,1,,,,,,,,
,,,,,,,,,,,,,FF,,,,,,,,1.3512,,,,,,,,,,,,,,,,,,,,,,60de3d32aeb7f2a8b4bba07d,60e563a6486a4d6c555c3f23,2021-07-07_10h21.30.088,Simcolourproject_2stim_asymm_v5,2020.2.10,Win32,60,60e52e7cfedb1dae636df45f,,,,,,,,,1032,-34,70,1,0,0,response7disk,,0,8,7,1,0,0,rectangle,8,7,1,0,0,8,7,1,0,0,0,99,99,130,1,,,,,,,,
,,,,,,,,,,,,,FF,,,,,,,,1.3174,,,,,,,,,,,,,,,,,,,,,,60de3d32aeb7f2a8b4bba07d,60e563a6486a4d6c555c3f23,2021-07-07_10h21.30.088,Simcolourproject_2stim_asymm_v5,2020.2.10,Win32,60,60e52e7cfedb1dae636df45f,,,,,,,,,3177,38,75,1,0,0,response1disk,,7,4,-2,1,0,0,rectangle,4,-2,1,0,0,4,-2,1,0,0,0,100,100,28,1,,,,,,,,
,,,,,,,,,,,,,FF,,,,,,,,2.7892,,,,,,,,,,,,,,,,,,,,,,60de3d32aeb7f2a8b4bba07d,60e563a6486a4d6c555c3f23,2021-07-07_10h21.30.088,Simcolourproject_2stim_asymm_v5,2020.2.10,Win32,60,60e52e7cfedb1dae636df45f,,,,,,,,,3433,48,91,1,0,0,response1disk,,7,14,1,1,0,0,rectangle,14,1,1,0,0,14,1,1,0,0,0,101,101,70,1,,,,,,,,
,,,,,,,,,,,,,FF,,,,,,,,2.1199,,,,,,,,,,,,,,,,,,,,,,60de3d32aeb7f2a8b4bba07d,60e563a6486a4d6c555c3f23,2021-07-07_10h21.30.088,Simcolourproject_2stim_asymm_v5,2020.2.10,Win32,60,60e52e7cfedb1dae636df45f,,,,,,,,,3802,20,71,1,0,0,response1disk,,7,21,-1,1,0,0,rectangle,-82,-43,1,0,0,-7,1,1,0,0,0,102,102,22,1,,response5disk_3,TRUE,2,2,"[66,9,226,262,110,129,199,193,25,237,115,93,242,5,144,103,48,219,175,62]",3.1134,rectangle
,,,,,,,,,,,,,FF,,,,,,,,1.331,,,,,,,,,,,,,,,,,,,,,,60de3d32aeb7f2a8b4bba07d,60e563a6486a4d6c555c3f23,2021-07-07_10h21.30.088,Simcolourproject_2stim_asymm_v5,2020.2.10,Win32,60,60e52e7cfedb1dae636df45f,,,,,,,,,1317,-38,70,1,0,0,response7disk,,0,-3,-5,1,0,0,rectangle,-3,-5,1,0,0,-3,-5,1,0,0,0,103,103,80,1,,,,,,,,
,,,,,,,,,,,,,FF,,,,,,,,1.2336,,,,,,,,,,,,,,,,,,,,,,60de3d32aeb7f2a8b4bba07d,60e563a6486a4d6c555c3f23,2021-07-07_10h21.30.088,Simcolourproject_2stim_asymm_v5,2020.2.10,Win32,60,60e52e7cfedb1dae636df45f,,,,,,,,,2013,31,99,1,0,0,response1disk,,7,34,-1,1,0,0,rectangle,34,-1,1,0,0,34,-1,1,0,0,0,104,104,87,1,,,,,,,,
,,,,,,,,,,,,,FF,,,,,,,,2.5503,,,,,,,,,,,,,,,,,,,,,,60de3d32aeb7f2a8b4bba07d,60e563a6486a4d6c555c3f23,2021-07-07_10h21.30.088,Simcolourproject_2stim_asymm_v5,2020.2.10,Win32,60,60e52e7cfedb1dae636df45f,,,,,,,,,3976,38,83,1,0,0,response1disk,,7,-8,14,1,0,0,rectangle,-8,14,1,0,0,-8,14,1,0,0,0,105,105,26,1,,,,,,,,
,,,,,,,,,,,,,FF,,,,,,,,1.3683,,,,,,,,,,,,,,,,,,,,,,60de3d32aeb7f2a8b4bba07d,60e563a6486a4d6c555c3f23,2021-07-07_10h21.30.088,Simcolourproject_2stim_asymm_v5,2020.2.10,Win32,60,60e52e7cfedb1dae636df45f,,,,,,,,,2790,-28,66,1,0,0,response7disk,,0,-25,5,1,0,0,rectangle,-25,5,1,0,0,-25,5,1,0,0,0,106,106,56,1,,,,,,,,
,,,,,,,,,,,,,FF,,,,,,,,1.6165,,,,,,,,,,,,,,,,,,,,,,60de3d32aeb7f2a8b4bba07d,60e563a6486a4d6c555c3f23,2021-07-07_10h21.30.088,Simcolourproject_2stim_asymm_v5,2020.2.10,Win32,60,60e52e7cfedb1dae636df45f,,,,,,,,,4355,-46,72,1,0,0,response7disk,,0,23,-8,1,0,0,rectangle,23,-8,1,0,0,23,-8,1,0,0,0,107,107,60,1,,,,,,,,
,,,,,,,,,,,,,FF,,,,,,,,1.1007,,,,,,,,,,,,,,,,,,,,,,60de3d32aeb7f2a8b4bba07d,60e563a6486a4d6c555c3f23,2021-07-07_10h21.30.088,Simcolourproject_2stim_asymm_v5,2020.2.10,Win32,60,60e52e7cfedb1dae636df45f,,,,,,,,,941,38,67,1,0,0,response1disk,,7,11,7,1,0,0,rectangle,11,7,1,0,0,11,7,1,0,0,0,108,108,106,1,,,,,,,,
,,,,,,,,,,,,,FF,,,,,,,,1.2669,,,,,,,,,,,,,,,,,,,,,,60de3d32aeb7f2a8b4bba07d,60e563a6486a4d6c555c3f23,2021-07-07_10h21.30.088,Simcolourproject_2stim_asymm_v5,2020.2.10,Win32,60,60e52e7cfedb1dae636df45f,,,,,,,,,2277,17,68,1,0,0,response1disk,,7,0,6,1,0,0,rectangle,-92,54,1,0,0,-3,-6,1,0,0,0,109,109,96,1,,response7disk_3,TRUE,1,1,"[66,9,226,262,110,129,199,193,25,237,115,93,242,5,144,103,48,219,175,62]",2.7835,rectangle
,,,,,,,,,,,,,FF,,,,,,,,1.9069,,,,,,,,,,,,,,,,,,,,,,60de3d32aeb7f2a8b4bba07d,60e563a6486a4d6c555c3f23,2021-07-07_10h21.30.088,Simcolourproject_2stim_asymm_v5,2020.2.10,Win32,60,60e52e7cfedb1dae636df45f,,,,,,,,,2057,30,93,1,0,0,response1disk,,7,4,9,1,0,0,rectangle,4,9,1,0,0,4,9,1,0,0,0,110,110,117,1,,,,,,,,
,,,,,,,,,,,,,FF,,,,,,,,1.9503,,,,,,,,,,,,,,,,,,,,,,60de3d32aeb7f2a8b4bba07d,60e563a6486a4d6c555c3f23,2021-07-07_10h21.30.088,Simcolourproject_2stim_asymm_v5,2020.2.10,Win32,60,60e52e7cfedb1dae636df45f,,,,,,,,,3201,-31,75,1,0,0,response7disk,,0,23,3,1,0,0,rectangle,23,3,1,0,0,23,3,1,0,0,0,111,111,108,1,,,,,,,,
,,,,,,,,,,,,,FF,,,,,,,,1.9521,,,,,,,,,,,,,,,,,,,,,,60de3d32aeb7f2a8b4bba07d,60e563a6486a4d6c555c3f23,2021-07-07_10h21.30.088,Simcolourproject_2stim_asymm_v5,2020.2.10,Win32,60,60e52e7cfedb1dae636df45f,,,,,,,,,1475,-50,89,1,0,0,response7disk,,0,3,2,1,0,0,rectangle,3,2,1,0,0,3,2,1,0,0,0,112,112,1,1,,,,,,,,
,,,,,,,,,,,,,FF,,,,,,,,3.4511,,,,,,,,,,,,,,,,,,,,,,60de3d32aeb7f2a8b4bba07d,60e563a6486a4d6c555c3f23,2021-07-07_10h21.30.088,Simcolourproject_2stim_asymm_v5,2020.2.10,Win32,60,60e52e7cfedb1dae636df45f,,,,,,,,,2091,24,77,1,0,0,response1disk,,7,-13,5,1,0,0,rectangle,-13,5,1,0,0,-13,5,1,0,0,0,113,113,113,1,,,,,,,,
,,,,,,,,,,,,,FF,,,,,,,,1.4687,,,,,,,,,,,,,,,,,,,,,,60de3d32aeb7f2a8b4bba07d,60e563a6486a4d6c555c3f23,2021-07-07_10h21.30.088,Simcolourproject_2stim_asymm_v5,2020.2.10,Win32,60,60e52e7cfedb1dae636df45f,,,,,,,,,2650,-32,76,1,0,0,response7disk,,0,10,-4,1,0,0,rectangle,-73,57,1,0,0,-12,8,1,0,0,0,114,114,102,1,,response7disk_3,TRUE,1,1,"[66,9,226,262,110,129,199,193,25,237,115,93,242,5,144,103,48,219,175,62]",2.1837,rectangle
,,,,,,,,,,,,,FF,,,,,,,,1.2349,,,,,,,,,,,,,,,,,,,,,,60de3d32aeb7f2a8b4bba07d,60e563a6486a4d6c555c3f23,2021-07-07_10h21.30.088,Simcolourproject_2stim_asymm_v5,2020.2.10,Win32,60,60e52e7cfedb1dae636df45f,,,,,,,,,1667,-53,79,1,0,0,response7disk,,0,-12,3,1,0,0,rectangle,-12,3,1,0,0,-12,3,1,0,0,0,115,115,88,1,,,,,,,,
,,,,,,,,,,,,,FF,,,,,,,,1.2676,,,,,,,,,,,,,,,,,,,,,,60de3d32aeb7f2a8b4bba07d,60e563a6486a4d6c555c3f23,2021-07-07_10h21.30.088,Simcolourproject_2stim_asymm_v5,2020.2.10,Win32,60,60e52e7cfedb1dae636df45f,,,,,,,,,3438,-39,70,1,0,0,response7disk,,0,2,-11,1,0,0,rectangle,2,-11,1,0,0,2,-11,1,0,0,0,116,116,50,1,,,,,,,,
,,,,,,,,,,,,,FF,,,,,,,,1.1466,,,,,,,,,,,,,,,,,,,,,,60de3d32aeb7f2a8b4bba07d,60e563a6486a4d6c555c3f23,2021-07-07_10h21.30.088,Simcolourproject_2stim_asymm_v5,2020.2.10,Win32,60,60e52e7cfedb1dae636df45f,,,,,,,,,1823,-45,95,1,0,0,response7disk,,0,5,9,1,0,0,rectangle,5,9,1,0,0,5,9,1,0,0,0,117,117,48,1,,,,,,,,
,,,,,,,,,,,,,FF,,,,,,,,1.2505,,,,,,,,,,,,,,,,,,,,,,60de3d32aeb7f2a8b4bba07d,60e563a6486a4d6c555c3f23,2021-07-07_10h21.30.088,Simcolourproject_2stim_asymm_v5,2020.2.10,Win32,60,60e52e7cfedb1dae636df45f,,,,,,,,,3377,24,77,1,0,0,response1disk,,7,11,12,1,0,0,rectangle,11,12,1,0,0,11,12,1,0,0,0,118,118,12,1,,,,,,,,
,,,,,,,,,,,,,FF,,,,,,,,1.4902,,,,,,,,,,,,,,,,,,,,,,60de3d32aeb7f2a8b4bba07d,60e563a6486a4d6c555c3f23,2021-07-07_10h21.30.088,Simcolourproject_2stim_asymm_v5,2020.2.10,Win32,60,60e52e7cfedb1dae636df45f,,,,,,,,,1625,-27,91,1,0,0,response7disk,,0,0,-8,1,0,0,rectangle,0,-8,1,0,0,0,-8,1,0,0,0,119,119,38,1,,,,,,,,
,,,,,,,,,,,,,FF,,,,,,,,1.8841,,,,,,,,,,,,,,,,,,,,,,60de3d32aeb7f2a8b4bba07d,60e563a6486a4d6c555c3f23,2021-07-07_10h21.30.088,Simcolourproject_2stim_asymm_v5,2020.2.10,Win32,60,60e52e7cfedb1dae636df45f,,,,,,,,,4345,-29,67,1,0,0,response7disk,,0,13,1,1,0,0,rectangle,13,1,1,0,0,13,1,1,0,0,0,120,120,109,1,,,,,,,,
,,,,,,,,,,,,,FF,,,,,,,,1.8672,,,,,,,,,,,,,,,,,,,,,,60de3d32aeb7f2a8b4bba07d,60e563a6486a4d6c555c3f23,2021-07-07_10h21.30.088,Simcolourproject_2stim_asymm_v5,2020.2.10,Win32,60,60e52e7cfedb1dae636df45f,,,,,,,,,1575,24,81,1,0,0,response1disk,,7,-10,0,1,0,0,rectangle,-10,0,1,0,0,-10,0,1,0,0,0,121,121,16,1,,,,,,,,
,,,,,,,,,,,,,FF,,,,,,,,2.1669,,,,,,,,,,,,,,,,,,,,,,60de3d32aeb7f2a8b4bba07d,60e563a6486a4d6c555c3f23,2021-07-07_10h21.30.088,Simcolourproject_2stim_asymm_v5,2020.2.10,Win32,60,60e52e7cfedb1dae636df45f,,,,,,,,,3996,-42,75,1,0,0,response7disk,,0,-17,1,1,0,0,rectangle,-17,1,1,0,0,-17,1,1,0,0,0,122,122,137,1,,,,,,,,
,,,,,,,,,,,,,FF,,,,,,,,1.2501,,,,,,,,,,,,,,,,,,,,,,60de3d32aeb7f2a8b4bba07d,60e563a6486a4d6c555c3f23,2021-07-07_10h21.30.088,Simcolourproject_2stim_asymm_v5,2020.2.10,Win32,60,60e52e7cfedb1dae636df45f,,,,,,,,,1736,-42,67,1,0,0,response7disk,,0,5,0,1,0,0,rectangle,5,0,1,0,0,5,0,1,0,0,0,123,123,53,1,,,,,,,,
,,,,,,,,,,,,,FF,,,,,,,,1.1839,,,,,,,,,,,,,,,,,,,,,,60de3d32aeb7f2a8b4bba07d,60e563a6486a4d6c555c3f23,2021-07-07_10h21.30.088,Simcolourproject_2stim_asymm_v5,2020.2.10,Win32,60,60e52e7cfedb1dae636df45f,,,,,,,,,786,26,81,1,0,0,response1disk,,7,-7,8,1,0,0,rectangle,-7,8,1,0,0,-7,8,1,0,0,0,124,124,86,1,,,,,,,,
,,,,,,,,,,,,,FF,,,,,,,,1.1675,,,,,,,,,,,,,,,,,,,,,,60de3d32aeb7f2a8b4bba07d,60e563a6486a4d6c555c3f23,2021-07-07_10h21.30.088,Simcolourproject_2stim_asymm_v5,2020.2.10,Win32,60,60e52e7cfedb1dae636df45f,,,,,,,,,3251,-32,66,1,0,0,response7disk,,0,-3,-4,1,0,0,rectangle,-3,-4,1,0,0,-3,-4,1,0,0,0,125,125,133,1,,,,,,,,
,,,,,,,,,,,,,FF,,,,,,,,1.1506,,,,,,,,,,,,,,,,,,,,,,60de3d32aeb7f2a8b4bba07d,60e563a6486a4d6c555c3f23,2021-07-07_10h21.30.088,Simcolourproject_2stim_asymm_v5,2020.2.10,Win32,60,60e52e7cfedb1dae636df45f,,,,,,,,,3797,16,84,1,0,0,response1disk,,7,-3,4,1,0,0,rectangle,-3,4,1,0,0,-3,4,1,0,0,0,126,126,27,1,,,,,,,,
,,,,,,,,,,,,,FF,,,,,,,,1.7173,,,,,,,,,,,,,,,,,,,,,,60de3d32aeb7f2a8b4bba07d,60e563a6486a4d6c555c3f23,2021-07-07_10h21.30.088,Simcolourproject_2stim_asymm_v5,2020.2.10,Win32,60,60e52e7cfedb1dae636df45f,,,,,,,,,1112,-27,67,1,0,0,response7disk,,0,-8,12,1,0,0,rectangle,-8,12,1,0,0,-8,12,1,0,0,0,127,127,140,1,,,,,,,,
,,,,,,,,,,,,,FF,,,,,,,,1.2505,,,,,,,,,,,,,,,,,,,,,,60de3d32aeb7f2a8b4bba07d,60e563a6486a4d6c555c3f23,2021-07-07_10h21.30.088,Simcolourproject_2stim_asymm_v5,2020.2.10,Win32,60,60e52e7cfedb1dae636df45f,,,,,,,,,2450,-33,59,1,0,0,response7disk,,0,-7,6,1,0,0,rectangle,97,-53,1,0,0,-10,4,1,0,0,0,128,128,74,1,,response3disk_3,TRUE,5,5,"[66,9,226,262,110,129,199,193,25,237,115,93,242,5,144,103,48,219,175,62]",3.7824,rectangle
,,,,,,,,,,,,,FF,,,,,,,,1.5838,,,,,,,,,,,,,,,,,,,,,,60de3d32aeb7f2a8b4bba07d,60e563a6486a4d6c555c3f23,2021-07-07_10h21.30.088,Simcolourproject_2stim_asymm_v5,2020.2.10,Win32,60,60e52e7cfedb1dae636df45f,,,,,,,,,2975,21,68,1,0,0,response1disk,,7,-2,13,1,0,0,rectangle,-2,13,1,0,0,-2,13,1,0,0,0,129,129,36,1,,,,,,,,
,,,,,,,,,,,,,FF,,,,,,,,1.7504,,,,,,,,,,,,,,,,,,,,,,60de3d32aeb7f2a8b4bba07d,60e563a6486a4d6c555c3f23,2021-07-07_10h21.30.088,Simcolourproject_2stim_asymm_v5,2020.2.10,Win32,60,60e52e7cfedb1dae636df45f,,,,,,,,,1436,-42,68,1,0,0,response7disk,,0,7,7,1,0,0,rectangle,7,7,1,0,0,7,7,1,0,0,0,130,130,138,1,,,,,,,,
,,,,,,,,,,,,,FF,,,,,,,,5.2026,,,,,,,,,,,,,,,,,,,,,,60de3d32aeb7f2a8b4bba07d,60e563a6486a4d6c555c3f23,2021-07-07_10h21.30.088,Simcolourproject_2stim_asymm_v5,2020.2.10,Win32,60,60e52e7cfedb1dae636df45f,,,,,,,,,3444,30,55,1,0,0,response1disk,,7,-13,-7,1,0,0,rectangle,-13,-7,1,0,0,-13,-7,1,0,0,0,131,131,57,1,,,,,,,,
,,,,,,,,,,,,,FF,,,,,,,,1.9022,,,,,,,,,,,,,,,,,,,,,,60de3d32aeb7f2a8b4bba07d,60e563a6486a4d6c555c3f23,2021-07-07_10h21.30.088,Simcolourproject_2stim_asymm_v5,2020.2.10,Win32,60,60e52e7cfedb1dae636df45f,,,,,,,,,2627,23,68,1,0,0,response1disk,,7,4,12,1,0,0,rectangle,4,12,1,0,0,4,12,1,0,0,0,132,132,46,1,,,,,,,,
,,,,,,,,,,,,,FF,,,,,,,,1.6697,,,,,,,,,,,,,,,,,,,,,,60de3d32aeb7f2a8b4bba07d,60e563a6486a4d6c555c3f23,2021-07-07_10h21.30.088,Simcolourproject_2stim_asymm_v5,2020.2.10,Win32,60,60e52e7cfedb1dae636df45f,,,,,,,,,4010,33,78,1,0,0,response1disk,,7,-9,2,1,0,0,rectangle,-9,2,1,0,0,-9,2,1,0,0,0,133,133,75,1,,,,,,,,
,,,,,,,,,,,,,FF,,,,,,,,1.0881,,,,,,,,,,,,,,,,,,,,,,60de3d32aeb7f2a8b4bba07d,60e563a6486a4d6c555c3f23,2021-07-07_10h21.30.088,Simcolourproject_2stim_asymm_v5,2020.2.10,Win32,60,60e52e7cfedb1dae636df45f,,,,,,,,,940,24,79,1,0,0,response1disk,,7,7,11,1,0,0,rectangle,7,11,1,0,0,7,11,1,0,0,0,134,134,45,1,,,,,,,,
,,,,,,,,,,,,,FF,,,,,,,,1.1687,,,,,,,,,,,,,,,,,,,,,,60de3d32aeb7f2a8b4bba07d,60e563a6486a4d6c555c3f23,2021-07-07_10h21.30.088,Simcolourproject_2stim_asymm_v5,2020.2.10,Win32,60,60e52e7cfedb1dae636df45f,,,,,,,,,273,-36,91,1,0,0,response7disk,,0,-8,2,1,0,0,rectangle,-8,2,1,0,0,-8,2,1,0,0,0,135,135,52,1,,,,,,,,
,,,,,,,,,,,,,FF,,,,,,,,1.0213,,,,,,,,,,,,,,,,,,,,,,60de3d32aeb7f2a8b4bba07d,60e563a6486a4d6c555c3f23,2021-07-07_10h21.30.088,Simcolourproject_2stim_asymm_v5,2020.2.10,Win32,60,60e52e7cfedb1dae636df45f,,,,,,,,,2036,-46,80,1,0,0,response7disk,,0,-13,15,1,0,0,rectangle,-13,15,1,0,0,-13,15,1,0,0,0,136,136,127,1,,,,,,,,
,,,,,,,,,,,,,FF,,,,,,,,1.1673,,,,,,,,,,,,,,,,,,,,,,60de3d32aeb7f2a8b4bba07d,60e563a6486a4d6c555c3f23,2021-07-07_10h21.30.088,Simcolourproject_2stim_asymm_v5,2020.2.10,Win32,60,60e52e7cfedb1dae636df45f,,,,,,,,,1369,-39,74,1,0,0,response7disk,,0,-4,14,1,0,0,rectangle,-4,14,1,0,0,-4,14,1,0,0,0,137,137,120,1,,,,,,,,
,,,,,,,,,,,,,FF,,,,,,,,2.4843,,,,,,,,,,,,,,,,,,,,,,60de3d32aeb7f2a8b4bba07d,60e563a6486a4d6c555c3f23,2021-07-07_10h21.30.088,Simcolourproject_2stim_asymm_v5,2020.2.10,Win32,60,60e52e7cfedb1dae636df45f,,,,,,,,,3513,-47,75,1,0,0,response7disk,,0,-4,11,1,0,0,rectangle,-4,11,1,0,0,-4,11,1,0,0,0,138,138,2,1,,,,,,,,
,,,,,,,,,,,,,FF,,,,,,,,1.203,,,,,,,,,,,,,,,,,,,,,,60de3d32aeb7f2a8b4bba07d,60e563a6486a4d6c555c3f23,2021-07-07_10h21.30.088,Simcolourproject_2stim_asymm_v5,2020.2.10,Win32,60,60e52e7cfedb1dae636df45f,,,,,,,,,3582,22,91,1,0,0,response1disk,,7,1,14,1,0,0,rectangle,1,14,1,0,0,1,14,1,0,0,0,139,139,85,1,,,,,,,,
,,,,,,,,,,,,,FF,,,,,,,,1.1863,,,,,,,,,,,,,,,,,,,,,,60de3d32aeb7f2a8b4bba07d,60e563a6486a4d6c555c3f23,2021-07-07_10h21.30.088,Simcolourproject_2stim_asymm_v5,2020.2.10,Win32,60,60e52e7cfedb1dae636df45f,,,,,,,,,2559,-35,92,1,0,0,response7disk,,0,12,-9,1,0,0,rectangle,12,-9,1,0,0,12,-9,1,0,0,0,140,140,158,1,,,,,,,,
,,,,,,,,,,,,,FF,,,,,,,,1.4839,,,,,,,,,,,,,,,,,,,,,,60de3d32aeb7f2a8b4bba07d,60e563a6486a4d6c555c3f23,2021-07-07_10h21.30.088,Simcolourproject_2stim_asymm_v5,2020.2.10,Win32,60,60e52e7cfedb1dae636df45f,,,,,,,,,3062,23,72,1,0,0,response1disk,,7,11,7,1,0,0,rectangle,11,7,1,0,0,11,7,1,0,0,0,141,141,84,1,,,,,,,,
,,,,,,,,,,,,,FF,,,,,,,,1.8005,,,,,,,,,,,,,,,,,,,,,,60de3d32aeb7f2a8b4bba07d,60e563a6486a4d6c555c3f23,2021-07-07_10h21.30.088,Simcolourproject_2stim_asymm_v5,2020.2.10,Win32,60,60e52e7cfedb1dae636df45f,,,,,,,,,361,35,52,1,0,0,response1disk,,7,-6,0,1,0,0,rectangle,-6,0,1,0,0,-6,0,1,0,0,0,142,142,9,1,,,,,,,,
,,,,,,,,,,,,,FF,,,,,,,,1.4683,,,,,,,,,,,,,,,,,,,,,,60de3d32aeb7f2a8b4bba07d,60e563a6486a4d6c555c3f23,2021-07-07_10h21.30.088,Simcolourproject_2stim_asymm_v5,2020.2.10,Win32,60,60e52e7cfedb1dae636df45f,,,,,,,,,3280,-31,47,1,0,0,response7disk,,0,-5,6,1,0,0,rectangle,99,29,1,0,0,20,-3,1,0,0,0,143,143,83,1,,response1disk_3,TRUE,6,6,"[66,9,226,262,110,129,199,193,25,237,115,93,242,5,144,103,48,219,175,62]",4.384,rectangle
,,,,,,,,,,,,,FF,,,,,,,,4.9827,,,,,,,,,,,,,,,,,,,,,,60de3d32aeb7f2a8b4bba07d,60e563a6486a4d6c555c3f23,2021-07-07_10h21.30.088,Simcolourproject_2stim_asymm_v5,2020.2.10,Win32,60,60e52e7cfedb1dae636df45f,,,,,,,,,1808,-44,71,1,0,0,response7disk,,0,2,0,1,0,0,rectangle,2,0,1,0,0,2,0,1,0,0,0,144,144,61,1,,,,,,,,
,,,,,,,,,,,,,FF,,,,,,,,2.9175,,,,,,,,,,,,,,,,,,,,,,60de3d32aeb7f2a8b4bba07d,60e563a6486a4d6c555c3f23,2021-07-07_10h21.30.088,Simcolourproject_2stim_asymm_v5,2020.2.10,Win32,60,60e52e7cfedb1dae636df45f,,,,,,,,,2672,-42,78,1,0,0,response7disk,,0,15,5,1,0,0,rectangle,15,5,1,0,0,15,5,1,0,0,0,145,145,124,1,,,,,,,,
,,,,,,,,,,,,,FF,,,,,,,,1.2004,,,,,,,,,,,,,,,,,,,,,,60de3d32aeb7f2a8b4bba07d,60e563a6486a4d6c555c3f23,2021-07-07_10h21.30.088,Simcolourproject_2stim_asymm_v5,2020.2.10,Win32,60,60e52e7cfedb1dae636df45f,,,,,,,,,2325,27,64,1,0,0,response1disk,,7,6,7,1,0,0,rectangle,6,7,1,0,0,6,7,1,0,0,0,146,146,126,1,,,,,,,,
,,,,,,,,,,,,,FF,,,,,,,,4.3335,,,,,,,,,,,,,,,,,,,,,,60de3d32aeb7f2a8b4bba07d,60e563a6486a4d6c555c3f23,2021-07-07_10h21.30.088,Simcolourproject_2stim_asymm_v5,2020.2.10,Win32,60,60e52e7cfedb1dae636df45f,,,,,,,,,3398,33,67,1,0,0,response1disk,,7,11,4,1,0,0,rectangle,11,4,1,0,0,11,4,1,0,0,0,147,147,136,1,,,,,,,,
,,,,,,,,,,,,,FF,,,,,,,,1.4181,,,,,,,,,,,,,,,,,,,,,,60de3d32aeb7f2a8b4bba07d,60e563a6486a4d6c555c3f23,2021-07-07_10h21.30.088,Simcolourproject_2stim_asymm_v5,2020.2.10,Win32,60,60e52e7cfedb1dae636df45f,,,,,,,,,3422,-25,75,1,0,0,response7disk,,0,9,-1,1,0,0,rectangle,9,-1,1,0,0,9,-1,1,0,0,0,148,148,69,1,,,,,,,,
,,,,,,,,,,,,,FF,,,,,,,,1.2731,,,,,,,,,,,,,,,,,,,,,,60de3d32aeb7f2a8b4bba07d,60e563a6486a4d6c555c3f23,2021-07-07_10h21.30.088,Simcolourproject_2stim_asymm_v5,2020.2.10,Win32,60,60e52e7cfedb1dae636df45f,,,,,,,,,743,-25,80,1,0,0,response7disk,,0,0,6,1,0,0,rectangle,0,6,1,0,0,0,6,1,0,0,0,149,149,134,1,,,,,,,,
,,,,,,,,,,,,,FF,,,,,,,,1.2841,,,,,,,,,,,,,,,,,,,,,,60de3d32aeb7f2a8b4bba07d,60e563a6486a4d6c555c3f23,2021-07-07_10h21.30.088,Simcolourproject_2stim_asymm_v5,2020.2.10,Win32,60,60e52e7cfedb1dae636df45f,,,,,,,,,2385,-23,75,1,0,0,response7disk,,0,-6,4,1,0,0,rectangle,-6,4,1,0,0,-6,4,1,0,0,0,150,150,105,1,,,,,,,,
,,,,,,,,,,,,,FF,,,,,,,,1.3477,,,,,,,,,,,,,,,,,,,,,,60de3d32aeb7f2a8b4bba07d,60e563a6486a4d6c555c3f23,2021-07-07_10h21.30.088,Simcolourproject_2stim_asymm_v5,2020.2.10,Win32,60,60e52e7cfedb1dae636df45f,,,,,,,,,3572,-31,75,1,0,0,response7disk,,0,-7,11,1,0,0,rectangle,-7,11,1,0,0,-7,11,1,0,0,0,151,151,13,1,,,,,,,,
,,,,,,,,,,,,,FF,,,,,,,,1.2175,,,,,,,,,,,,,,,,,,,,,,60de3d32aeb7f2a8b4bba07d,60e563a6486a4d6c555c3f23,2021-07-07_10h21.30.088,Simcolourproject_2stim_asymm_v5,2020.2.10,Win32,60,60e52e7cfedb1dae636df45f,,,,,,,,,1792,-40,79,1,0,0,response7disk,,0,-7,9,1,0,0,rectangle,-7,9,1,0,0,-7,9,1,0,0,0,152,152,20,1,,,,,,,,
,,,,,,,,,,,,,FF,,,,,,,,1.2171,,,,,,,,,,,,,,,,,,,,,,60de3d32aeb7f2a8b4bba07d,60e563a6486a4d6c555c3f23,2021-07-07_10h21.30.088,Simcolourproject_2stim_asymm_v5,2020.2.10,Win32,60,60e52e7cfedb1dae636df45f,,,,,,,,,1375,-45,88,1,0,0,response7disk,,0,-3,5,1,0,0,rectangle,-3,5,1,0,0,-3,5,1,0,0,0,153,153,71,1,,,,,,,,
,,,,,,,,,,,,,FF,,,,,,,,1.2672,,,,,,,,,,,,,,,,,,,,,,60de3d32aeb7f2a8b4bba07d,60e563a6486a4d6c555c3f23,2021-07-07_10h21.30.088,Simcolourproject_2stim_asymm_v5,2020.2.10,Win32,60,60e52e7cfedb1dae636df45f,,,,,,,,,1956,-44,81,1,0,0,response7disk,,0,-8,1,1,0,0,rectangle,-8,1,1,0,0,-8,1,1,0,0,0,154,154,144,1,,,,,,,,
,,,,,,,,,,,,,FF,,,,,,,,1.267,,,,,,,,,,,,,,,,,,,,,,60de3d32aeb7f2a8b4bba07d,60e563a6486a4d6c555c3f23,2021-07-07_10h21.30.088,Simcolourproject_2stim_asymm_v5,2020.2.10,Win32,60,60e52e7cfedb1dae636df45f,,,,,,,,,96,-34,85,1,0,0,response7disk,,0,-2,2,1,0,0,rectangle,-2,2,1,0,0,-2,2,1,0,0,0,155,155,152,1,,,,,,,,
,,,,,,,,,,,,,FF,,,,,,,,1.4511,,,,,,,,,,,,,,,,,,,,,,60de3d32aeb7f2a8b4bba07d,60e563a6486a4d6c555c3f23,2021-07-07_10h21.30.088,Simcolourproject_2stim_asymm_v5,2020.2.10,Win32,60,60e52e7cfedb1dae636df45f,,,,,,,,,1953,-26,64,1,0,0,response7disk,,0,-8,2,1,0,0,rectangle,-8,2,1,0,0,-8,2,1,0,0,0,156,156,33,1,,,,,,,,
,,,,,,,,,,,,,FF,,,,,,,,1.3221,,,,,,,,,,,,,,,,,,,,,,60de3d32aeb7f2a8b4bba07d,60e563a6486a4d6c555c3f23,2021-07-07_10h21.30.088,Simcolourproject_2stim_asymm_v5,2020.2.10,Win32,60,60e52e7cfedb1dae636df45f,,,,,,,,,943,17,63,1,0,0,response1disk,,7,19,5,1,0,0,rectangle,19,5,1,0,0,19,5,1,0,0,0,157,157,129,1,,,,,,,,
,,,,,,,,,,,,,FF,,,,,,,,2.0723,,,,,,,,,,,,,,,,,,,,,,60de3d32aeb7f2a8b4bba07d,60e563a6486a4d6c555c3f23,2021-07-07_10h21.30.088,Simcolourproject_2stim_asymm_v5,2020.2.10,Win32,60,60e52e7cfedb1dae636df45f,,,,,,,,,3069,24,68,1,0,0,response1disk,,7,15,5,1,0,0,rectangle,15,5,1,0,0,15,5,1,0,0,0,158,158,76,1,,,,,,,,
,,,,,,,,,,,,,FF,,,,,,,,1.7344,,,,,,,,,,,,,,,,,,,,,,60de3d32aeb7f2a8b4bba07d,60e563a6486a4d6c555c3f23,2021-07-07_10h21.30.088,Simcolourproject_2stim_asymm_v5,2020.2.10,Win32,60,60e52e7cfedb1dae636df45f,,,,,,,,,2337,33,72,1,0,0,response1disk,,7,10,9,1,0,0,rectangle,10,9,1,0,0,10,9,1,0,0,0,159,159,89,1,,,,,,,,
,,,,,,,,,,,,,FF,,,,,,,,1.3381,,,,,,,,,,,,,,,,,,,,,,60de3d32aeb7f2a8b4bba07d,60e563a6486a4d6c555c3f23,2021-07-07_10h21.30.088,Simcolourproject_2stim_asymm_v5,2020.2.10,Win32,60,60e52e7cfedb1dae636df45f,,,,,,,,,4282,-35,98,1,0,0,response7disk,,0,-8,13,1,0,0,rectangle,-8,13,1,0,0,-8,13,1,0,0,1,0,160,139,1,,,,,,,,
,,,,,,,,,,,,,FF,,,,,,,,1.2374,,,,,,,,,,,,,,,,,,,,,,60de3d32aeb7f2a8b4bba07d,60e563a6486a4d6c555c3f23,2021-07-07_10h21.30.088,Simcolourproject_2stim_asymm_v5,2020.2.10,Win32,60,60e52e7cfedb1dae636df45f,,,,,,,,,3694,24,47,1,0,0,response1disk,,7,3,-3,1,0,0,rectangle,3,-3,1,0,0,3,-3,1,0,0,1,1,161,94,1,,,,,,,,
,,,,,,,,,,,,,FF,,,,,,,,1.2837,,,,,,,,,,,,,,,,,,,,,,60de3d32aeb7f2a8b4bba07d,60e563a6486a4d6c555c3f23,2021-07-07_10h21.30.088,Simcolourproject_2stim_asymm_v5,2020.2.10,Win32,60,60e52e7cfedb1dae636df45f,,,,,,,,,792,20,69,1,0,0,response1disk,,7,0,8,1,0,0,rectangle,0,8,1,0,0,0,8,1,0,0,1,2,162,151,1,,,,,,,,
,,,,,,,,,,,,,FF,,,,,,,,1.1336,,,,,,,,,,,,,,,,,,,,,,60de3d32aeb7f2a8b4bba07d,60e563a6486a4d6c555c3f23,2021-07-07_10h21.30.088,Simcolourproject_2stim_asymm_v5,2020.2.10,Win32,60,60e52e7cfedb1dae636df45f,,,,,,,,,1465,-30,60,1,0,0,response7disk,,0,-1,8,1,0,0,rectangle,-1,8,1,0,0,-1,8,1,0,0,1,3,163,62,1,,,,,,,,
,,,,,,,,,,,,,FF,,,,,,,,1.3842,,,,,,,,,,,,,,,,,,,,,,60de3d32aeb7f2a8b4bba07d,60e563a6486a4d6c555c3f23,2021-07-07_10h21.30.088,Simcolourproject_2stim_asymm_v5,2020.2.10,Win32,60,60e52e7cfedb1dae636df45f,,,,,,,,,34,33,66,1,0,0,response1disk,,7,9,-9,1,0,0,rectangle,9,-9,1,0,0,9,-9,1,0,0,1,4,164,8,1,,,,,,,,
,,,,,,,,,,,,,FF,,,,,,,,1.1349,,,,,,,,,,,,,,,,,,,,,,60de3d32aeb7f2a8b4bba07d,60e563a6486a4d6c555c3f23,2021-07-07_10h21.30.088,Simcolourproject_2stim_asymm_v5,2020.2.10,Win32,60,60e52e7cfedb1dae636df45f,,,,,,,,,1603,-23,81,1,0,0,response7disk,,0,1,-4,1,0,0,rectangle,1,-4,1,0,0,1,-4,1,0,0,1,5,165,103,1,,,,,,,,
,,,,,,,,,,,,,FF,,,,,,,,6.3667,,,,,,,,,,,,,,,,,,,,,,60de3d32aeb7f2a8b4bba07d,60e563a6486a4d6c555c3f23,2021-07-07_10h21.30.088,Simcolourproject_2stim_asymm_v5,2020.2.10,Win32,60,60e52e7cfedb1dae636df45f,,,,,,,,,2347,24,72,1,0,0,response1disk,,7,-12,6,1,0,0,rectangle,-12,6,1,0,0,-12,6,1,0,0,1,6,166,111,1,,,,,,,,
,,,,,,,,,,,,,FF,,,,,,,,1.2508,,,,,,,,,,,,,,,,,,,,,,60de3d32aeb7f2a8b4bba07d,60e563a6486a4d6c555c3f23,2021-07-07_10h21.30.088,Simcolourproject_2stim_asymm_v5,2020.2.10,Win32,60,60e52e7cfedb1dae636df45f,,,,,,,,,2999,-27,71,1,0,0,response7disk,,0,11,5,1,0,0,rectangle,11,5,1,0,0,11,5,1,0,0,1,7,167,10,1,,,,,,,,
,,,,,,,,,,,,,FF,,,,,,,,1.5505,,,,,,,,,,,,,,,,,,,,,,60de3d32aeb7f2a8b4bba07d,60e563a6486a4d6c555c3f23,2021-07-07_10h21.30.088,Simcolourproject_2stim_asymm_v5,2020.2.10,Win32,60,60e52e7cfedb1dae636df45f,,,,,,,,,2495,28,68,1,0,0,response1disk,,7,16,6,1,0,0,rectangle,16,6,1,0,0,16,6,1,0,0,1,8,168,106,1,,,,,,,,
,,,,,,,,,,,,,FF,,,,,,,,1.3522,,,,,,,,,,,,,,,,,,,,,,60de3d32aeb7f2a8b4bba07d,60e563a6486a4d6c555c3f23,2021-07-07_10h21.30.088,Simcolourproject_2stim_asymm_v5,2020.2.10,Win32,60,60e52e7cfedb1dae636df45f,,,,,,,,,3837,41,93,1,0,0,response1disk,,7,0,3,1,0,0,rectangle,0,3,1,0,0,0,3,1,0,0,1,9,169,118,1,,,,,,,,
,,,,,,,,,,,,,FF,,,,,,,,1.4406,,,,,,,,,,,,,,,,,,,,,,60de3d32aeb7f2a8b4bba07d,60e563a6486a4d6c555c3f23,2021-07-07_10h21.30.088,Simcolourproject_2stim_asymm_v5,2020.2.10,Win32,60,60e52e7cfedb1dae636df45f,,,,,,,,,3726,39,76,1,0,0,response1disk,,7,6,3,1,0,0,rectangle,6,3,1,0,0,6,3,1,0,0,1,10,170,81,1,,,,,,,,
,,,,,,,,,,,,,FF,,,,,,,,1.3842,,,,,,,,,,,,,,,,,,,,,,60de3d32aeb7f2a8b4bba07d,60e563a6486a4d6c555c3f23,2021-07-07_10h21.30.088,Simcolourproject_2stim_asymm_v5,2020.2.10,Win32,60,60e52e7cfedb1dae636df45f,,,,,,,,,609,-34,55,1,0,0,response7disk,,0,3,7,1,0,0,rectangle,3,7,1,0,0,3,7,1,0,0,1,11,171,88,1,,,,,,,,
,,,,,,,,,,,,,FF,,,,,,,,1.2187,,,,,,,,,,,,,,,,,,,,,,60de3d32aeb7f2a8b4bba07d,60e563a6486a4d6c555c3f23,2021-07-07_10h21.30.088,Simcolourproject_2stim_asymm_v5,2020.2.10,Win32,60,60e52e7cfedb1dae636df45f,,,,,,,,,2890,-26,62,1,0,0,response7disk,,0,-7,11,1,0,0,rectangle,-7,11,1,0,0,-7,11,1,0,0,1,12,172,102,1,,,,,,,,
,,,,,,,,,,,,,FF,,,,,,,,1.2506,,,,,,,,,,,,,,,,,,,,,,60de3d32aeb7f2a8b4bba07d,60e563a6486a4d6c555c3f23,2021-07-07_10h21.30.088,Simcolourproject_2stim_asymm_v5,2020.2.10,Win32,60,60e52e7cfedb1dae636df45f,,,,,,,,,3975,20,59,1,0,0,response1disk,,7,6,-4,1,0,0,rectangle,6,-4,1,0,0,6,-4,1,0,0,1,13,173,121,1,,,,,,,,
,,,,,,,,,,,,,FF,,,,,,,,1.5505,,,,,,,,,,,,,,,,,,,,,,60de3d32aeb7f2a8b4bba07d,60e563a6486a4d6c555c3f23,2021-07-07_10h21.30.088,Simcolourproject_2stim_asymm_v5,2020.2.10,Win32,60,60e52e7cfedb1dae636df45f,,,,,,,,,3005,47,89,1,0,0,response1disk,,7,1,10,1,0,0,rectangle,84,-58,1,0,0,9,4,1,0,0,1,14,174,108,1,,response3disk_3,TRUE,5,5,"[66,9,226,262,110,129,199,193,25,237,115,93,242,5,144,103,48,219,175,62]",2.4833,rectangle
,,,,,,,,,,,,,FF,,,,,,,,3.1219,,,,,,,,,,,,,,,,,,,,,,60de3d32aeb7f2a8b4bba07d,60e563a6486a4d6c555c3f23,2021-07-07_10h21.30.088,Simcolourproject_2stim_asymm_v5,2020.2.10,Win32,60,60e52e7cfedb1dae636df45f,,,,,,,,,253,-30,65,1,0,0,response7disk,,0,10,0,1,0,0,rectangle,10,0,1,0,0,10,0,1,0,0,1,15,175,86,1,,,,,,,,
,,,,,,,,,,,,,FF,,,,,,,,2.2843,,,,,,,,,,,,,,,,,,,,,,60de3d32aeb7f2a8b4bba07d,60e563a6486a4d6c555c3f23,2021-07-07_10h21.30.088,Simcolourproject_2stim_asymm_v5,2020.2.10,Win32,60,60e52e7cfedb1dae636df45f,,,,,,,,,1922,40,62,1,0,0,response1disk,,7,4,4,1,0,0,rectangle,4,4,1,0,0,4,4,1,0,0,1,16,176,44,1,,,,,,,,
,,,,,,,,,,,,,FF,,,,,,,,1.1881,,,,,,,,,,,,,,,,,,,,,,60de3d32aeb7f2a8b4bba07d,60e563a6486a4d6c555c3f23,2021-07-07_10h21.30.088,Simcolourproject_2stim_asymm_v5,2020.2.10,Win32,60,60e52e7cfedb1dae636df45f,,,,,,,,,2418,-39,90,1,0,0,response7disk,,0,0,9,1,0,0,rectangle,0,9,1,0,0,0,9,1,0,0,1,17,177,152,1,,,,,,,,
,,,,,,,,,,,,,FF,,,,,,,,1.251,,,,,,,,,,,,,,,,,,,,,,60de3d32aeb7f2a8b4bba07d,60e563a6486a4d6c555c3f23,2021-07-07_10h21.30.088,Simcolourproject_2stim_asymm_v5,2020.2.10,Win32,60,60e52e7cfedb1dae636df45f,,,,,,,,,1439,26,72,1,0,0,response1disk,,7,8,12,1,0,0,rectangle,8,12,1,0,0,8,12,1,0,0,1,18,178,5,1,,,,,,,,
,,,,,,,,,,,,,FF,,,,,,,,1.5508,,,,,,,,,,,,,,,,,,,,,,60de3d32aeb7f2a8b4bba07d,60e563a6486a4d6c555c3f23,2021-07-07_10h21.30.088,Simcolourproject_2stim_asymm_v5,2020.2.10,Win32,60,60e52e7cfedb1dae636df45f,,,,,,,,,1472,24,64,1,0,0,response1disk,,7,5,-1,1,0,0,rectangle,5,-1,1,0,0,5,-1,1,0,0,1,19,179,16,1,,,,,,,,
,,,,,,,,,,,,,FF,,,,,,,,1.2568,,,,,,,,,,,,,,,,,,,,,,60de3d32aeb7f2a8b4bba07d,60e563a6486a4d6c555c3f23,2021-07-07_10h21.30.088,Simcolourproject_2stim_asymm_v5,2020.2.10,Win32,60,60e52e7cfedb1dae636df45f,,,,,,,,,3683,35,74,1,0,0,response1disk,,7,4,11,1,0,0,rectangle,4,11,1,0,0,4,11,1,0,0,1,20,180,140,1,,,,,,,,
,,,,,,,,,,,,,FF,,,,,,,,1.1838,,,,,,,,,,,,,,,,,,,,,,60de3d32aeb7f2a8b4bba07d,60e563a6486a4d6c555c3f23,2021-07-07_10h21.30.088,Simcolourproject_2stim_asymm_v5,2020.2.10,Win32,60,60e52e7cfedb1dae636df45f,,,,,,,,,3652,45,92,1,0,0,response1disk,,7,-7,1,1,0,0,rectangle,-7,1,1,0,0,-7,1,1,0,0,1,21,181,6,1,,,,,,,,
,,,,,,,,,,,,,FF,,,,,,,,1.3184,,,,,,,,,,,,,,,,,,,,,,60de3d32aeb7f2a8b4bba07d,60e563a6486a4d6c555c3f23,2021-07-07_10h21.30.088,Simcolourproject_2stim_asymm_v5,2020.2.10,Win32,60,60e52e7cfedb1dae636df45f,,,,,,,,,2055,49,94,1,0,0,response1disk,,7,-6,9,1,0,0,rectangle,-6,9,1,0,0,-6,9,1,0,0,1,22,182,150,1,,,,,,,,
,,,,,,,,,,,,,FF,,,,,,,,1.2006,,,,,,,,,,,,,,,,,,,,,,60de3d32aeb7f2a8b4bba07d,60e563a6486a4d6c555c3f23,2021-07-07_10h21.30.088,Simcolourproject_2stim_asymm_v5,2020.2.10,Win32,60,60e52e7cfedb1dae636df45f,,,,,,,,,695,29,86,1,0,0,response1disk,,7,2,4,1,0,0,rectangle,2,4,1,0,0,2,4,1,0,0,1,23,183,49,1,,,,,,,,
,,,,,,,,,,,,,FF,,,,,,,,1.4839,,,,,,,,,,,,,,,,,,,,,,60de3d32aeb7f2a8b4bba07d,60e563a6486a4d6c555c3f23,2021-07-07_10h21.30.088,Simcolourproject_2stim_asymm_v5,2020.2.10,Win32,60,60e52e7cfedb1dae636df45f,,,,,,,,,297,47,96,1,0,0,response1disk,,7,2,9,1,0,0,rectangle,2,9,1,0,0,2,9,1,0,0,1,24,184,117,1,,,,,,,,
,,,,,,,,,,,,,FF,,,,,,,,1.3172,,,,,,,,,,,,,,,,,,,,,,60de3d32aeb7f2a8b4bba07d,60e563a6486a4d6c555c3f23,2021-07-07_10h21.30.088,Simcolourproject_2stim_asymm_v5,2020.2.10,Win32,60,60e52e7cfedb1dae636df45f,,,,,,,,,1739,50,81,1,0,0,response1disk,,7,8,8,1,0,0,rectangle,8,8,1,0,0,8,8,1,0,0,1,25,185,141,1,,,,,,,,
,,,,,,,,,,,,,FF,,,,,,,,1.4502,,,,,,,,,,,,,,,,,,,,,,60de3d32aeb7f2a8b4bba07d,60e563a6486a4d6c555c3f23,2021-07-07_10h21.30.088,Simcolourproject_2stim_asymm_v5,2020.2.10,Win32,60,60e52e7cfedb1dae636df45f,,,,,,,,,1230,-37,80,1,0,0,response7disk,,0,-7,7,1,0,0,rectangle,-7,7,1,0,0,-7,7,1,0,0,1,26,186,27,1,,,,,,,,
,,,,,,,,,,,,,FF,,,,,,,,1.1402,,,,,,,,,,,,,,,,,,,,,,60de3d32aeb7f2a8b4bba07d,60e563a6486a4d6c555c3f23,2021-07-07_10h21.30.088,Simcolourproject_2stim_asymm_v5,2020.2.10,Win32,60,60e52e7cfedb1dae636df45f,,,,,,,,,1511,45,74,1,0,0,response1disk,,7,17,-6,1,0,0,rectangle,17,-6,1,0,0,17,-6,1,0,0,1,27,187,149,1,,,,,,,,
,,,,,,,,,,,,,FF,,,,,,,,2.0856,,,,,,,,,,,,,,,,,,,,,,60de3d32aeb7f2a8b4bba07d,60e563a6486a4d6c555c3f23,2021-07-07_10h21.30.088,Simcolourproject_2stim_asymm_v5,2020.2.10,Win32,60,60e52e7cfedb1dae636df45f,,,,,,,,,1247,39,76,1,0,0,response1disk,,7,-8,-13,1,0,0,rectangle,-8,-13,1,0,0,-8,-13,1,0,0,1,28,188,145,1,,,,,,,,
,,,,,,,,,,,,,FF,,,,,,,,1.1504,,,,,,,,,,,,,,,,,,,,,,60de3d32aeb7f2a8b4bba07d,60e563a6486a4d6c555c3f23,2021-07-07_10h21.30.088,Simcolourproject_2stim_asymm_v5,2020.2.10,Win32,60,60e52e7cfedb1dae636df45f,,,,,,,,,2880,34,93,1,0,0,response1disk,,7,12,5,1,0,0,rectangle,12,5,1,0,0,12,5,1,0,0,1,29,189,135,1,,,,,,,,
,,,,,,,,,,,,,FF,,,,,,,,1.1394,,,,,,,,,,,,,,,,,,,,,,60de3d32aeb7f2a8b4bba07d,60e563a6486a4d6c555c3f23,2021-07-07_10h21.30.088,Simcolourproject_2stim_asymm_v5,2020.2.10,Win32,60,60e52e7cfedb1dae636df45f,,,,,,,,,857,25,76,1,0,0,response1disk,,7,16,-6,1,0,0,rectangle,16,-6,1,0,0,16,-6,1,0,0,1,30,190,24,1,,,,,,,,
,,,,,,,,,,,,,FF,,,,,,,,1.0506,,,,,,,,,,,,,,,,,,,,,,60de3d32aeb7f2a8b4bba07d,60e563a6486a4d6c555c3f23,2021-07-07_10h21.30.088,Simcolourproject_2stim_asymm_v5,2020.2.10,Win32,60,60e52e7cfedb1dae636df45f,,,,,,,,,876,37,90,1,0,0,response1disk,,7,7,6,1,0,0,rectangle,7,6,1,0,0,7,6,1,0,0,1,31,191,41,1,,,,,,,,
,,,,,,,,,,,,,FF,,,,,,,,1.1498,,,,,,,,,,,,,,,,,,,,,,60de3d32aeb7f2a8b4bba07d,60e563a6486a4d6c555c3f23,2021-07-07_10h21.30.088,Simcolourproject_2stim_asymm_v5,2020.2.10,Win32,60,60e52e7cfedb1dae636df45f,,,,,,,,,619,-47,84,1,0,0,response7disk,,0,1,5,1,0,0,rectangle,96,50,1,0,0,6,-1,1,0,0,1,32,192,96,1,,response1disk_3,TRUE,6,6,"[66,9,226,262,110,129,199,193,25,237,115,93,242,5,144,103,48,219,175,62]",2.6202,rectangle
,,,,,,,,,,,,,FF,,,,,,,,1.4708,,,,,,,,,,,,,,,,,,,,,,60de3d32aeb7f2a8b4bba07d,60e563a6486a4d6c555c3f23,2021-07-07_10h21.30.088,Simcolourproject_2stim_asymm_v5,2020.2.10,Win32,60,60e52e7cfedb1dae636df45f,,,,,,,,,4139,35,73,1,0,0,response1disk,,7,0,-8,1,0,0,rectangle,0,-8,1,0,0,0,-8,1,0,0,1,33,193,154,1,,,,,,,,
,,,,,,,,,,,,,FF,,,,,,,,1.351,,,,,,,,,,,,,,,,,,,,,,60de3d32aeb7f2a8b4bba07d,60e563a6486a4d6c555c3f23,2021-07-07_10h21.30.088,Simcolourproject_2stim_asymm_v5,2020.2.10,Win32,60,60e52e7cfedb1dae636df45f,,,,,,,,,4340,24,62,1,0,0,response1disk,,7,14,0,1,0,0,rectangle,14,0,1,0,0,14,0,1,0,0,1,34,194,17,1,,,,,,,,
,,,,,,,,,,,,,FF,,,,,,,,1.422,,,,,,,,,,,,,,,,,,,,,,60de3d32aeb7f2a8b4bba07d,60e563a6486a4d6c555c3f23,2021-07-07_10h21.30.088,Simcolourproject_2stim_asymm_v5,2020.2.10,Win32,60,60e52e7cfedb1dae636df45f,,,,,,,,,2776,-31,90,1,0,0,response7disk,,0,3,7,1,0,0,rectangle,3,7,1,0,0,3,7,1,0,0,1,35,195,123,1,,,,,,,,
,,,,,,,,,,,,,FF,,,,,,,,1.1832,,,,,,,,,,,,,,,,,,,,,,60de3d32aeb7f2a8b4bba07d,60e563a6486a4d6c555c3f23,2021-07-07_10h21.30.088,Simcolourproject_2stim_asymm_v5,2020.2.10,Win32,60,60e52e7cfedb1dae636df45f,,,,,,,,,2403,22,65,1,0,0,response1disk,,7,10,1,1,0,0,rectangle,10,1,1,0,0,10,1,1,0,0,1,36,196,90,1,,,,,,,,
,,,,,,,,,,,,,FF,,,,,,,,1.7059,,,,,,,,,,,,,,,,,,,,,,60de3d32aeb7f2a8b4bba07d,60e563a6486a4d6c555c3f23,2021-07-07_10h21.30.088,Simcolourproject_2stim_asymm_v5,2020.2.10,Win32,60,60e52e7cfedb1dae636df45f,,,,,,,,,2479,30,64,1,0,0,response1disk,,7,15,0,1,0,0,rectangle,15,0,1,0,0,15,0,1,0,0,1,37,197,45,1,,,,,,,,
,,,,,,,,,,,,,FF,,,,,,,,1.1528,,,,,,,,,,,,,,,,,,,,,,60de3d32aeb7f2a8b4bba07d,60e563a6486a4d6c555c3f23,2021-07-07_10h21.30.088,Simcolourproject_2stim_asymm_v5,2020.2.10,Win32,60,60e52e7cfedb1dae636df45f,,,,,,,,,4170,-41,95,1,0,0,response7disk,,0,3,9,1,0,0,rectangle,74,37,1,0,0,31,12,1,0,0,1,38,198,156,1,,response1disk_3,TRUE,6,6,"[66,9,226,262,110,129,199,193,25,237,115,93,242,5,144,103,48,219,175,62]",3.1668,rectangle
,,,,,,,,,,,,,FF,,,,,,,,1.4177,,,,,,,,,,,,,,,,,,,,,,60de3d32aeb7f2a8b4bba07d,60e563a6486a4d6c555c3f23,2021-07-07_10h21.30.088,Simcolourproject_2stim_asymm_v5,2020.2.10,Win32,60,60e52e7cfedb1dae636df45f,,,,,,,,,621,24,85,1,0,0,response1disk,,7,-11,-5,1,0,0,rectangle,-11,-5,1,0,0,-11,-5,1,0,0,1,39,199,82,1,,,,,,,,
,,,,,,,,,,,,,FF,,,,,,,,1.5518,,,,,,,,,,,,,,,,,,,,,,60de3d32aeb7f2a8b4bba07d,60e563a6486a4d6c555c3f23,2021-07-07_10h21.30.088,Simcolourproject_2stim_asymm_v5,2020.2.10,Win32,60,60e52e7cfedb1dae636df45f,,,,,,,,,960,22,57,1,0,0,response1disk,,7,18,3,1,0,0,rectangle,18,3,1,0,0,18,3,1,0,0,1,40,200,131,1,,,,,,,,
,,,,,,,,,,,,,FF,,,,,,,,1.2893,,,,,,,,,,,,,,,,,,,,,,60de3d32aeb7f2a8b4bba07d,60e563a6486a4d6c555c3f23,2021-07-07_10h21.30.088,Simcolourproject_2stim_asymm_v5,2020.2.10,Win32,60,60e52e7cfedb1dae636df45f,,,,,,,,,577,29,68,1,0,0,response1disk,,7,8,-7,1,0,0,rectangle,8,-7,1,0,0,8,-7,1,0,0,1,41,201,39,1,,,,,,,,
,,,,,,,,,,,,,FF,,,,,,,,2.2502,,,,,,,,,,,,,,,,,,,,,,60de3d32aeb7f2a8b4bba07d,60e563a6486a4d6c555c3f23,2021-07-07_10h21.30.088,Simcolourproject_2stim_asymm_v5,2020.2.10,Win32,60,60e52e7cfedb1dae636df45f,,,,,,,,,860,67,92,1,0,0,response1disk,,7,-9,-1,1,0,0,rectangle,-9,-1,1,0,0,-9,-1,1,0,0,1,42,202,95,1,,,,,,,,
,,,,,,,,,,,,,FF,,,,,,,,1.2002,,,,,,,,,,,,,,,,,,,,,,60de3d32aeb7f2a8b4bba07d,60e563a6486a4d6c555c3f23,2021-07-07_10h21.30.088,Simcolourproject_2stim_asymm_v5,2020.2.10,Win32,60,60e52e7cfedb1dae636df45f,,,,,,,,,3510,-27,81,1,0,0,response7disk,,0,5,-3,1,0,0,rectangle,5,-3,1,0,0,5,-3,1,0,0,1,43,203,125,1,,,,,,,,
,,,,,,,,,,,,,FF,,,,,,,,1.1667,,,,,,,,,,,,,,,,,,,,,,60de3d32aeb7f2a8b4bba07d,60e563a6486a4d6c555c3f23,2021-07-07_10h21.30.088,Simcolourproject_2stim_asymm_v5,2020.2.10,Win32,60,60e52e7cfedb1dae636df45f,,,,,,,,,4183,-38,70,1,0,0,response7disk,,0,-1,-5,1,0,0,rectangle,-1,-5,1,0,0,-1,-5,1,0,0,1,44,204,25,1,,,,,,,,
,,,,,,,,,,,,,FF,,,,,,,,1.1378,,,,,,,,,,,,,,,,,,,,,,60de3d32aeb7f2a8b4bba07d,60e563a6486a4d6c555c3f23,2021-07-07_10h21.30.088,Simcolourproject_2stim_asymm_v5,2020.2.10,Win32,60,60e52e7cfedb1dae636df45f,,,,,,,,,3950,26,93,1,0,0,response1disk,,7,1,3,1,0,0,rectangle,1,3,1,0,0,1,3,1,0,0,1,45,205,143,1,,,,,,,,
,,,,,,,,,,,,,FF,,,,,,,,1.234,,,,,,,,,,,,,,,,,,,,,,60de3d32aeb7f2a8b4bba07d,60e563a6486a4d6c555c3f23,2021-07-07_10h21.30.088,Simcolourproject_2stim_asymm_v5,2020.2.10,Win32,60,60e52e7cfedb1dae636df45f,,,,,,,,,3184,33,88,1,0,0,response1disk,,7,10,7,1,0,0,rectangle,10,7,1,0,0,10,7,1,0,0,1,46,206,127,1,,,,,,,,
,,,,,,,,,,,,,FF,,,,,,,,2.0392,,,,,,,,,,,,,,,,,,,,,,60de3d32aeb7f2a8b4bba07d,60e563a6486a4d6c555c3f23,2021-07-07_10h21.30.088,Simcolourproject_2stim_asymm_v5,2020.2.10,Win32,60,60e52e7cfedb1dae636df45f,,,,,,,,,2193,43,67,1,0,0,response1disk,,7,4,-3,1,0,0,rectangle,4,-3,1,0,0,4,-3,1,0,0,1,47,207,51,1,,,,,,,,
,,,,,,,,,,,,,FF,,,,,,,,1.1338,,,,,,,,,,,,,,,,,,,,,,60de3d32aeb7f2a8b4bba07d,60e563a6486a4d6c555c3f23,2021-07-07_10h21.30.088,Simcolourproject_2stim_asymm_v5,2020.2.10,Win32,60,60e52e7cfedb1dae636df45f,,,,,,,,,1311,-27,62,1,0,0,response7disk,,0,-20,-7,1,0,0,rectangle,-20,-7,1,0,0,-20,-7,1,0,0,1,48,208,21,1,,,,,,,,
,,,,,,,,,,,,,FF,,,,,,,,1.9675,,,,,,,,,,,,,,,,,,,,,,60de3d32aeb7f2a8b4bba07d,60e563a6486a4d6c555c3f23,2021-07-07_10h21.30.088,Simcolourproject_2stim_asymm_v5,2020.2.10,Win32,60,60e52e7cfedb1dae636df45f,,,,,,,,,3374,42,70,1,0,0,response1disk,,7,10,-14,1,0,0,rectangle,10,-14,1,0,0,10,-14,1,0,0,1,49,209,109,1,,,,,,,,
,,,,,,,,,,,,,FF,,,,,,,,2.9835,,,,,,,,,,,,,,,,,,,,,,60de3d32aeb7f2a8b4bba07d,60e563a6486a4d6c555c3f23,2021-07-07_10h21.30.088,Simcolourproject_2stim_asymm_v5,2020.2.10,Win32,60,60e52e7cfedb1dae636df45f,,,,,,,,,2726,-44,82,1,0,0,response7disk,,0,17,-3,1,0,0,rectangle,17,-3,1,0,0,17,-3,1,0,0,1,50,210,0,1,,,,,,,,
,,,,,,,,,,,,,FF,,,,,,,,1.0004,,,,,,,,,,,,,,,,,,,,,,60de3d32aeb7f2a8b4bba07d,60e563a6486a4d6c555c3f23,2021-07-07_10h21.30.088,Simcolourproject_2stim_asymm_v5,2020.2.10,Win32,60,60e52e7cfedb1dae636df45f,,,,,,,,,3959,42,78,1,0,0,response1disk,,7,18,1,1,0,0,rectangle,18,1,1,0,0,18,1,1,0,0,1,51,211,91,1,,,,,,,,
,,,,,,,,,,,,,FF,,,,,,,,1.0504,,,,,,,,,,,,,,,,,,,,,,60de3d32aeb7f2a8b4bba07d,60e563a6486a4d6c555c3f23,2021-07-07_10h21.30.088,Simcolourproject_2stim_asymm_v5,2020.2.10,Win32,60,60e52e7cfedb1dae636df45f,,,,,,,,,870,24,70,1,0,0,response1disk,,7,19,11,1,0,0,rectangle,19,11,1,0,0,19,11,1,0,0,1,52,212,146,1,,,,,,,,
,,,,,,,,,,,,,FF,,,,,,,,1.0504,,,,,,,,,,,,,,,,,,,,,,60de3d32aeb7f2a8b4bba07d,60e563a6486a4d6c555c3f23,2021-07-07_10h21.30.088,Simcolourproject_2stim_asymm_v5,2020.2.10,Win32,60,60e52e7cfedb1dae636df45f,,,,,,,,,430,-35,76,1,0,0,response7disk,,0,5,3,1,0,0,rectangle,5,3,1,0,0,5,3,1,0,0,1,53,213,105,1,,,,,,,,
,,,,,,,,,,,,,FF,,,,,,,,1.3046,,,,,,,,,,,,,,,,,,,,,,60de3d32aeb7f2a8b4bba07d,60e563a6486a4d6c555c3f23,2021-07-07_10h21.30.088,Simcolourproject_2stim_asymm_v5,2020.2.10,Win32,60,60e52e7cfedb1dae636df45f,,,,,,,,,2807,28,82,1,0,0,response1disk,,7,10,-2,1,0,0,rectangle,10,-2,1,0,0,10,-2,1,0,0,1,54,214,85,1,,,,,,,,
,,,,,,,,,,,,,FF,,,,,,,,1.1343,,,,,,,,,,,,,,,,,,,,,,60de3d32aeb7f2a8b4bba07d,60e563a6486a4d6c555c3f23,2021-07-07_10h21.30.088,Simcolourproject_2stim_asymm_v5,2020.2.10,Win32,60,60e52e7cfedb1dae636df45f,,,,,,,,,147,42,89,1,0,0,response1disk,,7,2,-7,1,0,0,rectangle,2,-7,1,0,0,2,-7,1,0,0,1,55,215,73,1,,,,,,,,
,,,,,,,,,,,,,FF,,,,,,,,3.267,,,,,,,,,,,,,,,,,,,,,,60de3d32aeb7f2a8b4bba07d,60e563a6486a4d6c555c3f23,2021-07-07_10h21.30.088,Simcolourproject_2stim_asymm_v5,2020.2.10,Win32,60,60e52e7cfedb1dae636df45f,,,,,,,,,477,24,74,1,0,0,response1disk,,7,5,7,1,0,0,rectangle,5,7,1,0,0,5,7,1,0,0,1,56,216,99,1,,,,,,,,
,,,,,,,,,,,,,FF,,,,,,,,1.8209,,,,,,,,,,,,,,,,,,,,,,60de3d32aeb7f2a8b4bba07d,60e563a6486a4d6c555c3f23,2021-07-07_10h21.30.088,Simcolourproject_2stim_asymm_v5,2020.2.10,Win32,60,60e52e7cfedb1dae636df45f,,,,,,,,,4322,44,86,1,0,0,response1disk,,7,-3,9,1,0,0,rectangle,-3,9,1,0,0,-3,9,1,0,0,1,57,217,130,1,,,,,,,,
,,,,,,,,,,,,,FF,,,,,,,,2.2671,,,,,,,,,,,,,,,,,,,,,,60de3d32aeb7f2a8b4bba07d,60e563a6486a4d6c555c3f23,2021-07-07_10h21.30.088,Simcolourproject_2stim_asymm_v5,2020.2.10,Win32,60,60e52e7cfedb1dae636df45f,,,,,,,,,1756,51,94,1,0,0,response1disk,,7,13,-5,1,0,0,rectangle,-28,-90,1,0,0,-11,4,1,0,0,1,58,218,55,1,,response5disk_3,TRUE,3,3,"[66,9,226,262,110,129,199,193,25,237,115,93,242,5,144,103,48,219,175,62]",2.4545,rectangle
,,,,,,,,,,,,,FF,,,,,,,,2.1003,,,,,,,,,,,,,,,,,,,,,,60de3d32aeb7f2a8b4bba07d,60e563a6486a4d6c555c3f23,2021-07-07_10h21.30.088,Simcolourproject_2stim_asymm_v5,2020.2.10,Win32,60,60e52e7cfedb1dae636df45f,,,,,,,,,901,51,89,1,0,0,response1disk,,7,12,1,1,0,0,rectangle,12,1,1,0,0,12,1,1,0,0,1,59,219,138,1,,,,,,,,
,,,,,,,,,,,,,FF,,,,,,,,2.33,,,,,,,,,,,,,,,,,,,,,,60de3d32aeb7f2a8b4bba07d,60e563a6486a4d6c555c3f23,2021-07-07_10h21.30.088,Simcolourproject_2stim_asymm_v5,2020.2.10,Win32,60,60e52e7cfedb1dae636df45f,,,,,,,,,3054,-44,72,1,0,0,response7disk,,0,-17,-1,1,0,0,rectangle,-17,-1,1,0,0,-17,-1,1,0,0,1,60,220,34,1,,,,,,,,
,,,,,,,,,,,,,FF,,,,,,,,1.5506,,,,,,,,,,,,,,,,,,,,,,60de3d32aeb7f2a8b4bba07d,60e563a6486a4d6c555c3f23,2021-07-07_10h21.30.088,Simcolourproject_2stim_asymm_v5,2020.2.10,Win32,60,60e52e7cfedb1dae636df45f,,,,,,,,,1836,32,66,1,0,0,response1disk,,7,12,1,1,0,0,rectangle,12,1,1,0,0,12,1,1,0,0,1,61,221,36,1,,,,,,,,
,,,,,,,,,,,,,FF,,,,,,,,1.1006,,,,,,,,,,,,,,,,,,,,,,60de3d32aeb7f2a8b4bba07d,60e563a6486a4d6c555c3f23,2021-07-07_10h21.30.088,Simcolourproject_2stim_asymm_v5,2020.2.10,Win32,60,60e52e7cfedb1dae636df45f,,,,,,,,,3020,34,63,1,0,0,response1disk,,7,17,5,1,0,0,rectangle,17,5,1,0,0,17,5,1,0,0,1,62,222,7,1,,,,,,,,
,,,,,,,,,,,,,FF,,,,,,,,1.0357,,,,,,,,,,,,,,,,,,,,,,60de3d32aeb7f2a8b4bba07d,60e563a6486a4d6c555c3f23,2021-07-07_10h21.30.088,Simcolourproject_2stim_asymm_v5,2020.2.10,Win32,60,60e52e7cfedb1dae636df45f,,,,,,,,,4243,29,84,1,0,0,response1disk,,7,24,5,1,0,0,rectangle,24,5,1,0,0,24,5,1,0,0,1,63,223,9,1,,,,,,,,
,,,,,,,,,,,,,FF,,,,,,,,1.3854,,,,,,,,,,,,,,,,,,,,,,60de3d32aeb7f2a8b4bba07d,60e563a6486a4d6c555c3f23,2021-07-07_10h21.30.088,Simcolourproject_2stim_asymm_v5,2020.2.10,Win32,60,60e52e7cfedb1dae636df45f,,,,,,,,,747,-33,71,1,0,0,response7disk,,0,11,-2,1,0,0,rectangle,11,-2,1,0,0,11,-2,1,0,0,1,64,224,114,1,,,,,,,,
,,,,,,,,,,,,,FF,,,,,,,,1.4015,,,,,,,,,,,,,,,,,,,,,,60de3d32aeb7f2a8b4bba07d,60e563a6486a4d6c555c3f23,2021-07-07_10h21.30.088,Simcolourproject_2stim_asymm_v5,2020.2.10,Win32,60,60e52e7cfedb1dae636df45f,,,,,,,,,656,31,49,1,0,0,response1disk,,7,7,-6,1,0,0,rectangle,103,49,1,0,0,8,-7,1,0,0,1,65,225,158,1,,response1disk_3,TRUE,6,6,"[66,9,226,262,110,129,199,193,25,237,115,93,242,5,144,103,48,219,175,62]",2.9255,rectangle
,,,,,,,,,,,,,FF,,,,,,,,1.7773,,,,,,,,,,,,,,,,,,,,,,60de3d32aeb7f2a8b4bba07d,60e563a6486a4d6c555c3f23,2021-07-07_10h21.30.088,Simcolourproject_2stim_asymm_v5,2020.2.10,Win32,60,60e52e7cfedb1dae636df45f,,,,,,,,,924,32,67,1,0,0,response1disk,,7,13,-7,1,0,0,rectangle,13,-7,1,0,0,13,-7,1,0,0,1,66,226,132,1,,,,,,,,
,,,,,,,,,,,,,FF,,,,,,,,1.2711,,,,,,,,,,,,,,,,,,,,,,60de3d32aeb7f2a8b4bba07d,60e563a6486a4d6c555c3f23,2021-07-07_10h21.30.088,Simcolourproject_2stim_asymm_v5,2020.2.10,Win32,60,60e52e7cfedb1dae636df45f,,,,,,,,,2705,34,71,1,0,0,response1disk,,7,7,-3,1,0,0,rectangle,7,-3,1,0,0,7,-3,1,0,0,1,67,227,29,1,,,,,,,,
,,,,,,,,,,,,,FF,,,,,,,,1.1172,,,,,,,,,,,,,,,,,,,,,,60de3d32aeb7f2a8b4bba07d,60e563a6486a4d6c555c3f23,2021-07-07_10h21.30.088,Simcolourproject_2stim_asymm_v5,2020.2.10,Win32,60,60e52e7cfedb1dae636df45f,,,,,,,,,3139,30,49,1,0,0,response1disk,,7,9,5,1,0,0,rectangle,9,5,1,0,0,9,5,1,0,0,1,68,228,136,1,,,,,,,,
,,,,,,,,,,,,,FF,,,,,,,,1.1892,,,,,,,,,,,,,,,,,,,,,,60de3d32aeb7f2a8b4bba07d,60e563a6486a4d6c555c3f23,2021-07-07_10h21.30.088,Simcolourproject_2stim_asymm_v5,2020.2.10,Win32,60,60e52e7cfedb1dae636df45f,,,,,,,,,2606,-40,113,1,0,0,response7disk,,0,-2,-8,1,0,0,rectangle,-2,-8,1,0,0,-2,-8,1,0,0,1,69,229,38,1,,,,,,,,
,,,,,,,,,,,,,FF,,,,,,,,1.2006,,,,,,,,,,,,,,,,,,,,,,60de3d32aeb7f2a8b4bba07d,60e563a6486a4d6c555c3f23,2021-07-07_10h21.30.088,Simcolourproject_2stim_asymm_v5,2020.2.10,Win32,60,60e52e7cfedb1dae636df45f,,,,,,,,,473,30,62,1,0,0,response1disk,,7,8,-3,1,0,0,rectangle,8,-3,1,0,0,8,-3,1,0,0,1,70,230,50,1,,,,,,,,
,,,,,,,,,,,,,FF,,,,,,,,1.4347,,,,,,,,,,,,,,,,,,,,,,60de3d32aeb7f2a8b4bba07d,60e563a6486a4d6c555c3f23,2021-07-07_10h21.30.088,Simcolourproject_2stim_asymm_v5,2020.2.10,Win32,60,60e52e7cfedb1dae636df45f,,,,,,,,,202,28,73,1,0,0,response1disk,,7,3,-10,1,0,0,rectangle,3,-10,1,0,0,3,-10,1,0,0,1,71,231,133,1,,,,,,,,
,,,,,,,,,,,,,FF,,,,,,,,1.3656,,,,,,,,,,,,,,,,,,,,,,60de3d32aeb7f2a8b4bba07d,60e563a6486a4d6c555c3f23,2021-07-07_10h21.30.088,Simcolourproject_2stim_asymm_v5,2020.2.10,Win32,60,60e52e7cfedb1dae636df45f,,,,,,,,,146,41,78,1,0,0,response1disk,,7,13,12,1,0,0,rectangle,13,12,1,0,0,13,12,1,0,0,1,72,232,134,1,,,,,,,,
,,,,,,,,,,,,,FF,,,,,,,,1.1499,,,,,,,,,,,,,,,,,,,,,,60de3d32aeb7f2a8b4bba07d,60e563a6486a4d6c555c3f23,2021-07-07_10h21.30.088,Simcolourproject_2stim_asymm_v5,2020.2.10,Win32,60,60e52e7cfedb1dae636df45f,,,,,,,,,4217,38,90,1,0,0,response1disk,,7,10,6,1,0,0,rectangle,10,6,1,0,0,10,6,1,0,0,1,73,233,93,1,,,,,,,,
,,,,,,,,,,,,,FF,,,,,,,,1.6677,,,,,,,,,,,,,,,,,,,,,,60de3d32aeb7f2a8b4bba07d,60e563a6486a4d6c555c3f23,2021-07-07_10h21.30.088,Simcolourproject_2stim_asymm_v5,2020.2.10,Win32,60,60e52e7cfedb1dae636df45f,,,,,,,,,1719,44,78,1,0,0,response1disk,,7,10,12,1,0,0,rectangle,10,12,1,0,0,10,12,1,0,0,1,74,234,70,1,,,,,,,,
,,,,,,,,,,,,,FF,,,,,,,,1.1182,,,,,,,,,,,,,,,,,,,,,,60de3d32aeb7f2a8b4bba07d,60e563a6486a4d6c555c3f23,2021-07-07_10h21.30.088,Simcolourproject_2stim_asymm_v5,2020.2.10,Win32,60,60e52e7cfedb1dae636df45f,,,,,,,,,3984,34,99,1,0,0,response1disk,,7,9,1,1,0,0,rectangle,9,1,1,0,0,9,1,1,0,0,1,75,235,43,1,,,,,,,,
,,,,,,,,,,,,,FF,,,,,,,,1.0727,,,,,,,,,,,,,,,,,,,,,,60de3d32aeb7f2a8b4bba07d,60e563a6486a4d6c555c3f23,2021-07-07_10h21.30.088,Simcolourproject_2stim_asymm_v5,2020.2.10,Win32,60,60e52e7cfedb1dae636df45f,,,,,,,,,1173,56,101,1,0,0,response1disk,,7,11,8,1,0,0,rectangle,89,65,1,0,0,-3,-1,1,0,0,1,76,236,104,1,,response1disk_3,TRUE,6,6,"[66,9,226,262,110,129,199,193,25,237,115,93,242,5,144,103,48,219,175,62]",2.5675,rectangle
,,,,,,,,,,,,,FF,,,,,,,,0.8668,,,,,,,,,,,,,,,,,,,,,,60de3d32aeb7f2a8b4bba07d,60e563a6486a4d6c555c3f23,2021-07-07_10h21.30.088,Simcolourproject_2stim_asymm_v5,2020.2.10,Win32,60,60e52e7cfedb1dae636df45f,,,,,,,,,2902,-28,56,1,0,0,response7disk,,0,5,-3,1,0,0,rectangle,5,-3,1,0,0,5,-3,1,0,0,1,77,237,31,1,,,,,,,,
,,,,,,,,,,,,,FF,,,,,,,,0.9859,,,,,,,,,,,,,,,,,,,,,,60de3d32aeb7f2a8b4bba07d,60e563a6486a4d6c555c3f23,2021-07-07_10h21.30.088,Simcolourproject_2stim_asymm_v5,2020.2.10,Win32,60,60e52e7cfedb1dae636df45f,,,,,,,,,3728,42,58,1,0,0,response1disk,,7,9,-5,1,0,0,rectangle,9,-5,1,0,0,9,-5,1,0,0,1,78,238,67,1,,,,,,,,
,,,,,,,,,,,,,FF,,,,,,,,1.0798,,,,,,,,,,,,,,,,,,,,,,60de3d32aeb7f2a8b4bba07d,60e563a6486a4d6c555c3f23,2021-07-07_10h21.30.088,Simcolourproject_2stim_asymm_v5,2020.2.10,Win32,60,60e52e7cfedb1dae636df45f,,,,,,,,,482,-21,54,1,0,0,response7disk,,0,-5,5,1,0,0,rectangle,-5,5,1,0,0,-5,5,1,0,0,1,79,239,80,1,,,,,,,,
,,,,,,,,,,,,,FF,,,,,,,,1.1673,,,,,,,,,,,,,,,,,,,,,,60de3d32aeb7f2a8b4bba07d,60e563a6486a4d6c555c3f23,2021-07-07_10h21.30.088,Simcolourproject_2stim_asymm_v5,2020.2.10,Win32,60,60e52e7cfedb1dae636df45f,,,,,,,,,812,15,65,1,0,0,response1disk,,7,3,6,1,0,0,rectangle,3,6,1,0,0,3,6,1,0,0,1,80,240,69,1,,,,,,,,
,,,,,,,,,,,,,FF,,,,,,,,1.4342,,,,,,,,,,,,,,,,,,,,,,60de3d32aeb7f2a8b4bba07d,60e563a6486a4d6c555c3f23,2021-07-07_10h21.30.088,Simcolourproject_2stim_asymm_v5,2020.2.10,Win32,60,60e52e7cfedb1dae636df45f,,,,,,,,,2041,-39,86,1,0,0,response7disk,,0,-7,1,1,0,0,rectangle,47,-96,1,0,0,8,-6,1,0,0,1,81,241,76,1,,response3disk_3,TRUE,4,4,"[66,9,226,262,110,129,199,193,25,237,115,93,242,5,144,103,48,219,175,62]",1.7997,rectangle
,,,,,,,,,,,,,FF,,,,,,,,1.691,,,,,,,,,,,,,,,,,,,,,,60de3d32aeb7f2a8b4bba07d,60e563a6486a4d6c555c3f23,2021-07-07_10h21.30.088,Simcolourproject_2stim_asymm_v5,2020.2.10,Win32,60,60e52e7cfedb1dae636df45f,,,,,,,,,3880,27,82,1,0,0,response1disk,,7,9,11,1,0,0,rectangle,9,11,1,0,0,9,11,1,0,0,1,82,242,144,1,,,,,,,,
,,,,,,,,,,,,,FF,,,,,,,,1.0335,,,,,,,,,,,,,,,,,,,,,,60de3d32aeb7f2a8b4bba07d,60e563a6486a4d6c555c3f23,2021-07-07_10h21.30.088,Simcolourproject_2stim_asymm_v5,2020.2.10,Win32,60,60e52e7cfedb1dae636df45f,,,,,,,,,3639,48,88,1,0,0,response1disk,,7,6,-8,1,0,0,rectangle,6,-8,1,0,0,6,-8,1,0,0,1,83,243,107,1,,,,,,,,
,,,,,,,,,,,,,FF,,,,,,,,1.3643,,,,,,,,,,,,,,,,,,,,,,60de3d32aeb7f2a8b4bba07d,60e563a6486a4d6c555c3f23,2021-07-07_10h21.30.088,Simcolourproject_2stim_asymm_v5,2020.2.10,Win32,60,60e52e7cfedb1dae636df45f,,,,,,,,,43,36,92,1,0,0,response1disk,,7,-7,-8,1,0,0,rectangle,-7,-8,1,0,0,-7,-8,1,0,0,1,84,244,30,1,,,,,,,,
,,,,,,,,,,,,,FF,,,,,,,,1.117,,,,,,,,,,,,,,,,,,,,,,60de3d32aeb7f2a8b4bba07d,60e563a6486a4d6c555c3f23,2021-07-07_10h21.30.088,Simcolourproject_2stim_asymm_v5,2020.2.10,Win32,60,60e52e7cfedb1dae636df45f,,,,,,,,,2097,-29,67,1,0,0,response7disk,,0,-6,5,1,0,0,rectangle,-6,5,1,0,0,-6,5,1,0,0,1,85,245,64,1,,,,,,,,
,,,,,,,,,,,,,FF,,,,,,,,0.9841,,,,,,,,,,,,,,,,,,,,,,60de3d32aeb7f2a8b4bba07d,60e563a6486a4d6c555c3f23,2021-07-07_10h21.30.088,Simcolourproject_2stim_asymm_v5,2020.2.10,Win32,60,60e52e7cfedb1dae636df45f,,,,,,,,,2260,37,69,1,0,0,response1disk,,7,5,4,1,0,0,rectangle,5,4,1,0,0,5,4,1,0,0,1,86,246,79,1,,,,,,,,
,,,,,,,,,,,,,FF,,,,,,,,1.0068,,,,,,,,,,,,,,,,,,,,,,60de3d32aeb7f2a8b4bba07d,60e563a6486a4d6c555c3f23,2021-07-07_10h21.30.088,Simcolourproject_2stim_asymm_v5,2020.2.10,Win32,60,60e52e7cfedb1dae636df45f,,,,,,,,,4080,41,98,1,0,0,response1disk,,7,9,-1,1,0,0,rectangle,9,-1,1,0,0,9,-1,1,0,0,1,87,247,4,1,,,,,,,,
,,,,,,,,,,,,,FF,,,,,,,,1.1219,,,,,,,,,,,,,,,,,,,,,,60de3d32aeb7f2a8b4bba07d,60e563a6486a4d6c555c3f23,2021-07-07_10h21.30.088,Simcolourproject_2stim_asymm_v5,2020.2.10,Win32,60,60e52e7cfedb1dae636df45f,,,,,,,,,182,42,91,1,0,0,response1disk,,7,-3,3,1,0,0,rectangle,-3,3,1,0,0,-3,3,1,0,0,1,88,248,74,1,,,,,,,,
,,,,,,,,,,,,,FF,,,,,,,,1.0334,,,,,,,,,,,,,,,,,,,,,,60de3d32aeb7f2a8b4bba07d,60e563a6486a4d6c555c3f23,2021-07-07_10h21.30.088,Simcolourproject_2stim_asymm_v5,2020.2.10,Win32,60,60e52e7cfedb1dae636df45f,,,,,,,,,842,37,84,1,0,0,response1disk,,7,3,2,1,0,0,rectangle,3,2,1,0,0,3,2,1,0,0,1,89,249,47,1,,,,,,,,
,,,,,,,,,,,,,FF,,,,,,,,1.0915,,,,,,,,,,,,,,,,,,,,,,60de3d32aeb7f2a8b4bba07d,60e563a6486a4d6c555c3f23,2021-07-07_10h21.30.088,Simcolourproject_2stim_asymm_v5,2020.2.10,Win32,60,60e52e7cfedb1dae636df45f,,,,,,,,,2046,-31,79,1,0,0,response7disk,,0,0,8,1,0,0,rectangle,0,8,1,0,0,0,8,1,0,0,1,90,250,120,1,,,,,,,,
,,,,,,,,,,,,,FF,,,,,,,,1.1448,,,,,,,,,,,,,,,,,,,,,,60de3d32aeb7f2a8b4bba07d,60e563a6486a4d6c555c3f23,2021-07-07_10h21.30.088,Simcolourproject_2stim_asymm_v5,2020.2.10,Win32,60,60e52e7cfedb1dae636df45f,,,,,,,,,1896,-42,104,1,0,0,response7disk,,0,-1,-3,1,0,0,rectangle,-1,-3,1,0,0,-1,-3,1,0,0,1,91,251,129,1,,,,,,,,
,,,,,,,,,,,,,FF,,,,,,,,1.1047,,,,,,,,,,,,,,,,,,,,,,60de3d32aeb7f2a8b4bba07d,60e563a6486a4d6c555c3f23,2021-07-07_10h21.30.088,Simcolourproject_2stim_asymm_v5,2020.2.10,Win32,60,60e52e7cfedb1dae636df45f,,,,,,,,,2942,53,76,1,0,0,response1disk,,7,12,10,1,0,0,rectangle,12,10,1,0,0,12,10,1,0,0,1,92,252,18,1,,,,,,,,
,,,,,,,,,,,,,FF,,,,,,,,1.1018,,,,,,,,,,,,,,,,,,,,,,60de3d32aeb7f2a8b4bba07d,60e563a6486a4d6c555c3f23,2021-07-07_10h21.30.088,Simcolourproject_2stim_asymm_v5,2020.2.10,Win32,60,60e52e7cfedb1dae636df45f,,,,,,,,,1117,35,91,1,0,0,response1disk,,7,-4,-2,1,0,0,rectangle,-4,-2,1,0,0,-4,-2,1,0,0,1,93,253,66,1,,,,,,,,
,,,,,,,,,,,,,FF,,,,,,,,1.2172,,,,,,,,,,,,,,,,,,,,,,60de3d32aeb7f2a8b4bba07d,60e563a6486a4d6c555c3f23,2021-07-07_10h21.30.088,Simcolourproject_2stim_asymm_v5,2020.2.10,Win32,60,60e52e7cfedb1dae636df45f,,,,,,,,,1431,40,83,1,0,0,response1disk,,7,0,4,1,0,0,rectangle,0,4,1,0,0,0,4,1,0,0,1,94,254,148,1,,,,,,,,
,,,,,,,,,,,,,FF,,,,,,,,2.1685,,,,,,,,,,,,,,,,,,,,,,60de3d32aeb7f2a8b4bba07d,60e563a6486a4d6c555c3f23,2021-07-07_10h21.30.088,Simcolourproject_2stim_asymm_v5,2020.2.10,Win32,60,60e52e7cfedb1dae636df45f,,,,,,,,,3395,-54,88,1,0,0,response7disk,,0,-9,-2,1,0,0,rectangle,-9,-2,1,0,0,-9,-2,1,0,0,1,95,255,46,1,,,,,,,,
,,,,,,,,,,,,,FF,,,,,,,,1.5337,,,,,,,,,,,,,,,,,,,,,,60de3d32aeb7f2a8b4bba07d,60e563a6486a4d6c555c3f23,2021-07-07_10h21.30.088,Simcolourproject_2stim_asymm_v5,2020.2.10,Win32,60,60e52e7cfedb1dae636df45f,,,,,,,,,1166,50,96,1,0,0,response1disk,,7,8,14,1,0,0,rectangle,8,14,1,0,0,8,14,1,0,0,1,96,256,52,1,,,,,,,,
,,,,,,,,,,,,,FF,,,,,,,,1.3176,,,,,,,,,,,,,,,,,,,,,,60de3d32aeb7f2a8b4bba07d,60e563a6486a4d6c555c3f23,2021-07-07_10h21.30.088,Simcolourproject_2stim_asymm_v5,2020.2.10,Win32,60,60e52e7cfedb1dae636df45f,,,,,,,,,1495,66,107,1,0,0,response1disk,,7,-2,0,1,0,0,rectangle,-2,0,1,0,0,-2,0,1,0,0,1,97,257,115,1,,,,,,,,
,,,,,,,,,,,,,FF,,,,,,,,1.2069,,,,,,,,,,,,,,,,,,,,,,60de3d32aeb7f2a8b4bba07d,60e563a6486a4d6c555c3f23,2021-07-07_10h21.30.088,Simcolourproject_2stim_asymm_v5,2020.2.10,Win32,60,60e52e7cfedb1dae636df45f,,,,,,,,,3453,47,92,1,0,0,response1disk,,7,-9,4,1,0,0,rectangle,-9,4,1,0,0,-9,4,1,0,0,1,98,258,2,1,,,,,,,,
,,,,,,,,,,,,,FF,,,,,,,,1.0506,,,,,,,,,,,,,,,,,,,,,,60de3d32aeb7f2a8b4bba07d,60e563a6486a4d6c555c3f23,2021-07-07_10h21.30.088,Simcolourproject_2stim_asymm_v5,2020.2.10,Win32,60,60e52e7cfedb1dae636df45f,,,,,,,,,1032,38,86,1,0,0,response1disk,,7,7,-1,1,0,0,rectangle,7,-1,1,0,0,7,-1,1,0,0,1,99,259,72,1,,,,,,,,
,,,,,,,,,,,,,FF,,,,,,,,1.1006,,,,,,,,,,,,,,,,,,,,,,60de3d32aeb7f2a8b4bba07d,60e563a6486a4d6c555c3f23,2021-07-07_10h21.30.088,Simcolourproject_2stim_asymm_v5,2020.2.10,Win32,60,60e52e7cfedb1dae636df45f,,,,,,,,,3177,36,98,1,0,0,response1disk,,7,-1,8,1,0,0,rectangle,-1,8,1,0,0,-1,8,1,0,0,1,100,260,20,1,,,,,,,,
,,,,,,,,,,,,,FF,,,,,,,,1.2376,,,,,,,,,,,,,,,,,,,,,,60de3d32aeb7f2a8b4bba07d,60e563a6486a4d6c555c3f23,2021-07-07_10h21.30.088,Simcolourproject_2stim_asymm_v5,2020.2.10,Win32,60,60e52e7cfedb1dae636df45f,,,,,,,,,3433,-43,86,1,0,0,response7disk,,0,-12,7,1,0,0,rectangle,68,-36,1,0,0,3,11,1,0,0,1,101,261,37,1,,response3disk_3,TRUE,5,5,"[66,9,226,262,110,129,199,193,25,237,115,93,242,5,144,103,48,219,175,62]",2.2855,rectangle
,,,,,,,,,,,,,FF,,,,,,,,1.0837,,,,,,,,,,,,,,,,,,,,,,60de3d32aeb7f2a8b4bba07d,60e563a6486a4d6c555c3f23,2021-07-07_10h21.30.088,Simcolourproject_2stim_asymm_v5,2020.2.10,Win32,60,60e52e7cfedb1dae636df45f,,,,,,,,,3802,34,88,1,0,0,response1disk,,7,7,1,1,0,0,rectangle,7,1,1,0,0,7,1,1,0,0,1,102,262,59,1,,,,,,,,
,,,,,,,,,,,,,FF,,,,,,,,1.2837,,,,,,,,,,,,,,,,,,,,,,60de3d32aeb7f2a8b4bba07d,60e563a6486a4d6c555c3f23,2021-07-07_10h21.30.088,Simcolourproject_2stim_asymm_v5,2020.2.10,Win32,60,60e52e7cfedb1dae636df45f,,,,,,,,,1317,-33,89,1,0,0,response7disk,,0,20,-3,1,0,0,rectangle,20,-3,1,0,0,20,-3,1,0,0,1,103,263,68,1,,,,,,,,
,,,,,,,,,,,,,FF,,,,,,,,1.6843,,,,,,,,,,,,,,,,,,,,,,60de3d32aeb7f2a8b4bba07d,60e563a6486a4d6c555c3f23,2021-07-07_10h21.30.088,Simcolourproject_2stim_asymm_v5,2020.2.10,Win32,60,60e52e7cfedb1dae636df45f,,,,,,,,,2013,25,92,1,0,0,response1disk,,7,21,-9,1,0,0,rectangle,21,-9,1,0,0,21,-9,1,0,0,1,104,264,61,1,,,,,,,,
,,,,,,,,,,,,,FF,,,,,,,,3.5507,,,,,,,,,,,,,,,,,,,,,,60de3d32aeb7f2a8b4bba07d,60e563a6486a4d6c555c3f23,2021-07-07_10h21.30.088,Simcolourproject_2stim_asymm_v5,2020.2.10,Win32,60,60e52e7cfedb1dae636df45f,,,,,,,,,3976,35,72,1,0,0,response1disk,,7,11,-9,1,0,0,rectangle,11,-9,1,0,0,11,-9,1,0,0,1,105,265,153,1,,,,,,,,
,,,,,,,,,,,,,FF,,,,,,,,2.1234,,,,,,,,,,,,,,,,,,,,,,60de3d32aeb7f2a8b4bba07d,60e563a6486a4d6c555c3f23,2021-07-07_10h21.30.088,Simcolourproject_2stim_asymm_v5,2020.2.10,Win32,60,60e52e7cfedb1dae636df45f,,,,,,,,,2790,27,69,1,0,0,response1disk,,7,6,10,1,0,0,rectangle,6,10,1,0,0,6,10,1,0,0,1,106,266,11,1,,,,,,,,
,,,,,,,,,,,,,FF,,,,,,,,1.135,,,,,,,,,,,,,,,,,,,,,,60de3d32aeb7f2a8b4bba07d,60e563a6486a4d6c555c3f23,2021-07-07_10h21.30.088,Simcolourproject_2stim_asymm_v5,2020.2.10,Win32,60,60e52e7cfedb1dae636df45f,,,,,,,,,4355,46,91,1,0,0,response1disk,,7,11,5,1,0,0,rectangle,11,5,1,0,0,11,5,1,0,0,1,107,267,92,1,,,,,,,,
,,,,,,,,,,,,,FF,,,,,,,,2.0671,,,,,,,,,,,,,,,,,,,,,,60de3d32aeb7f2a8b4bba07d,60e563a6486a4d6c555c3f23,2021-07-07_10h21.30.088,Simcolourproject_2stim_asymm_v5,2020.2.10,Win32,60,60e52e7cfedb1dae636df45f,,,,,,,,,941,39,59,1,0,0,response1disk,,7,2,-5,1,0,0,rectangle,2,-5,1,0,0,2,-5,1,0,0,1,108,268,12,1,,,,,,,,
,,,,,,,,,,,,,FF,,,,,,,,1.0521,,,,,,,,,,,,,,,,,,,,,,60de3d32aeb7f2a8b4bba07d,60e563a6486a4d6c555c3f23,2021-07-07_10h21.30.088,Simcolourproject_2stim_asymm_v5,2020.2.10,Win32,60,60e52e7cfedb1dae636df45f,,,,,,,,,2277,-45,84,1,0,0,response7disk,,0,5,7,1,0,0,rectangle,5,7,1,0,0,5,7,1,0,0,1,109,269,35,1,,,,,,,,
,,,,,,,,,,,,,FF,,,,,,,,1.317,,,,,,,,,,,,,,,,,,,,,,60de3d32aeb7f2a8b4bba07d,60e563a6486a4d6c555c3f23,2021-07-07_10h21.30.088,Simcolourproject_2stim_asymm_v5,2020.2.10,Win32,60,60e52e7cfedb1dae636df45f,,,,,,,,,2057,34,85,1,0,0,response1disk,,7,-21,0,1,0,0,rectangle,-21,0,1,0,0,-21,0,1,0,0,1,110,270,54,1,,,,,,,,
,,,,,,,,,,,,,FF,,,,,,,,1.1686,,,,,,,,,,,,,,,,,,,,,,60de3d32aeb7f2a8b4bba07d,60e563a6486a4d6c555c3f23,2021-07-07_10h21.30.088,Simcolourproject_2stim_asymm_v5,2020.2.10,Win32,60,60e52e7cfedb1dae636df45f,,,,,,,,,3201,31,68,1,0,0,response1disk,,7,20,0,1,0,0,rectangle,20,0,1,0,0,20,0,1,0,0,1,111,271,112,1,,,,,,,,
,,,,,,,,,,,,,FF,,,,,,,,1.0212,,,,,,,,,,,,,,,,,,,,,,60de3d32aeb7f2a8b4bba07d,60e563a6486a4d6c555c3f23,2021-07-07_10h21.30.088,Simcolourproject_2stim_asymm_v5,2020.2.10,Win32,60,60e52e7cfedb1dae636df45f,,,,,,,,,1475,37,59,1,0,0,response1disk,,7,-4,-10,1,0,0,rectangle,-4,-10,1,0,0,-4,-10,1,0,0,1,112,272,22,1,,,,,,,,
,,,,,,,,,,,,,FF,,,,,,,,1.1929,,,,,,,,,,,,,,,,,,,,,,60de3d32aeb7f2a8b4bba07d,60e563a6486a4d6c555c3f23,2021-07-07_10h21.30.088,Simcolourproject_2stim_asymm_v5,2020.2.10,Win32,60,60e52e7cfedb1dae636df45f,,,,,,,,,2091,40,73,1,0,0,response1disk,,7,6,-6,1,0,0,rectangle,6,-6,1,0,0,6,-6,1,0,0,1,113,273,42,1,,,,,,,,
,,,,,,,,,,,,,FF,,,,,,,,1.6009,,,,,,,,,,,,,,,,,,,,,,60de3d32aeb7f2a8b4bba07d,60e563a6486a4d6c555c3f23,2021-07-07_10h21.30.088,Simcolourproject_2stim_asymm_v5,2020.2.10,Win32,60,60e52e7cfedb1dae636df45f,,,,,,,,,2650,46,64,1,0,0,response1disk,,7,5,6,1,0,0,rectangle,5,6,1,0,0,5,6,1,0,0,1,114,274,147,1,,,,,,,,
,,,,,,,,,,,,,FF,,,,,,,,1.0015,,,,,,,,,,,,,,,,,,,,,,60de3d32aeb7f2a8b4bba07d,60e563a6486a4d6c555c3f23,2021-07-07_10h21.30.088,Simcolourproject_2stim_asymm_v5,2020.2.10,Win32,60,60e52e7cfedb1dae636df45f,,,,,,,,,1667,38,65,1,0,0,response1disk,,7,1,2,1,0,0,rectangle,1,2,1,0,0,1,2,1,0,0,1,115,275,28,1,,,,,,,,
,,,,,,,,,,,,,FF,,,,,,,,1.2502,,,,,,,,,,,,,,,,,,,,,,60de3d32aeb7f2a8b4bba07d,60e563a6486a4d6c555c3f23,2021-07-07_10h21.30.088,Simcolourproject_2stim_asymm_v5,2020.2.10,Win32,60,60e52e7cfedb1dae636df45f,,,,,,,,,3438,51,102,1,0,0,response1disk,,7,-3,6,1,0,0,rectangle,-3,6,1,0,0,-3,6,1,0,0,1,116,276,1,1,,,,,,,,
,,,,,,,,,,,,,FF,,,,,,,,1.1516,,,,,,,,,,,,,,,,,,,,,,60de3d32aeb7f2a8b4bba07d,60e563a6486a4d6c555c3f23,2021-07-07_10h21.30.088,Simcolourproject_2stim_asymm_v5,2020.2.10,Win32,60,60e52e7cfedb1dae636df45f,,,,,,,,,1823,-38,85,1,0,0,response7disk,,0,-3,14,1,0,0,rectangle,-3,14,1,0,0,-3,14,1,0,0,1,117,277,56,1,,,,,,,,
,,,,,,,,,,,,,FF,,,,,,,,0.9716,,,,,,,,,,,,,,,,,,,,,,60de3d32aeb7f2a8b4bba07d,60e563a6486a4d6c555c3f23,2021-07-07_10h21.30.088,Simcolourproject_2stim_asymm_v5,2020.2.10,Win32,60,60e52e7cfedb1dae636df45f,,,,,,,,,3377,48,77,1,0,0,response1disk,,7,8,6,1,0,0,rectangle,8,6,1,0,0,8,6,1,0,0,1,118,278,60,1,,,,,,,,
,,,,,,,,,,,,,FF,,,,,,,,1.268,,,,,,,,,,,,,,,,,,,,,,60de3d32aeb7f2a8b4bba07d,60e563a6486a4d6c555c3f23,2021-07-07_10h21.30.088,Simcolourproject_2stim_asymm_v5,2020.2.10,Win32,60,60e52e7cfedb1dae636df45f,,,,,,,,,1625,43,106,1,0,0,response1disk,,7,9,10,1,0,0,rectangle,9,10,1,0,0,9,10,1,0,0,1,119,279,124,1,,,,,,,,
,,,,,,,,,,,,,FF,,,,,,,,1.2914,,,,,,,,,,,,,,,,,,,,,,60de3d32aeb7f2a8b4bba07d,60e563a6486a4d6c555c3f23,2021-07-07_10h21.30.088,Simcolourproject_2stim_asymm_v5,2020.2.10,Win32,60,60e52e7cfedb1dae636df45f,,,,,,,,,4345,-30,91,1,0,0,response7disk,,0,5,2,1,0,0,rectangle,5,2,1,0,0,5,2,1,0,0,1,120,280,71,1,,,,,,,,
,,,,,,,,,,,,,FF,,,,,,,,1.1504,,,,,,,,,,,,,,,,,,,,,,60de3d32aeb7f2a8b4bba07d,60e563a6486a4d6c555c3f23,2021-07-07_10h21.30.088,Simcolourproject_2stim_asymm_v5,2020.2.10,Win32,60,60e52e7cfedb1dae636df45f,,,,,,,,,1575,37,79,1,0,0,response1disk,,7,3,2,1,0,0,rectangle,3,2,1,0,0,3,2,1,0,0,1,121,281,84,1,,,,,,,,
,,,,,,,,,,,,,FF,,,,,,,,1.0008,,,,,,,,,,,,,,,,,,,,,,60de3d32aeb7f2a8b4bba07d,60e563a6486a4d6c555c3f23,2021-07-07_10h21.30.088,Simcolourproject_2stim_asymm_v5,2020.2.10,Win32,60,60e52e7cfedb1dae636df45f,,,,,,,,,3996,38,104,1,0,0,response1disk,,7,-4,10,1,0,0,rectangle,-4,10,1,0,0,-4,10,1,0,0,1,122,282,157,1,,,,,,,,
,,,,,,,,,,,,,FF,,,,,,,,1.5828,,,,,,,,,,,,,,,,,,,,,,60de3d32aeb7f2a8b4bba07d,60e563a6486a4d6c555c3f23,2021-07-07_10h21.30.088,Simcolourproject_2stim_asymm_v5,2020.2.10,Win32,60,60e52e7cfedb1dae636df45f,,,,,,,,,1736,-38,99,1,0,0,response7disk,,0,-6,13,1,0,0,rectangle,-6,13,1,0,0,-6,13,1,0,0,1,123,283,48,1,,,,,,,,
,,,,,,,,,,,,,FF,,,,,,,,1.1047,,,,,,,,,,,,,,,,,,,,,,60de3d32aeb7f2a8b4bba07d,60e563a6486a4d6c555c3f23,2021-07-07_10h21.30.088,Simcolourproject_2stim_asymm_v5,2020.2.10,Win32,60,60e52e7cfedb1dae636df45f,,,,,,,,,786,28,77,1,0,0,response1disk,,7,4,8,1,0,0,rectangle,4,8,1,0,0,4,8,1,0,0,1,124,284,137,1,,,,,,,,
,,,,,,,,,,,,,FF,,,,,,,,1.4341,,,,,,,,,,,,,,,,,,,,,,60de3d32aeb7f2a8b4bba07d,60e563a6486a4d6c555c3f23,2021-07-07_10h21.30.088,Simcolourproject_2stim_asymm_v5,2020.2.10,Win32,60,60e52e7cfedb1dae636df45f,,,,,,,,,3251,-29,106,1,0,0,response7disk,,0,-4,5,1,0,0,rectangle,-4,5,1,0,0,-4,5,1,0,0,1,125,285,63,1,,,,,,,,
,,,,,,,,,,,,,FF,,,,,,,,1.0336,,,,,,,,,,,,,,,,,,,,,,60de3d32aeb7f2a8b4bba07d,60e563a6486a4d6c555c3f23,2021-07-07_10h21.30.088,Simcolourproject_2stim_asymm_v5,2020.2.10,Win32,60,60e52e7cfedb1dae636df45f,,,,,,,,,3797,45,85,1,0,0,response1disk,,7,8,0,1,0,0,rectangle,8,0,1,0,0,8,0,1,0,0,1,126,286,15,1,,,,,,,,
,,,,,,,,,,,,,FF,,,,,,,,1.052,,,,,,,,,,,,,,,,,,,,,,60de3d32aeb7f2a8b4bba07d,60e563a6486a4d6c555c3f23,2021-07-07_10h21.30.088,Simcolourproject_2stim_asymm_v5,2020.2.10,Win32,60,60e52e7cfedb1dae636df45f,,,,,,,,,1112,38,83,1,0,0,response1disk,,7,-5,-3,1,0,0,rectangle,-5,-3,1,0,0,-5,-3,1,0,0,1,127,287,19,1,,,,,,,,
,,,,,,,,,,,,,FF,,,,,,,,1.0998,,,,,,,,,,,,,,,,,,,,,,60de3d32aeb7f2a8b4bba07d,60e563a6486a4d6c555c3f23,2021-07-07_10h21.30.088,Simcolourproject_2stim_asymm_v5,2020.2.10,Win32,60,60e52e7cfedb1dae636df45f,,,,,,,,,2450,58,103,1,0,0,response1disk,,7,8,-5,1,0,0,rectangle,8,-5,1,0,0,8,-5,1,0,0,1,128,288,87,1,,,,,,,,
,,,,,,,,,,,,,FF,,,,,,,,2.4832,,,,,,,,,,,,,,,,,,,,,,60de3d32aeb7f2a8b4bba07d,60e563a6486a4d6c555c3f23,2021-07-07_10h21.30.088,Simcolourproject_2stim_asymm_v5,2020.2.10,Win32,60,60e52e7cfedb1dae636df45f,,,,,,,,,2975,43,72,1,0,0,response1disk,,7,10,9,1,0,0,rectangle,10,9,1,0,0,10,9,1,0,0,1,129,289,116,1,,,,,,,,
,,,,,,,,,,,,,FF,,,,,,,,1.1345,,,,,,,,,,,,,,,,,,,,,,60de3d32aeb7f2a8b4bba07d,60e563a6486a4d6c555c3f23,2021-07-07_10h21.30.088,Simcolourproject_2stim_asymm_v5,2020.2.10,Win32,60,60e52e7cfedb1dae636df45f,,,,,,,,,1436,34,91,1,0,0,response1disk,,7,9,-2,1,0,0,rectangle,9,-2,1,0,0,9,-2,1,0,0,1,130,290,155,1,,,,,,,,
,,,,,,,,,,,,,FF,,,,,,,,1.1337,,,,,,,,,,,,,,,,,,,,,,60de3d32aeb7f2a8b4bba07d,60e563a6486a4d6c555c3f23,2021-07-07_10h21.30.088,Simcolourproject_2stim_asymm_v5,2020.2.10,Win32,60,60e52e7cfedb1dae636df45f,,,,,,,,,3444,43,85,1,0,0,response1disk,,7,14,-15,1,0,0,rectangle,14,-15,1,0,0,14,-15,1,0,0,1,131,291,23,1,,,,,,,,
,,,,,,,,,,,,,FF,,,,,,,,1.3836,,,,,,,,,,,,,,,,,,,,,,60de3d32aeb7f2a8b4bba07d,60e563a6486a4d6c555c3f23,2021-07-07_10h21.30.088,Simcolourproject_2stim_asymm_v5,2020.2.10,Win32,60,60e52e7cfedb1dae636df45f,,,,,,,,,2627,41,87,1,0,0,response1disk,,7,9,10,1,0,0,rectangle,9,10,1,0,0,9,10,1,0,0,1,132,292,97,1,,,,,,,,
,,,,,,,,,,,,,FF,,,,,,,,1.2001,,,,,,,,,,,,,,,,,,,,,,60de3d32aeb7f2a8b4bba07d,60e563a6486a4d6c555c3f23,2021-07-07_10h21.30.088,Simcolourproject_2stim_asymm_v5,2020.2.10,Win32,60,60e52e7cfedb1dae636df45f,,,,,,,,,4010,39,117,1,0,0,response1disk,,7,-13,3,1,0,0,rectangle,-13,3,1,0,0,-13,3,1,0,0,1,133,293,65,1,,,,,,,,
,,,,,,,,,,,,,FF,,,,,,,,1.2538,,,,,,,,,,,,,,,,,,,,,,60de3d32aeb7f2a8b4bba07d,60e563a6486a4d6c555c3f23,2021-07-07_10h21.30.088,Simcolourproject_2stim_asymm_v5,2020.2.10,Win32,60,60e52e7cfedb1dae636df45f,,,,,,,,,940,38,110,1,0,0,response1disk,,7,6,8,1,0,0,rectangle,6,8,1,0,0,6,8,1,0,0,1,134,294,100,1,,,,,,,,
,,,,,,,,,,,,,FF,,,,,,,,1.1355,,,,,,,,,,,,,,,,,,,,,,60de3d32aeb7f2a8b4bba07d,60e563a6486a4d6c555c3f23,2021-07-07_10h21.30.088,Simcolourproject_2stim_asymm_v5,2020.2.10,Win32,60,60e52e7cfedb1dae636df45f,,,,,,,,,273,39,103,1,0,0,response1disk,,7,8,5,1,0,0,rectangle,8,5,1,0,0,8,5,1,0,0,1,135,295,75,1,,,,,,,,
,,,,,,,,,,,,,FF,,,,,,,,1.3834,,,,,,,,,,,,,,,,,,,,,,60de3d32aeb7f2a8b4bba07d,60e563a6486a4d6c555c3f23,2021-07-07_10h21.30.088,Simcolourproject_2stim_asymm_v5,2020.2.10,Win32,60,60e52e7cfedb1dae636df45f,,,,,,,,,2036,-47,102,1,0,0,response7disk,,0,4,3,1,0,0,rectangle,4,3,1,0,0,4,3,1,0,0,1,136,296,83,1,,,,,,,,
,,,,,,,,,,,,,FF,,,,,,,,1.8175,,,,,,,,,,,,,,,,,,,,,,60de3d32aeb7f2a8b4bba07d,60e563a6486a4d6c555c3f23,2021-07-07_10h21.30.088,Simcolourproject_2stim_asymm_v5,2020.2.10,Win32,60,60e52e7cfedb1dae636df45f,,,,,,,,,1369,-28,98,1,0,0,response7disk,,0,-1,10,1,0,0,rectangle,-1,10,1,0,0,-1,10,1,0,0,1,137,297,57,1,,,,,,,,
,,,,,,,,,,,,,FF,,,,,,,,2.6006,,,,,,,,,,,,,,,,,,,,,,60de3d32aeb7f2a8b4bba07d,60e563a6486a4d6c555c3f23,2021-07-07_10h21.30.088,Simcolourproject_2stim_asymm_v5,2020.2.10,Win32,60,60e52e7cfedb1dae636df45f,,,,,,,,,3513,44,76,1,0,0,response1disk,,7,3,-13,1,0,0,rectangle,3,-13,1,0,0,3,-13,1,0,0,1,138,298,53,1,,,,,,,,
,,,,,,,,,,,,,FF,,,,,,,,1.168,,,,,,,,,,,,,,,,,,,,,,60de3d32aeb7f2a8b4bba07d,60e563a6486a4d6c555c3f23,2021-07-07_10h21.30.088,Simcolourproject_2stim_asymm_v5,2020.2.10,Win32,60,60e52e7cfedb1dae636df45f,,,,,,,,,3582,47,76,1,0,0,response1disk,,7,10,12,1,0,0,rectangle,10,12,1,0,0,10,12,1,0,0,1,139,299,77,1,,,,,,,,
,,,,,,,,,,,,,FF,,,,,,,,1.267,,,,,,,,,,,,,,,,,,,,,,60de3d32aeb7f2a8b4bba07d,60e563a6486a4d6c555c3f23,2021-07-07_10h21.30.088,Simcolourproject_2stim_asymm_v5,2020.2.10,Win32,60,60e52e7cfedb1dae636df45f,,,,,,,,,2559,30,64,1,0,0,response1disk,,7,7,8,1,0,0,rectangle,7,8,1,0,0,7,8,1,0,0,1,140,300,26,1,,,,,,,,
,,,,,,,,,,,,,FF,,,,,,,,1.2323,,,,,,,,,,,,,,,,,,,,,,60de3d32aeb7f2a8b4bba07d,60e563a6486a4d6c555c3f23,2021-07-07_10h21.30.088,Simcolourproject_2stim_asymm_v5,2020.2.10,Win32,60,60e52e7cfedb1dae636df45f,,,,,,,,,3062,51,82,1,0,0,response1disk,,7,7,4,1,0,0,rectangle,7,4,1,0,0,7,4,1,0,0,1,141,301,142,1,,,,,,,,
,,,,,,,,,,,,,FF,,,,,,,,1.4661,,,,,,,,,,,,,,,,,,,,,,60de3d32aeb7f2a8b4bba07d,60e563a6486a4d6c555c3f23,2021-07-07_10h21.30.088,Simcolourproject_2stim_asymm_v5,2020.2.10,Win32,60,60e52e7cfedb1dae636df45f,,,,,,,,,361,41,91,1,0,0,response1disk,,7,5,3,1,0,0,rectangle,5,3,1,0,0,5,3,1,0,0,1,142,302,40,1,,,,,,,,
,,,,,,,,,,,,,FF,,,,,,,,1.3175,,,,,,,,,,,,,,,,,,,,,,60de3d32aeb7f2a8b4bba07d,60e563a6486a4d6c555c3f23,2021-07-07_10h21.30.088,Simcolourproject_2stim_asymm_v5,2020.2.10,Win32,60,60e52e7cfedb1dae636df45f,,,,,,,,,3280,49,97,1,0,0,response1disk,,7,-7,13,1,0,0,rectangle,-7,13,1,0,0,-7,13,1,0,0,1,143,303,3,1,,,,,,,,
