key_resp.keys,key_resp.rt,key_resp_14.keys,key_resp_14.rt,key_resp_15.keys,key_resp_15.rt,key_resp_17.keys,key_resp_17.rt,key_resp_9.keys,key_resp_9.rt,key_resp_10.keys,key_resp_10.rt,practice_comparison,Ecc,mouse_5.x,mouse_5.y,mouse_5.leftButton,mouse_5.midButton,mouse_5.rightButton,mouse_5.clicked_name,pracsimilarity,response_time,mouse_10.x,mouse_10.y,mouse_10.leftButton,mouse_10.midButton,mouse_10.rightButton,mouse_10.clicked_name,mouse_7.x,mouse_7.y,mouse_7.leftButton,mouse_7.midButton,mouse_7.rightButton,mouse_6.x,mouse_6.y,mouse_6.leftButton,mouse_6.midButton,mouse_6.rightButton,duringprac.thisRepN,duringprac.thisTrialN,duringprac.thisN,duringprac.thisIndex,duringprac.ran,participant,session,date,expName,psychopyVersion,OS,frameRate,study_id,mouse_7.clicked_name,catchpracsimilarity,catch_response_time,catchnumberprac,catchtrialorderprac,mouse_6.clicked_name,key_resp_22.keys,key_resp_22.rt,realcomparison,mouse.x,mouse.y,mouse.leftButton,mouse.midButton,mouse.rightButton,mouse.clicked_name,Colour2,similarity,mouse_2.x,mouse_2.y,mouse_2.leftButton,mouse_2.midButton,mouse_2.rightButton,mouse_2.clicked_name,mouse_3.x,mouse_3.y,mouse_3.leftButton,mouse_3.midButton,mouse_3.rightButton,mouse_3.clicked_name,catchornah,catchsimilarity,catchnumber,catchtrialorder,catchRT,mouse_11.x,mouse_11.y,mouse_11.leftButton,mouse_11.midButton,mouse_11.rightButton,mouse_11.clicked_name,trials_2.thisRepN,trials_2.thisTrialN,trials_2.thisN,trials_2.thisIndex,trials_2.ran,Colour1
space,259.6182,space,6.8026,space,71.9321,space,4.5776,space,0.9661,space,3.2589,140,PF,-129,-69,1,0,0,response5disk_5,2,4.3336,-13,10,1,0,0,rectangle_8,-13,10,1,0,0,-13,10,1,0,0,0,0,0,1,1,60e03b0a759b4850df25f739,60e57d40bffb5052504da600,2021-07-07_13h25.40.389,Simcolourproject_2stim_asymm_v5,2020.2.10,Win32,60,60e52e7cfedb1dae636df45f,,,,,,,,,,,,,,,,,,,,,,,,,,,,,,,,,,,,,,,,,,,,,,
,,,,,,,,,,,,145,FF,74,-114,1,0,0,response3disk_5,4,3.2335,-3,0,1,0,0,rectangle_8,120,61,1,0,0,-2,-1,1,0,0,0,1,1,5,1,60e03b0a759b4850df25f739,60e57d40bffb5052504da600,2021-07-07_13h25.40.389,Simcolourproject_2stim_asymm_v5,2020.2.10,Win32,60,60e52e7cfedb1dae636df45f,response1disk_7,6,2.8338,6,"[2,5]",rectangle_4,,,,,,,,,,,,,,,,,,,,,,,,,,,,,,,,,,,,,,,,
,,,,,,,,,,,,54,FF,-78,-95,1,0,0,response5disk_5,3,2.1166,2,0,1,0,0,rectangle_8,2,0,1,0,0,2,0,1,0,0,0,2,2,0,1,60e03b0a759b4850df25f739,60e57d40bffb5052504da600,2021-07-07_13h25.40.389,Simcolourproject_2stim_asymm_v5,2020.2.10,Win32,60,60e52e7cfedb1dae636df45f,,,,,,,,,,,,,,,,,,,,,,,,,,,,,,,,,,,,,,,,,,,,,,
,,,,,,,,,,,,3,PF,109,69,1,0,0,response1disk_5,6,1.4171,10,8,1,0,0,rectangle_8,10,8,1,0,0,10,8,1,0,0,0,3,3,2,1,60e03b0a759b4850df25f739,60e57d40bffb5052504da600,2021-07-07_13h25.40.389,Simcolourproject_2stim_asymm_v5,2020.2.10,Win32,60,60e52e7cfedb1dae636df45f,,,,,,,,,,,,,,,,,,,,,,,,,,,,,,,,,,,,,,,,,,,,,,
,,,,,,,,,,,,60,PF,-49,-117,1,0,0,response5disk_5,3,2.3334,-3,14,1,0,0,rectangle_8,118,71,1,0,0,-5,-4,1,0,0,0,4,4,6,1,60e03b0a759b4850df25f739,60e57d40bffb5052504da600,2021-07-07_13h25.40.389,Simcolourproject_2stim_asymm_v5,2020.2.10,Win32,60,60e52e7cfedb1dae636df45f,response1disk_7,6,1.9503,6,"[2,5]",rectangle_4,,,,,,,,,,,,,,,,,,,,,,,,,,,,,,,,,,,,,,,,
,,,,,,,,,,,,70,PF,109,62,1,0,0,response1disk_5,6,1.3332,-5,5,1,0,0,rectangle_8,-5,5,1,0,0,-5,5,1,0,0,0,5,5,4,1,60e03b0a759b4850df25f739,60e57d40bffb5052504da600,2021-07-07_13h25.40.389,Simcolourproject_2stim_asymm_v5,2020.2.10,Win32,60,60e52e7cfedb1dae636df45f,,,,,,,,,,,,,,,,,,,,,,,,,,,,,,,,,,,,,,,,,,,,,,
,,,,,,,,,,,,160,FF,-96,54,1,0,0,response7disk_5,1,1.3668,13,-4,1,0,0,rectangle_8,13,-4,1,0,0,13,-4,1,0,0,0,6,6,3,1,60e03b0a759b4850df25f739,60e57d40bffb5052504da600,2021-07-07_13h25.40.389,Simcolourproject_2stim_asymm_v5,2020.2.10,Win32,60,60e52e7cfedb1dae636df45f,,,,,,,,,,,,,,,,,,,,,,,,,,,,,,,,,,,,,,,,,,,,,,
,,,,,,,,,,,,,FF,,,,,,,,1.2496,,,,,,,,,,,,,,,,,,,,,,60e03b0a759b4850df25f739,60e57d40bffb5052504da600,2021-07-07_13h25.40.389,Simcolourproject_2stim_asymm_v5,2020.2.10,Win32,60,60e52e7cfedb1dae636df45f,,,,,,,space,2.7152,79,-106,-57,1,0,0,response5disk,,2,2,-17,1,0,0,rectangle,129,52,1,0,0,response1disk_3,TRUE,6,6,"[78,220,32,192,1,31,140,144,202,285,107,39,291,226,52,210,0,102,120,224]",1.7343,-8,-4,1,0,0,rectangle,0,0,0,59,1,
,,,,,,,,,,,,,FF,,,,,,,,2.0833,,,,,,,,,,,,,,,,,,,,,,60e03b0a759b4850df25f739,60e57d40bffb5052504da600,2021-07-07_13h25.40.389,Simcolourproject_2stim_asymm_v5,2020.2.10,Win32,60,60e52e7cfedb1dae636df45f,,,,,,,,,1746,-120,-78,1,0,0,response5disk,,2,-2,-4,1,0,0,rectangle,-2,-4,1,0,0,,,,,,,-2,-4,1,0,0,,0,1,1,93,1,
,,,,,,,,,,,,,FF,,,,,,,,1.2168,,,,,,,,,,,,,,,,,,,,,,60e03b0a759b4850df25f739,60e57d40bffb5052504da600,2021-07-07_13h25.40.389,Simcolourproject_2stim_asymm_v5,2020.2.10,Win32,60,60e52e7cfedb1dae636df45f,,,,,,,,,1198,109,-66,1,0,0,response3disk,,5,-12,5,1,0,0,rectangle,-12,5,1,0,0,,,,,,,-12,5,1,0,0,,0,2,2,48,1,
,,,,,,,,,,,,,FF,,,,,,,,1.4167,,,,,,,,,,,,,,,,,,,,,,60e03b0a759b4850df25f739,60e57d40bffb5052504da600,2021-07-07_13h25.40.389,Simcolourproject_2stim_asymm_v5,2020.2.10,Win32,60,60e52e7cfedb1dae636df45f,,,,,,,,,1254,106,44,1,0,0,response1disk,,6,10,5,1,0,0,rectangle,10,5,1,0,0,,,,,,,10,5,1,0,0,,0,3,3,38,1,
,,,,,,,,,,,,,FF,,,,,,,,1.7333,,,,,,,,,,,,,,,,,,,,,,60e03b0a759b4850df25f739,60e57d40bffb5052504da600,2021-07-07_13h25.40.389,Simcolourproject_2stim_asymm_v5,2020.2.10,Win32,60,60e52e7cfedb1dae636df45f,,,,,,,,,465,60,-122,1,0,0,response3disk,,4,-19,2,1,0,0,rectangle,-19,2,1,0,0,,,,,,,-19,2,1,0,0,,0,4,4,92,1,
,,,,,,,,,,,,,FF,,,,,,,,1.4501,,,,,,,,,,,,,,,,,,,,,,60e03b0a759b4850df25f739,60e57d40bffb5052504da600,2021-07-07_13h25.40.389,Simcolourproject_2stim_asymm_v5,2020.2.10,Win32,60,60e52e7cfedb1dae636df45f,,,,,,,,,1915,87,-59,1,0,0,response3disk,,5,3,-6,1,0,0,rectangle,3,-6,1,0,0,,,,,,,3,-6,1,0,0,,0,5,5,130,1,
,,,,,,,,,,,,,FF,,,,,,,,0.9667,,,,,,,,,,,,,,,,,,,,,,60e03b0a759b4850df25f739,60e57d40bffb5052504da600,2021-07-07_13h25.40.389,Simcolourproject_2stim_asymm_v5,2020.2.10,Win32,60,60e52e7cfedb1dae636df45f,,,,,,,,,3606,-54,-108,1,0,0,response5disk,,3,4,-3,1,0,0,rectangle,4,-3,1,0,0,,,,,,,4,-3,1,0,0,,0,6,6,14,1,
,,,,,,,,,,,,,FF,,,,,,,,0.8501,,,,,,,,,,,,,,,,,,,,,,60e03b0a759b4850df25f739,60e57d40bffb5052504da600,2021-07-07_13h25.40.389,Simcolourproject_2stim_asymm_v5,2020.2.10,Win32,60,60e52e7cfedb1dae636df45f,,,,,,,,,3527,63,-136,1,0,0,response3disk,,4,14,-5,1,0,0,rectangle,14,-5,1,0,0,,,,,,,14,-5,1,0,0,,0,7,7,94,1,
,,,,,,,,,,,,,FF,,,,,,,,1.5835,,,,,,,,,,,,,,,,,,,,,,60e03b0a759b4850df25f739,60e57d40bffb5052504da600,2021-07-07_13h25.40.389,Simcolourproject_2stim_asymm_v5,2020.2.10,Win32,60,60e52e7cfedb1dae636df45f,,,,,,,,,201,-85,-129,1,0,0,response5disk,,3,5,-6,1,0,0,rectangle,5,-6,1,0,0,,,,,,,5,-6,1,0,0,,0,8,8,99,1,
,,,,,,,,,,,,,FF,,,,,,,,0.8008,,,,,,,,,,,,,,,,,,,,,,60e03b0a759b4850df25f739,60e57d40bffb5052504da600,2021-07-07_13h25.40.389,Simcolourproject_2stim_asymm_v5,2020.2.10,Win32,60,60e52e7cfedb1dae636df45f,,,,,,,,,835,124,-44,1,0,0,response3disk,,5,10,-6,1,0,0,rectangle,10,-6,1,0,0,,,,,,,10,-6,1,0,0,,0,9,9,137,1,
,,,,,,,,,,,,,FF,,,,,,,,1.4837,,,,,,,,,,,,,,,,,,,,,,60e03b0a759b4850df25f739,60e57d40bffb5052504da600,2021-07-07_13h25.40.389,Simcolourproject_2stim_asymm_v5,2020.2.10,Win32,60,60e52e7cfedb1dae636df45f,,,,,,,,,1882,118,46,1,0,0,response1disk,,6,-9,-10,1,0,0,rectangle,-9,-10,1,0,0,,,,,,,-9,-10,1,0,0,,0,10,10,39,1,
,,,,,,,,,,,,,FF,,,,,,,,2.0335,,,,,,,,,,,,,,,,,,,,,,60e03b0a759b4850df25f739,60e57d40bffb5052504da600,2021-07-07_13h25.40.389,Simcolourproject_2stim_asymm_v5,2020.2.10,Win32,60,60e52e7cfedb1dae636df45f,,,,,,,,,715,-48,-129,1,0,0,response5disk,,3,6,-6,1,0,0,rectangle,6,-6,1,0,0,,,,,,,6,-6,1,0,0,,0,11,11,81,1,
,,,,,,,,,,,,,FF,,,,,,,,0.9333,,,,,,,,,,,,,,,,,,,,,,60e03b0a759b4850df25f739,60e57d40bffb5052504da600,2021-07-07_13h25.40.389,Simcolourproject_2stim_asymm_v5,2020.2.10,Win32,60,60e52e7cfedb1dae636df45f,,,,,,,,,2911,55,113,1,0,0,response1disk,,7,-15,-4,1,0,0,rectangle,-15,-4,1,0,0,,,,,,,-15,-4,1,0,0,,0,12,12,104,1,
,,,,,,,,,,,,,FF,,,,,,,,1.7665,,,,,,,,,,,,,,,,,,,,,,60e03b0a759b4850df25f739,60e57d40bffb5052504da600,2021-07-07_13h25.40.389,Simcolourproject_2stim_asymm_v5,2020.2.10,Win32,60,60e52e7cfedb1dae636df45f,,,,,,,,,2299,-145,-58,1,0,0,response5disk,,2,-22,-10,1,0,0,rectangle,-22,-10,1,0,0,,,,,,,-22,-10,1,0,0,,0,13,13,49,1,
,,,,,,,,,,,,,FF,,,,,,,,0.9153,,,,,,,,,,,,,,,,,,,,,,60e03b0a759b4850df25f739,60e57d40bffb5052504da600,2021-07-07_13h25.40.389,Simcolourproject_2stim_asymm_v5,2020.2.10,Win32,60,60e52e7cfedb1dae636df45f,,,,,,,,,87,67,-107,1,0,0,response3disk,,4,-14,1,1,0,0,rectangle,-14,1,1,0,0,,,,,,,-14,1,1,0,0,,0,14,14,13,1,
,,,,,,,,,,,,,FF,,,,,,,,0.8667,,,,,,,,,,,,,,,,,,,,,,60e03b0a759b4850df25f739,60e57d40bffb5052504da600,2021-07-07_13h25.40.389,Simcolourproject_2stim_asymm_v5,2020.2.10,Win32,60,60e52e7cfedb1dae636df45f,,,,,,,,,1081,109,60,1,0,0,response1disk,,6,8,3,1,0,0,rectangle,8,3,1,0,0,,,,,,,8,3,1,0,0,,0,15,15,1,1,
,,,,,,,,,,,,,FF,,,,,,,,1.3334,,,,,,,,,,,,,,,,,,,,,,60e03b0a759b4850df25f739,60e57d40bffb5052504da600,2021-07-07_13h25.40.389,Simcolourproject_2stim_asymm_v5,2020.2.10,Win32,60,60e52e7cfedb1dae636df45f,,,,,,,,,4318,-60,-113,1,0,0,response5disk,,3,-1,1,1,0,0,rectangle,-1,1,1,0,0,,,,,,,-1,1,1,0,0,,0,16,16,10,1,
,,,,,,,,,,,,,FF,,,,,,,,1.1001,,,,,,,,,,,,,,,,,,,,,,60e03b0a759b4850df25f739,60e57d40bffb5052504da600,2021-07-07_13h25.40.389,Simcolourproject_2stim_asymm_v5,2020.2.10,Win32,60,60e52e7cfedb1dae636df45f,,,,,,,,,2293,-112,36,1,0,0,response7disk,,1,-12,2,1,0,0,rectangle,-12,2,1,0,0,,,,,,,-12,2,1,0,0,,0,17,17,5,1,
,,,,,,,,,,,,,FF,,,,,,,,0.9501,,,,,,,,,,,,,,,,,,,,,,60e03b0a759b4850df25f739,60e57d40bffb5052504da600,2021-07-07_13h25.40.389,Simcolourproject_2stim_asymm_v5,2020.2.10,Win32,60,60e52e7cfedb1dae636df45f,,,,,,,,,3422,-110,-64,1,0,0,response5disk,,2,17,-4,1,0,0,rectangle,17,-4,1,0,0,,,,,,,17,-4,1,0,0,,0,18,18,60,1,
,,,,,,,,,,,,,FF,,,,,,,,0.8333,,,,,,,,,,,,,,,,,,,,,,60e03b0a759b4850df25f739,60e57d40bffb5052504da600,2021-07-07_13h25.40.389,Simcolourproject_2stim_asymm_v5,2020.2.10,Win32,60,60e52e7cfedb1dae636df45f,,,,,,,,,1812,-51,-124,1,0,0,response5disk,,3,1,13,1,0,0,rectangle,1,13,1,0,0,,,,,,,1,13,1,0,0,,0,19,19,0,1,
,,,,,,,,,,,,,FF,,,,,,,,1.5002,,,,,,,,,,,,,,,,,,,,,,60e03b0a759b4850df25f739,60e57d40bffb5052504da600,2021-07-07_13h25.40.389,Simcolourproject_2stim_asymm_v5,2020.2.10,Win32,60,60e52e7cfedb1dae636df45f,,,,,,,,,3711,52,-116,1,0,0,response3disk,,4,6,-14,1,0,0,rectangle,6,-14,1,0,0,,,,,,,6,-14,1,0,0,,0,20,20,125,1,
,,,,,,,,,,,,,FF,,,,,,,,1.1499,,,,,,,,,,,,,,,,,,,,,,60e03b0a759b4850df25f739,60e57d40bffb5052504da600,2021-07-07_13h25.40.389,Simcolourproject_2stim_asymm_v5,2020.2.10,Win32,60,60e52e7cfedb1dae636df45f,,,,,,,,,1702,120,-66,1,0,0,response3disk,,5,-4,1,1,0,0,rectangle,-4,1,1,0,0,,,,,,,-4,1,1,0,0,,0,21,21,45,1,
,,,,,,,,,,,,,FF,,,,,,,,0.7331,,,,,,,,,,,,,,,,,,,,,,60e03b0a759b4850df25f739,60e57d40bffb5052504da600,2021-07-07_13h25.40.389,Simcolourproject_2stim_asymm_v5,2020.2.10,Win32,60,60e52e7cfedb1dae636df45f,,,,,,,,,3778,-112,-58,1,0,0,response5disk,,2,-30,3,1,0,0,rectangle,-30,3,1,0,0,,,,,,,-30,3,1,0,0,,0,22,22,88,1,
,,,,,,,,,,,,,FF,,,,,,,,0.7165,,,,,,,,,,,,,,,,,,,,,,60e03b0a759b4850df25f739,60e57d40bffb5052504da600,2021-07-07_13h25.40.389,Simcolourproject_2stim_asymm_v5,2020.2.10,Win32,60,60e52e7cfedb1dae636df45f,,,,,,,,,3045,-51,93,1,0,0,response7disk,,0,2,1,1,0,0,rectangle,2,1,1,0,0,,,,,,,2,1,1,0,0,,0,23,23,98,1,
,,,,,,,,,,,,,FF,,,,,,,,2.7997,,,,,,,,,,,,,,,,,,,,,,60e03b0a759b4850df25f739,60e57d40bffb5052504da600,2021-07-07_13h25.40.389,Simcolourproject_2stim_asymm_v5,2020.2.10,Win32,60,60e52e7cfedb1dae636df45f,,,,,,,,,4243,45,-111,1,0,0,response3disk,,4,-6,11,1,0,0,rectangle,-6,11,1,0,0,,,,,,,-6,11,1,0,0,,0,24,24,35,1,
,,,,,,,,,,,,,FF,,,,,,,,1.6499,,,,,,,,,,,,,,,,,,,,,,60e03b0a759b4850df25f739,60e57d40bffb5052504da600,2021-07-07_13h25.40.389,Simcolourproject_2stim_asymm_v5,2020.2.10,Win32,60,60e52e7cfedb1dae636df45f,,,,,,,,,2341,116,-59,1,0,0,response3disk,,5,-6,3,1,0,0,rectangle,-6,3,1,0,0,,,,,,,-6,3,1,0,0,,0,25,25,15,1,
,,,,,,,,,,,,,FF,,,,,,,,8.617,,,,,,,,,,,,,,,,,,,,,,60e03b0a759b4850df25f739,60e57d40bffb5052504da600,2021-07-07_13h25.40.389,Simcolourproject_2stim_asymm_v5,2020.2.10,Win32,60,60e52e7cfedb1dae636df45f,,,,,,,,,535,-52,-102,1,0,0,response5disk,,3,-6,5,1,0,0,rectangle,-6,5,1,0,0,,,,,,,-6,5,1,0,0,,0,26,26,90,1,
,,,,,,,,,,,,,FF,,,,,,,,0.8018,,,,,,,,,,,,,,,,,,,,,,60e03b0a759b4850df25f739,60e57d40bffb5052504da600,2021-07-07_13h25.40.389,Simcolourproject_2stim_asymm_v5,2020.2.10,Win32,60,60e52e7cfedb1dae636df45f,,,,,,,,,2738,71,-134,1,0,0,response3disk,,4,-30,4,1,0,0,rectangle,-30,4,1,0,0,,,,,,,-30,4,1,0,0,,0,27,27,2,1,
,,,,,,,,,,,,,FF,,,,,,,,0.866,,,,,,,,,,,,,,,,,,,,,,60e03b0a759b4850df25f739,60e57d40bffb5052504da600,2021-07-07_13h25.40.389,Simcolourproject_2stim_asymm_v5,2020.2.10,Win32,60,60e52e7cfedb1dae636df45f,,,,,,,,,1711,101,-61,1,0,0,response3disk,,5,-26,13,1,0,0,rectangle,-26,13,1,0,0,,,,,,,-26,13,1,0,0,,0,28,28,117,1,
,,,,,,,,,,,,,FF,,,,,,,,1.1333,,,,,,,,,,,,,,,,,,,,,,60e03b0a759b4850df25f739,60e57d40bffb5052504da600,2021-07-07_13h25.40.389,Simcolourproject_2stim_asymm_v5,2020.2.10,Win32,60,60e52e7cfedb1dae636df45f,,,,,,,,,1432,52,82,1,0,0,response1disk,,7,0,4,1,0,0,rectangle,0,4,1,0,0,,,,,,,0,4,1,0,0,,0,29,29,55,1,
,,,,,,,,,,,,,FF,,,,,,,,1.5002,,,,,,,,,,,,,,,,,,,,,,60e03b0a759b4850df25f739,60e57d40bffb5052504da600,2021-07-07_13h25.40.389,Simcolourproject_2stim_asymm_v5,2020.2.10,Win32,60,60e52e7cfedb1dae636df45f,,,,,,,,,3924,114,51,1,0,0,response1disk,,6,13,2,1,0,0,rectangle,54,-129,1,0,0,response3disk_3,TRUE,4,4,"[78,220,32,192,1,31,140,144,202,285,107,39,291,226,52,210,0,102,120,224]",1.9004,-16,3,1,0,0,rectangle,0,30,30,79,1,
,,,,,,,,,,,,,FF,,,,,,,,2.2444,,,,,,,,,,,,,,,,,,,,,,60e03b0a759b4850df25f739,60e57d40bffb5052504da600,2021-07-07_13h25.40.389,Simcolourproject_2stim_asymm_v5,2020.2.10,Win32,60,60e52e7cfedb1dae636df45f,,,,,,,,,1572,94,55,1,0,0,response1disk,,6,19,7,1,0,0,rectangle,-44,-143,1,0,0,response5disk_3,TRUE,3,3,"[78,220,32,192,1,31,140,144,202,285,107,39,291,226,52,210,0,102,120,224]",1.8832,-12,-6,1,0,0,rectangle,0,31,31,141,1,
,,,,,,,,,,,,,FF,,,,,,,,1.6002,,,,,,,,,,,,,,,,,,,,,,60e03b0a759b4850df25f739,60e57d40bffb5052504da600,2021-07-07_13h25.40.389,Simcolourproject_2stim_asymm_v5,2020.2.10,Win32,60,60e52e7cfedb1dae636df45f,,,,,,,,,22,57,-96,1,0,0,response3disk,,4,-19,0,1,0,0,rectangle,-19,0,1,0,0,,,,,,,-19,0,1,0,0,,0,32,32,12,1,
,,,,,,,,,,,,,FF,,,,,,,,1.1,,,,,,,,,,,,,,,,,,,,,,60e03b0a759b4850df25f739,60e57d40bffb5052504da600,2021-07-07_13h25.40.389,Simcolourproject_2stim_asymm_v5,2020.2.10,Win32,60,60e52e7cfedb1dae636df45f,,,,,,,,,3186,121,48,1,0,0,response1disk,,6,-19,5,1,0,0,rectangle,-19,5,1,0,0,,,,,,,-19,5,1,0,0,,0,33,33,139,1,
,,,,,,,,,,,,,FF,,,,,,,,0.75,,,,,,,,,,,,,,,,,,,,,,60e03b0a759b4850df25f739,60e57d40bffb5052504da600,2021-07-07_13h25.40.389,Simcolourproject_2stim_asymm_v5,2020.2.10,Win32,60,60e52e7cfedb1dae636df45f,,,,,,,,,2355,-48,106,1,0,0,response7disk,,0,29,-8,1,0,0,rectangle,29,-8,1,0,0,,,,,,,29,-8,1,0,0,,0,34,34,147,1,
,,,,,,,,,,,,,FF,,,,,,,,0.5334,,,,,,,,,,,,,,,,,,,,,,60e03b0a759b4850df25f739,60e57d40bffb5052504da600,2021-07-07_13h25.40.389,Simcolourproject_2stim_asymm_v5,2020.2.10,Win32,60,60e52e7cfedb1dae636df45f,,,,,,,,,2093,-64,106,1,0,0,response7disk,,0,-5,-13,1,0,0,rectangle,-5,-13,1,0,0,,,,,,,-5,-13,1,0,0,,0,35,35,26,1,
,,,,,,,,,,,,,FF,,,,,,,,0.7667,,,,,,,,,,,,,,,,,,,,,,60e03b0a759b4850df25f739,60e57d40bffb5052504da600,2021-07-07_13h25.40.389,Simcolourproject_2stim_asymm_v5,2020.2.10,Win32,60,60e52e7cfedb1dae636df45f,,,,,,,,,2437,-86,-41,1,0,0,response5disk,,2,17,3,1,0,0,rectangle,17,3,1,0,0,,,,,,,17,3,1,0,0,,0,36,36,51,1,
,,,,,,,,,,,,,FF,,,,,,,,2.0001,,,,,,,,,,,,,,,,,,,,,,60e03b0a759b4850df25f739,60e57d40bffb5052504da600,2021-07-07_13h25.40.389,Simcolourproject_2stim_asymm_v5,2020.2.10,Win32,60,60e52e7cfedb1dae636df45f,,,,,,,,,1800,130,32,1,0,0,response1disk,,6,-10,-5,1,0,0,rectangle,-10,-5,1,0,0,,,,,,,-10,-5,1,0,0,,0,37,37,46,1,
,,,,,,,,,,,,,FF,,,,,,,,1.2,,,,,,,,,,,,,,,,,,,,,,60e03b0a759b4850df25f739,60e57d40bffb5052504da600,2021-07-07_13h25.40.389,Simcolourproject_2stim_asymm_v5,2020.2.10,Win32,60,60e52e7cfedb1dae636df45f,,,,,,,,,473,109,46,1,0,0,response1disk,,6,26,5,1,0,0,rectangle,54,-148,1,0,0,response3disk_3,TRUE,4,4,"[78,220,32,192,1,31,140,144,202,285,107,39,291,226,52,210,0,102,120,224]",1.55,-2,4,1,0,0,rectangle,0,38,38,142,1,
,,,,,,,,,,,,,FF,,,,,,,,1.3362,,,,,,,,,,,,,,,,,,,,,,60e03b0a759b4850df25f739,60e57d40bffb5052504da600,2021-07-07_13h25.40.389,Simcolourproject_2stim_asymm_v5,2020.2.10,Win32,60,60e52e7cfedb1dae636df45f,,,,,,,,,346,-131,-60,1,0,0,response5disk,,2,-2,3,1,0,0,rectangle,-2,3,1,0,0,,,,,,,-2,3,1,0,0,,0,39,39,27,1,
,,,,,,,,,,,,,FF,,,,,,,,0.8835,,,,,,,,,,,,,,,,,,,,,,60e03b0a759b4850df25f739,60e57d40bffb5052504da600,2021-07-07_13h25.40.389,Simcolourproject_2stim_asymm_v5,2020.2.10,Win32,60,60e52e7cfedb1dae636df45f,,,,,,,,,1367,44,-108,1,0,0,response3disk,,4,17,-2,1,0,0,rectangle,17,-2,1,0,0,,,,,,,17,-2,1,0,0,,0,40,40,89,1,
,,,,,,,,,,,,,FF,,,,,,,,1.3668,,,,,,,,,,,,,,,,,,,,,,60e03b0a759b4850df25f739,60e57d40bffb5052504da600,2021-07-07_13h25.40.389,Simcolourproject_2stim_asymm_v5,2020.2.10,Win32,60,60e52e7cfedb1dae636df45f,,,,,,,,,1678,82,-34,1,0,0,response3disk,,5,1,-1,1,0,0,rectangle,1,-1,1,0,0,,,,,,,1,-1,1,0,0,,0,41,41,113,1,
,,,,,,,,,,,,,FF,,,,,,,,0.7037,,,,,,,,,,,,,,,,,,,,,,60e03b0a759b4850df25f739,60e57d40bffb5052504da600,2021-07-07_13h25.40.389,Simcolourproject_2stim_asymm_v5,2020.2.10,Win32,60,60e52e7cfedb1dae636df45f,,,,,,,,,1531,51,-122,1,0,0,response3disk,,4,-32,4,1,0,0,rectangle,-32,4,1,0,0,,,,,,,-32,4,1,0,0,,0,42,42,126,1,
,,,,,,,,,,,,,FF,,,,,,,,1.2161,,,,,,,,,,,,,,,,,,,,,,60e03b0a759b4850df25f739,60e57d40bffb5052504da600,2021-07-07_13h25.40.389,Simcolourproject_2stim_asymm_v5,2020.2.10,Win32,60,60e52e7cfedb1dae636df45f,,,,,,,,,886,-103,48,1,0,0,response7disk,,1,-22,-2,1,0,0,rectangle,-22,-2,1,0,0,,,,,,,-22,-2,1,0,0,,0,43,43,144,1,
,,,,,,,,,,,,,FF,,,,,,,,0.8698,,,,,,,,,,,,,,,,,,,,,,60e03b0a759b4850df25f739,60e57d40bffb5052504da600,2021-07-07_13h25.40.389,Simcolourproject_2stim_asymm_v5,2020.2.10,Win32,60,60e52e7cfedb1dae636df45f,,,,,,,,,1129,-51,-100,1,0,0,response5disk,,3,0,-2,1,0,0,rectangle,0,-2,1,0,0,,,,,,,0,-2,1,0,0,,0,44,44,131,1,
,,,,,,,,,,,,,FF,,,,,,,,0.6999,,,,,,,,,,,,,,,,,,,,,,60e03b0a759b4850df25f739,60e57d40bffb5052504da600,2021-07-07_13h25.40.389,Simcolourproject_2stim_asymm_v5,2020.2.10,Win32,60,60e52e7cfedb1dae636df45f,,,,,,,,,3574,100,-67,1,0,0,response3disk,,5,35,3,1,0,0,rectangle,35,3,1,0,0,,,,,,,35,3,1,0,0,,0,45,45,57,1,
,,,,,,,,,,,,,FF,,,,,,,,0.9501,,,,,,,,,,,,,,,,,,,,,,60e03b0a759b4850df25f739,60e57d40bffb5052504da600,2021-07-07_13h25.40.389,Simcolourproject_2stim_asymm_v5,2020.2.10,Win32,60,60e52e7cfedb1dae636df45f,,,,,,,,,164,-140,-43,1,0,0,response5disk,,2,-30,7,1,0,0,rectangle,-30,7,1,0,0,,,,,,,-30,7,1,0,0,,0,46,46,84,1,
,,,,,,,,,,,,,FF,,,,,,,,0.8667,,,,,,,,,,,,,,,,,,,,,,60e03b0a759b4850df25f739,60e57d40bffb5052504da600,2021-07-07_13h25.40.389,Simcolourproject_2stim_asymm_v5,2020.2.10,Win32,60,60e52e7cfedb1dae636df45f,,,,,,,,,419,51,-143,1,0,0,response3disk,,4,-7,-4,1,0,0,rectangle,-7,-4,1,0,0,,,,,,,-7,-4,1,0,0,,0,47,47,16,1,
,,,,,,,,,,,,,FF,,,,,,,,1.2834,,,,,,,,,,,,,,,,,,,,,,60e03b0a759b4850df25f739,60e57d40bffb5052504da600,2021-07-07_13h25.40.389,Simcolourproject_2stim_asymm_v5,2020.2.10,Win32,60,60e52e7cfedb1dae636df45f,,,,,,,,,4288,105,43,1,0,0,response1disk,,6,-6,-7,1,0,0,rectangle,-6,-7,1,0,0,,,,,,,-6,-7,1,0,0,,0,48,48,146,1,
,,,,,,,,,,,,,FF,,,,,,,,2.0198,,,,,,,,,,,,,,,,,,,,,,60e03b0a759b4850df25f739,60e57d40bffb5052504da600,2021-07-07_13h25.40.389,Simcolourproject_2stim_asymm_v5,2020.2.10,Win32,60,60e52e7cfedb1dae636df45f,,,,,,,,,39,110,59,1,0,0,response1disk,,6,-1,-13,1,0,0,rectangle,-1,-13,1,0,0,,,,,,,-1,-13,1,0,0,,0,49,49,155,1,
,,,,,,,,,,,,,FF,,,,,,,,1.4035,,,,,,,,,,,,,,,,,,,,,,60e03b0a759b4850df25f739,60e57d40bffb5052504da600,2021-07-07_13h25.40.389,Simcolourproject_2stim_asymm_v5,2020.2.10,Win32,60,60e52e7cfedb1dae636df45f,,,,,,,,,430,-38,-137,1,0,0,response5disk,,3,-2,-2,1,0,0,rectangle,-2,-2,1,0,0,,,,,,,-2,-2,1,0,0,,0,50,50,47,1,
,,,,,,,,,,,,,FF,,,,,,,,0.7804,,,,,,,,,,,,,,,,,,,,,,60e03b0a759b4850df25f739,60e57d40bffb5052504da600,2021-07-07_13h25.40.389,Simcolourproject_2stim_asymm_v5,2020.2.10,Win32,60,60e52e7cfedb1dae636df45f,,,,,,,,,2291,-60,110,1,0,0,response7disk,,0,8,-4,1,0,0,rectangle,-116,46,1,0,0,response7disk_3,TRUE,1,1,"[78,220,32,192,1,31,140,144,202,285,107,39,291,226,52,210,0,102,120,224]",1.3804,-1,4,1,0,0,rectangle,0,51,51,128,1,
,,,,,,,,,,,,,FF,,,,,,,,0.7868,,,,,,,,,,,,,,,,,,,,,,60e03b0a759b4850df25f739,60e57d40bffb5052504da600,2021-07-07_13h25.40.389,Simcolourproject_2stim_asymm_v5,2020.2.10,Win32,60,60e52e7cfedb1dae636df45f,,,,,,,,,1908,79,-49,1,0,0,response3disk,,5,-3,1,1,0,0,rectangle,-3,1,1,0,0,,,,,,,-3,1,1,0,0,,0,52,52,85,1,
,,,,,,,,,,,,,FF,,,,,,,,0.5872,,,,,,,,,,,,,,,,,,,,,,60e03b0a759b4850df25f739,60e57d40bffb5052504da600,2021-07-07_13h25.40.389,Simcolourproject_2stim_asymm_v5,2020.2.10,Win32,60,60e52e7cfedb1dae636df45f,,,,,,,,,2241,35,-115,1,0,0,response3disk,,4,1,12,1,0,0,rectangle,1,12,1,0,0,,,,,,,1,12,1,0,0,,0,53,53,111,1,
,,,,,,,,,,,,,FF,,,,,,,,0.8371,,,,,,,,,,,,,,,,,,,,,,60e03b0a759b4850df25f739,60e57d40bffb5052504da600,2021-07-07_13h25.40.389,Simcolourproject_2stim_asymm_v5,2020.2.10,Win32,60,60e52e7cfedb1dae636df45f,,,,,,,,,199,-42,-100,1,0,0,response5disk,,3,-7,-10,1,0,0,rectangle,-7,-10,1,0,0,,,,,,,-7,-10,1,0,0,,0,54,54,29,1,
,,,,,,,,,,,,,FF,,,,,,,,0.903,,,,,,,,,,,,,,,,,,,,,,60e03b0a759b4850df25f739,60e57d40bffb5052504da600,2021-07-07_13h25.40.389,Simcolourproject_2stim_asymm_v5,2020.2.10,Win32,60,60e52e7cfedb1dae636df45f,,,,,,,,,815,73,-111,1,0,0,response3disk,,4,38,-17,1,0,0,rectangle,38,-17,1,0,0,,,,,,,38,-17,1,0,0,,0,55,55,105,1,
,,,,,,,,,,,,,FF,,,,,,,,1.053,,,,,,,,,,,,,,,,,,,,,,60e03b0a759b4850df25f739,60e57d40bffb5052504da600,2021-07-07_13h25.40.389,Simcolourproject_2stim_asymm_v5,2020.2.10,Win32,60,60e52e7cfedb1dae636df45f,,,,,,,,,1721,67,101,1,0,0,response1disk,,7,-1,-9,1,0,0,rectangle,-1,-9,1,0,0,,,,,,,-1,-9,1,0,0,,0,56,56,107,1,
,,,,,,,,,,,,,FF,,,,,,,,2.2472,,,,,,,,,,,,,,,,,,,,,,60e03b0a759b4850df25f739,60e57d40bffb5052504da600,2021-07-07_13h25.40.389,Simcolourproject_2stim_asymm_v5,2020.2.10,Win32,60,60e52e7cfedb1dae636df45f,,,,,,,,,278,-84,-106,1,0,0,response5disk,,3,-4,3,1,0,0,rectangle,-4,3,1,0,0,,,,,,,-4,3,1,0,0,,0,57,57,151,1,
,,,,,,,,,,,,,FF,,,,,,,,1.3538,,,,,,,,,,,,,,,,,,,,,,60e03b0a759b4850df25f739,60e57d40bffb5052504da600,2021-07-07_13h25.40.389,Simcolourproject_2stim_asymm_v5,2020.2.10,Win32,60,60e52e7cfedb1dae636df45f,,,,,,,,,1853,140,-56,1,0,0,response3disk,,5,33,-9,1,0,0,rectangle,33,-9,1,0,0,,,,,,,33,-9,1,0,0,,0,58,58,157,1,
,,,,,,,,,,,,,FF,,,,,,,,0.6671,,,,,,,,,,,,,,,,,,,,,,60e03b0a759b4850df25f739,60e57d40bffb5052504da600,2021-07-07_13h25.40.389,Simcolourproject_2stim_asymm_v5,2020.2.10,Win32,60,60e52e7cfedb1dae636df45f,,,,,,,,,488,73,-145,1,0,0,response3disk,,4,-12,-1,1,0,0,rectangle,-12,-1,1,0,0,,,,,,,-12,-1,1,0,0,,0,59,59,70,1,
,,,,,,,,,,,,,FF,,,,,,,,1.1,,,,,,,,,,,,,,,,,,,,,,60e03b0a759b4850df25f739,60e57d40bffb5052504da600,2021-07-07_13h25.40.389,Simcolourproject_2stim_asymm_v5,2020.2.10,Win32,60,60e52e7cfedb1dae636df45f,,,,,,,,,106,-50,-135,1,0,0,response5disk,,3,-32,-1,1,0,0,rectangle,-32,-1,1,0,0,,,,,,,-32,-1,1,0,0,,0,60,60,72,1,
,,,,,,,,,,,,,FF,,,,,,,,0.5665,,,,,,,,,,,,,,,,,,,,,,60e03b0a759b4850df25f739,60e57d40bffb5052504da600,2021-07-07_13h25.40.389,Simcolourproject_2stim_asymm_v5,2020.2.10,Win32,60,60e52e7cfedb1dae636df45f,,,,,,,,,1931,126,61,1,0,0,response1disk,,6,-1,1,1,0,0,rectangle,-1,1,1,0,0,,,,,,,-1,1,1,0,0,,0,61,61,109,1,
,,,,,,,,,,,,,FF,,,,,,,,1.3838,,,,,,,,,,,,,,,,,,,,,,60e03b0a759b4850df25f739,60e57d40bffb5052504da600,2021-07-07_13h25.40.389,Simcolourproject_2stim_asymm_v5,2020.2.10,Win32,60,60e52e7cfedb1dae636df45f,,,,,,,,,156,109,-153,1,0,0,response3disk,,4,-29,-2,1,0,0,rectangle,-29,-2,1,0,0,,,,,,,-29,-2,1,0,0,,0,62,62,150,1,
,,,,,,,,,,,,,FF,,,,,,,,1.1668,,,,,,,,,,,,,,,,,,,,,,60e03b0a759b4850df25f739,60e57d40bffb5052504da600,2021-07-07_13h25.40.389,Simcolourproject_2stim_asymm_v5,2020.2.10,Win32,60,60e52e7cfedb1dae636df45f,,,,,,,,,467,90,-47,1,0,0,response3disk,,5,7,-3,1,0,0,rectangle,7,-3,1,0,0,,,,,,,7,-3,1,0,0,,0,63,63,24,1,
,,,,,,,,,,,,,FF,,,,,,,,1.6138,,,,,,,,,,,,,,,,,,,,,,60e03b0a759b4850df25f739,60e57d40bffb5052504da600,2021-07-07_13h25.40.389,Simcolourproject_2stim_asymm_v5,2020.2.10,Win32,60,60e52e7cfedb1dae636df45f,,,,,,,,,3974,-49,-138,1,0,0,response5disk,,3,-15,0,1,0,0,rectangle,-15,0,1,0,0,,,,,,,-15,0,1,0,0,,0,64,64,8,1,
,,,,,,,,,,,,,FF,,,,,,,,18.6833,,,,,,,,,,,,,,,,,,,,,,60e03b0a759b4850df25f739,60e57d40bffb5052504da600,2021-07-07_13h25.40.389,Simcolourproject_2stim_asymm_v5,2020.2.10,Win32,60,60e52e7cfedb1dae636df45f,,,,,,,,,1379,70,-146,1,0,0,response3disk,,4,-14,19,1,0,0,rectangle,-14,19,1,0,0,,,,,,,-14,19,1,0,0,,0,65,65,134,1,
,,,,,,,,,,,,,FF,,,,,,,,1.1164,,,,,,,,,,,,,,,,,,,,,,60e03b0a759b4850df25f739,60e57d40bffb5052504da600,2021-07-07_13h25.40.389,Simcolourproject_2stim_asymm_v5,2020.2.10,Win32,60,60e52e7cfedb1dae636df45f,,,,,,,,,2360,-142,-53,1,0,0,response5disk,,2,-27,0,1,0,0,rectangle,-27,0,1,0,0,,,,,,,-27,0,1,0,0,,0,66,66,25,1,
,,,,,,,,,,,,,FF,,,,,,,,0.8335,,,,,,,,,,,,,,,,,,,,,,60e03b0a759b4850df25f739,60e57d40bffb5052504da600,2021-07-07_13h25.40.389,Simcolourproject_2stim_asymm_v5,2020.2.10,Win32,60,60e52e7cfedb1dae636df45f,,,,,,,,,1173,117,-62,1,0,0,response3disk,,5,24,-2,1,0,0,rectangle,24,-2,1,0,0,,,,,,,24,-2,1,0,0,,0,67,67,18,1,
,,,,,,,,,,,,,FF,,,,,,,,1.2618,,,,,,,,,,,,,,,,,,,,,,60e03b0a759b4850df25f739,60e57d40bffb5052504da600,2021-07-07_13h25.40.389,Simcolourproject_2stim_asymm_v5,2020.2.10,Win32,60,60e52e7cfedb1dae636df45f,,,,,,,,,1525,72,-139,1,0,0,response3disk,,4,-11,3,1,0,0,rectangle,-11,3,1,0,0,,,,,,,-11,3,1,0,0,,0,68,68,154,1,
,,,,,,,,,,,,,FF,,,,,,,,1.1501,,,,,,,,,,,,,,,,,,,,,,60e03b0a759b4850df25f739,60e57d40bffb5052504da600,2021-07-07_13h25.40.389,Simcolourproject_2stim_asymm_v5,2020.2.10,Win32,60,60e52e7cfedb1dae636df45f,,,,,,,,,3394,116,-65,1,0,0,response3disk,,5,6,3,1,0,0,rectangle,6,3,1,0,0,,,,,,,6,3,1,0,0,,0,69,69,103,1,
,,,,,,,,,,,,,FF,,,,,,,,1.0668,,,,,,,,,,,,,,,,,,,,,,60e03b0a759b4850df25f739,60e57d40bffb5052504da600,2021-07-07_13h25.40.389,Simcolourproject_2stim_asymm_v5,2020.2.10,Win32,60,60e52e7cfedb1dae636df45f,,,,,,,,,1270,130,44,1,0,0,response1disk,,6,-37,-5,1,0,0,rectangle,-37,-5,1,0,0,,,,,,,-37,-5,1,0,0,,0,70,70,127,1,
,,,,,,,,,,,,,FF,,,,,,,,0.8834,,,,,,,,,,,,,,,,,,,,,,60e03b0a759b4850df25f739,60e57d40bffb5052504da600,2021-07-07_13h25.40.389,Simcolourproject_2stim_asymm_v5,2020.2.10,Win32,60,60e52e7cfedb1dae636df45f,,,,,,,,,2588,60,117,1,0,0,response1disk,,7,-22,-10,1,0,0,rectangle,-22,-10,1,0,0,,,,,,,-22,-10,1,0,0,,0,71,71,33,1,
,,,,,,,,,,,,,FF,,,,,,,,1.2,,,,,,,,,,,,,,,,,,,,,,60e03b0a759b4850df25f739,60e57d40bffb5052504da600,2021-07-07_13h25.40.389,Simcolourproject_2stim_asymm_v5,2020.2.10,Win32,60,60e52e7cfedb1dae636df45f,,,,,,,,,3,62,-116,1,0,0,response3disk,,4,0,-3,1,0,0,rectangle,0,-3,1,0,0,,,,,,,0,-3,1,0,0,,0,72,72,6,1,
,,,,,,,,,,,,,FF,,,,,,,,1.5341,,,,,,,,,,,,,,,,,,,,,,60e03b0a759b4850df25f739,60e57d40bffb5052504da600,2021-07-07_13h25.40.389,Simcolourproject_2stim_asymm_v5,2020.2.10,Win32,60,60e52e7cfedb1dae636df45f,,,,,,,,,3338,72,-104,1,0,0,response3disk,,4,2,-11,1,0,0,rectangle,2,-11,1,0,0,,,,,,,2,-11,1,0,0,,0,73,73,17,1,
,,,,,,,,,,,,,FF,,,,,,,,2.1,,,,,,,,,,,,,,,,,,,,,,60e03b0a759b4850df25f739,60e57d40bffb5052504da600,2021-07-07_13h25.40.389,Simcolourproject_2stim_asymm_v5,2020.2.10,Win32,60,60e52e7cfedb1dae636df45f,,,,,,,,,303,133,64,1,0,0,response1disk,,6,4,-11,1,0,0,rectangle,4,-11,1,0,0,,,,,,,4,-11,1,0,0,,0,74,74,32,1,
,,,,,,,,,,,,,FF,,,,,,,,1.803,,,,,,,,,,,,,,,,,,,,,,60e03b0a759b4850df25f739,60e57d40bffb5052504da600,2021-07-07_13h25.40.389,Simcolourproject_2stim_asymm_v5,2020.2.10,Win32,60,60e52e7cfedb1dae636df45f,,,,,,,,,3699,132,61,1,0,0,response1disk,,6,-8,-1,1,0,0,rectangle,-8,-1,1,0,0,,,,,,,-8,-1,1,0,0,,0,75,75,83,1,
,,,,,,,,,,,,,FF,,,,,,,,1.053,,,,,,,,,,,,,,,,,,,,,,60e03b0a759b4850df25f739,60e57d40bffb5052504da600,2021-07-07_13h25.40.389,Simcolourproject_2stim_asymm_v5,2020.2.10,Win32,60,60e52e7cfedb1dae636df45f,,,,,,,,,1603,-110,-65,1,0,0,response5disk,,2,-1,-17,1,0,0,rectangle,-1,-17,1,0,0,,,,,,,-1,-17,1,0,0,,0,76,76,87,1,
,,,,,,,,,,,,,FF,,,,,,,,1.037,,,,,,,,,,,,,,,,,,,,,,60e03b0a759b4850df25f739,60e57d40bffb5052504da600,2021-07-07_13h25.40.389,Simcolourproject_2stim_asymm_v5,2020.2.10,Win32,60,60e52e7cfedb1dae636df45f,,,,,,,,,1038,-40,-113,1,0,0,response5disk,,3,-17,-13,1,0,0,rectangle,-41,93,1,0,0,response7disk_3,TRUE,0,0,"[78,220,32,192,1,31,140,144,202,285,107,39,291,226,52,210,0,102,120,224]",1.214,15,-18,1,0,0,rectangle,0,77,77,95,1,
,,,,,,,,,,,,,FF,,,,,,,,1.3198,,,,,,,,,,,,,,,,,,,,,,60e03b0a759b4850df25f739,60e57d40bffb5052504da600,2021-07-07_13h25.40.389,Simcolourproject_2stim_asymm_v5,2020.2.10,Win32,60,60e52e7cfedb1dae636df45f,,,,,,,,,4171,52,-110,1,0,0,response3disk,,4,-21,-2,1,0,0,rectangle,-21,-2,1,0,0,,,,,,,-21,-2,1,0,0,,0,78,78,3,1,
,,,,,,,,,,,,,FF,,,,,,,,1.5166,,,,,,,,,,,,,,,,,,,,,,60e03b0a759b4850df25f739,60e57d40bffb5052504da600,2021-07-07_13h25.40.389,Simcolourproject_2stim_asymm_v5,2020.2.10,Win32,60,60e52e7cfedb1dae636df45f,,,,,,,,,3322,109,-58,1,0,0,response3disk,,5,-12,3,1,0,0,rectangle,-12,3,1,0,0,,,,,,,-12,3,1,0,0,,0,79,79,52,1,
,,,,,,,,,,,,,FF,,,,,,,,0.8535,,,,,,,,,,,,,,,,,,,,,,60e03b0a759b4850df25f739,60e57d40bffb5052504da600,2021-07-07_13h25.40.389,Simcolourproject_2stim_asymm_v5,2020.2.10,Win32,60,60e52e7cfedb1dae636df45f,,,,,,,,,2776,-29,-96,1,0,0,response5disk,,3,-12,-18,1,0,0,rectangle,-12,-18,1,0,0,,,,,,,-12,-18,1,0,0,,0,80,80,118,1,
,,,,,,,,,,,,,FF,,,,,,,,0.6501,,,,,,,,,,,,,,,,,,,,,,60e03b0a759b4850df25f739,60e57d40bffb5052504da600,2021-07-07_13h25.40.389,Simcolourproject_2stim_asymm_v5,2020.2.10,Win32,60,60e52e7cfedb1dae636df45f,,,,,,,,,2269,104,39,1,0,0,response1disk,,6,5,7,1,0,0,rectangle,5,7,1,0,0,,,,,,,5,7,1,0,0,,0,81,81,75,1,
,,,,,,,,,,,,,FF,,,,,,,,1.0168,,,,,,,,,,,,,,,,,,,,,,60e03b0a759b4850df25f739,60e57d40bffb5052504da600,2021-07-07_13h25.40.389,Simcolourproject_2stim_asymm_v5,2020.2.10,Win32,60,60e52e7cfedb1dae636df45f,,,,,,,,,603,114,-62,1,0,0,response3disk,,5,-13,-4,1,0,0,rectangle,-13,-4,1,0,0,,,,,,,-13,-4,1,0,0,,0,82,82,100,1,
,,,,,,,,,,,,,FF,,,,,,,,0.8865,,,,,,,,,,,,,,,,,,,,,,60e03b0a759b4850df25f739,60e57d40bffb5052504da600,2021-07-07_13h25.40.389,Simcolourproject_2stim_asymm_v5,2020.2.10,Win32,60,60e52e7cfedb1dae636df45f,,,,,,,,,2029,55,-109,1,0,0,response3disk,,4,-11,11,1,0,0,rectangle,-11,11,1,0,0,,,,,,,-11,11,1,0,0,,0,83,83,36,1,
,,,,,,,,,,,,,FF,,,,,,,,1.5031,,,,,,,,,,,,,,,,,,,,,,60e03b0a759b4850df25f739,60e57d40bffb5052504da600,2021-07-07_13h25.40.389,Simcolourproject_2stim_asymm_v5,2020.2.10,Win32,60,60e52e7cfedb1dae636df45f,,,,,,,,,2676,56,-90,1,0,0,response3disk,,4,12,-13,1,0,0,rectangle,12,-13,1,0,0,,,,,,,12,-13,1,0,0,,0,84,84,40,1,
,,,,,,,,,,,,,FF,,,,,,,,0.7501,,,,,,,,,,,,,,,,,,,,,,60e03b0a759b4850df25f739,60e57d40bffb5052504da600,2021-07-07_13h25.40.389,Simcolourproject_2stim_asymm_v5,2020.2.10,Win32,60,60e52e7cfedb1dae636df45f,,,,,,,,,3134,105,-49,1,0,0,response3disk,,5,41,0,1,0,0,rectangle,41,0,1,0,0,,,,,,,41,0,1,0,0,,0,85,85,64,1,
,,,,,,,,,,,,,FF,,,,,,,,0.95,,,,,,,,,,,,,,,,,,,,,,60e03b0a759b4850df25f739,60e57d40bffb5052504da600,2021-07-07_13h25.40.389,Simcolourproject_2stim_asymm_v5,2020.2.10,Win32,60,60e52e7cfedb1dae636df45f,,,,,,,,,625,109,44,1,0,0,response1disk,,6,-9,1,1,0,0,rectangle,-9,1,1,0,0,,,,,,,-9,1,1,0,0,,0,86,86,123,1,
,,,,,,,,,,,,,FF,,,,,,,,0.9198,,,,,,,,,,,,,,,,,,,,,,60e03b0a759b4850df25f739,60e57d40bffb5052504da600,2021-07-07_13h25.40.389,Simcolourproject_2stim_asymm_v5,2020.2.10,Win32,60,60e52e7cfedb1dae636df45f,,,,,,,,,3521,113,53,1,0,0,response1disk,,6,-6,10,1,0,0,rectangle,-6,10,1,0,0,,,,,,,-6,10,1,0,0,,0,87,87,76,1,
,,,,,,,,,,,,,FF,,,,,,,,0.6366,,,,,,,,,,,,,,,,,,,,,,60e03b0a759b4850df25f739,60e57d40bffb5052504da600,2021-07-07_13h25.40.389,Simcolourproject_2stim_asymm_v5,2020.2.10,Win32,60,60e52e7cfedb1dae636df45f,,,,,,,,,4136,137,41,1,0,0,response1disk,,6,22,-6,1,0,0,rectangle,22,-6,1,0,0,,,,,,,22,-6,1,0,0,,0,88,88,86,1,
,,,,,,,,,,,,,FF,,,,,,,,1.3001,,,,,,,,,,,,,,,,,,,,,,60e03b0a759b4850df25f739,60e57d40bffb5052504da600,2021-07-07_13h25.40.389,Simcolourproject_2stim_asymm_v5,2020.2.10,Win32,60,60e52e7cfedb1dae636df45f,,,,,,,,,1896,58,-110,1,0,0,response3disk,,4,-7,-10,1,0,0,rectangle,-7,-10,1,0,0,,,,,,,-7,-10,1,0,0,,0,89,89,69,1,
,,,,,,,,,,,,,FF,,,,,,,,1.0003,,,,,,,,,,,,,,,,,,,,,,60e03b0a759b4850df25f739,60e57d40bffb5052504da600,2021-07-07_13h25.40.389,Simcolourproject_2stim_asymm_v5,2020.2.10,Win32,60,60e52e7cfedb1dae636df45f,,,,,,,,,981,116,51,1,0,0,response1disk,,6,4,2,1,0,0,rectangle,4,2,1,0,0,,,,,,,4,2,1,0,0,,0,90,90,112,1,
,,,,,,,,,,,,,FF,,,,,,,,1.1702,,,,,,,,,,,,,,,,,,,,,,60e03b0a759b4850df25f739,60e57d40bffb5052504da600,2021-07-07_13h25.40.389,Simcolourproject_2stim_asymm_v5,2020.2.10,Win32,60,60e52e7cfedb1dae636df45f,,,,,,,,,2494,103,37,1,0,0,response1disk,,6,14,-7,1,0,0,rectangle,14,-7,1,0,0,,,,,,,14,-7,1,0,0,,0,91,91,153,1,
,,,,,,,,,,,,,FF,,,,,,,,0.7368,,,,,,,,,,,,,,,,,,,,,,60e03b0a759b4850df25f739,60e57d40bffb5052504da600,2021-07-07_13h25.40.389,Simcolourproject_2stim_asymm_v5,2020.2.10,Win32,60,60e52e7cfedb1dae636df45f,,,,,,,,,2857,116,-42,1,0,0,response3disk,,5,13,-12,1,0,0,rectangle,13,-12,1,0,0,,,,,,,13,-12,1,0,0,,0,92,92,96,1,
,,,,,,,,,,,,,FF,,,,,,,,0.6637,,,,,,,,,,,,,,,,,,,,,,60e03b0a759b4850df25f739,60e57d40bffb5052504da600,2021-07-07_13h25.40.389,Simcolourproject_2stim_asymm_v5,2020.2.10,Win32,60,60e52e7cfedb1dae636df45f,,,,,,,,,297,111,-63,1,0,0,response3disk,,5,12,-7,1,0,0,rectangle,12,-7,1,0,0,,,,,,,12,-7,1,0,0,,0,93,93,116,1,
,,,,,,,,,,,,,FF,,,,,,,,0.8499,,,,,,,,,,,,,,,,,,,,,,60e03b0a759b4850df25f739,60e57d40bffb5052504da600,2021-07-07_13h25.40.389,Simcolourproject_2stim_asymm_v5,2020.2.10,Win32,60,60e52e7cfedb1dae636df45f,,,,,,,,,2451,101,72,1,0,0,response1disk,,6,-15,-8,1,0,0,rectangle,-15,-8,1,0,0,,,,,,,-15,-8,1,0,0,,0,94,94,30,1,
,,,,,,,,,,,,,FF,,,,,,,,0.8334,,,,,,,,,,,,,,,,,,,,,,60e03b0a759b4850df25f739,60e57d40bffb5052504da600,2021-07-07_13h25.40.389,Simcolourproject_2stim_asymm_v5,2020.2.10,Win32,60,60e52e7cfedb1dae636df45f,,,,,,,,,709,56,75,1,0,0,response1disk,,7,6,-18,1,0,0,rectangle,6,-18,1,0,0,,,,,,,6,-18,1,0,0,,0,95,95,58,1,
,,,,,,,,,,,,,FF,,,,,,,,1.0835,,,,,,,,,,,,,,,,,,,,,,60e03b0a759b4850df25f739,60e57d40bffb5052504da600,2021-07-07_13h25.40.389,Simcolourproject_2stim_asymm_v5,2020.2.10,Win32,60,60e52e7cfedb1dae636df45f,,,,,,,,,1538,45,94,1,0,0,response1disk,,7,24,6,1,0,0,rectangle,24,6,1,0,0,,,,,,,24,6,1,0,0,,0,96,96,106,1,
,,,,,,,,,,,,,FF,,,,,,,,0.6669,,,,,,,,,,,,,,,,,,,,,,60e03b0a759b4850df25f739,60e57d40bffb5052504da600,2021-07-07_13h25.40.389,Simcolourproject_2stim_asymm_v5,2020.2.10,Win32,60,60e52e7cfedb1dae636df45f,,,,,,,,,2222,116,43,1,0,0,response1disk,,6,6,-8,1,0,0,rectangle,6,-8,1,0,0,,,,,,,6,-8,1,0,0,,0,97,97,7,1,
,,,,,,,,,,,,,FF,,,,,,,,0.8031,,,,,,,,,,,,,,,,,,,,,,60e03b0a759b4850df25f739,60e57d40bffb5052504da600,2021-07-07_13h25.40.389,Simcolourproject_2stim_asymm_v5,2020.2.10,Win32,60,60e52e7cfedb1dae636df45f,,,,,,,,,615,71,-115,1,0,0,response3disk,,4,-14,-2,1,0,0,rectangle,-14,-2,1,0,0,,,,,,,-14,-2,1,0,0,,0,98,98,61,1,
,,,,,,,,,,,,,FF,,,,,,,,1.0834,,,,,,,,,,,,,,,,,,,,,,60e03b0a759b4850df25f739,60e57d40bffb5052504da600,2021-07-07_13h25.40.389,Simcolourproject_2stim_asymm_v5,2020.2.10,Win32,60,60e52e7cfedb1dae636df45f,,,,,,,,,3240,114,-49,1,0,0,response3disk,,5,19,0,1,0,0,rectangle,19,0,1,0,0,,,,,,,19,0,1,0,0,,0,99,99,108,1,
,,,,,,,,,,,,,FF,,,,,,,,0.6499,,,,,,,,,,,,,,,,,,,,,,60e03b0a759b4850df25f739,60e57d40bffb5052504da600,2021-07-07_13h25.40.389,Simcolourproject_2stim_asymm_v5,2020.2.10,Win32,60,60e52e7cfedb1dae636df45f,,,,,,,,,1195,58,-88,1,0,0,response3disk,,4,18,-6,1,0,0,rectangle,18,-6,1,0,0,,,,,,,18,-6,1,0,0,,0,100,100,132,1,
,,,,,,,,,,,,,FF,,,,,,,,0.8502,,,,,,,,,,,,,,,,,,,,,,60e03b0a759b4850df25f739,60e57d40bffb5052504da600,2021-07-07_13h25.40.389,Simcolourproject_2stim_asymm_v5,2020.2.10,Win32,60,60e52e7cfedb1dae636df45f,,,,,,,,,2383,44,93,1,0,0,response1disk,,7,13,15,1,0,0,rectangle,-47,131,1,0,0,response7disk_3,TRUE,0,0,"[78,220,32,192,1,31,140,144,202,285,107,39,291,226,52,210,0,102,120,224]",1.4666,-5,-6,1,0,0,rectangle,0,101,101,115,1,
,,,,,,,,,,,,,FF,,,,,,,,0.764,,,,,,,,,,,,,,,,,,,,,,60e03b0a759b4850df25f739,60e57d40bffb5052504da600,2021-07-07_13h25.40.389,Simcolourproject_2stim_asymm_v5,2020.2.10,Win32,60,60e52e7cfedb1dae636df45f,,,,,,,,,1232,106,-50,1,0,0,response3disk,,5,3,-4,1,0,0,rectangle,3,-4,1,0,0,,,,,,,3,-4,1,0,0,,0,102,102,120,1,
,,,,,,,,,,,,,FF,,,,,,,,0.8974,,,,,,,,,,,,,,,,,,,,,,60e03b0a759b4850df25f739,60e57d40bffb5052504da600,2021-07-07_13h25.40.389,Simcolourproject_2stim_asymm_v5,2020.2.10,Win32,60,60e52e7cfedb1dae636df45f,,,,,,,,,286,50,-104,1,0,0,response3disk,,4,-20,-11,1,0,0,rectangle,-20,-11,1,0,0,,,,,,,-20,-11,1,0,0,,0,103,103,71,1,
,,,,,,,,,,,,,FF,,,,,,,,0.7501,,,,,,,,,,,,,,,,,,,,,,60e03b0a759b4850df25f739,60e57d40bffb5052504da600,2021-07-07_13h25.40.389,Simcolourproject_2stim_asymm_v5,2020.2.10,Win32,60,60e52e7cfedb1dae636df45f,,,,,,,,,987,111,45,1,0,0,response1disk,,6,12,9,1,0,0,rectangle,12,9,1,0,0,,,,,,,12,9,1,0,0,,0,104,104,4,1,
,,,,,,,,,,,,,FF,,,,,,,,1.5501,,,,,,,,,,,,,,,,,,,,,,60e03b0a759b4850df25f739,60e57d40bffb5052504da600,2021-07-07_13h25.40.389,Simcolourproject_2stim_asymm_v5,2020.2.10,Win32,60,60e52e7cfedb1dae636df45f,,,,,,,,,3518,54,-136,1,0,0,response3disk,,4,12,-8,1,0,0,rectangle,12,-8,1,0,0,,,,,,,12,-8,1,0,0,,0,105,105,54,1,
,,,,,,,,,,,,,FF,,,,,,,,4.9667,,,,,,,,,,,,,,,,,,,,,,60e03b0a759b4850df25f739,60e57d40bffb5052504da600,2021-07-07_13h25.40.389,Simcolourproject_2stim_asymm_v5,2020.2.10,Win32,60,60e52e7cfedb1dae636df45f,,,,,,,,,3131,102,-51,1,0,0,response3disk,,5,9,-11,1,0,0,rectangle,-128,-54,1,0,0,response5disk_3,TRUE,2,2,"[78,220,32,192,1,31,140,144,202,285,107,39,291,226,52,210,0,102,120,224]",1.3196,-5,-12,1,0,0,rectangle,0,106,106,42,1,
,,,,,,,,,,,,,FF,,,,,,,,0.7534,,,,,,,,,,,,,,,,,,,,,,60e03b0a759b4850df25f739,60e57d40bffb5052504da600,2021-07-07_13h25.40.389,Simcolourproject_2stim_asymm_v5,2020.2.10,Win32,60,60e52e7cfedb1dae636df45f,,,,,,,,,1419,73,-107,1,0,0,response3disk,,4,18,-12,1,0,0,rectangle,18,-12,1,0,0,,,,,,,18,-12,1,0,0,,0,107,107,9,1,
,,,,,,,,,,,,,FF,,,,,,,,1.2834,,,,,,,,,,,,,,,,,,,,,,60e03b0a759b4850df25f739,60e57d40bffb5052504da600,2021-07-07_13h25.40.389,Simcolourproject_2stim_asymm_v5,2020.2.10,Win32,60,60e52e7cfedb1dae636df45f,,,,,,,,,1584,91,-45,1,0,0,response3disk,,5,29,0,1,0,0,rectangle,29,0,1,0,0,,,,,,,29,0,1,0,0,,0,108,108,20,1,
,,,,,,,,,,,,,FF,,,,,,,,1.6867,,,,,,,,,,,,,,,,,,,,,,60e03b0a759b4850df25f739,60e57d40bffb5052504da600,2021-07-07_13h25.40.389,Simcolourproject_2stim_asymm_v5,2020.2.10,Win32,60,60e52e7cfedb1dae636df45f,,,,,,,,,3078,113,53,1,0,0,response1disk,,6,5,-7,1,0,0,rectangle,5,-7,1,0,0,,,,,,,5,-7,1,0,0,,0,109,109,110,1,
,,,,,,,,,,,,,FF,,,,,,,,1.0168,,,,,,,,,,,,,,,,,,,,,,60e03b0a759b4850df25f739,60e57d40bffb5052504da600,2021-07-07_13h25.40.389,Simcolourproject_2stim_asymm_v5,2020.2.10,Win32,60,60e52e7cfedb1dae636df45f,,,,,,,,,2597,148,-71,1,0,0,response3disk,,5,17,-10,1,0,0,rectangle,17,-10,1,0,0,,,,,,,17,-10,1,0,0,,0,110,110,63,1,
,,,,,,,,,,,,,FF,,,,,,,,1.3025,,,,,,,,,,,,,,,,,,,,,,60e03b0a759b4850df25f739,60e57d40bffb5052504da600,2021-07-07_13h25.40.389,Simcolourproject_2stim_asymm_v5,2020.2.10,Win32,60,60e52e7cfedb1dae636df45f,,,,,,,,,2012,119,46,1,0,0,response1disk,,6,20,-14,1,0,0,rectangle,20,-14,1,0,0,,,,,,,20,-14,1,0,0,,0,111,111,65,1,
,,,,,,,,,,,,,FF,,,,,,,,1.5335,,,,,,,,,,,,,,,,,,,,,,60e03b0a759b4850df25f739,60e57d40bffb5052504da600,2021-07-07_13h25.40.389,Simcolourproject_2stim_asymm_v5,2020.2.10,Win32,60,60e52e7cfedb1dae636df45f,,,,,,,,,608,56,103,1,0,0,response1disk,,7,-5,-7,1,0,0,rectangle,-5,-7,1,0,0,,,,,,,-5,-7,1,0,0,,0,112,112,138,1,
,,,,,,,,,,,,,FF,,,,,,,,0.8197,,,,,,,,,,,,,,,,,,,,,,60e03b0a759b4850df25f739,60e57d40bffb5052504da600,2021-07-07_13h25.40.389,Simcolourproject_2stim_asymm_v5,2020.2.10,Win32,60,60e52e7cfedb1dae636df45f,,,,,,,,,3721,53,78,1,0,0,response1disk,,7,2,0,1,0,0,rectangle,2,0,1,0,0,,,,,,,2,0,1,0,0,,0,113,113,21,1,
,,,,,,,,,,,,,FF,,,,,,,,3.6197,,,,,,,,,,,,,,,,,,,,,,60e03b0a759b4850df25f739,60e57d40bffb5052504da600,2021-07-07_13h25.40.389,Simcolourproject_2stim_asymm_v5,2020.2.10,Win32,60,60e52e7cfedb1dae636df45f,,,,,,,,,244,111,-54,1,0,0,response3disk,,5,4,-9,1,0,0,rectangle,4,-9,1,0,0,,,,,,,4,-9,1,0,0,,0,114,114,122,1,
,,,,,,,,,,,,,FF,,,,,,,,1.0702,,,,,,,,,,,,,,,,,,,,,,60e03b0a759b4850df25f739,60e57d40bffb5052504da600,2021-07-07_13h25.40.389,Simcolourproject_2stim_asymm_v5,2020.2.10,Win32,60,60e52e7cfedb1dae636df45f,,,,,,,,,4223,55,-121,1,0,0,response3disk,,4,7,-6,1,0,0,rectangle,7,-6,1,0,0,,,,,,,7,-6,1,0,0,,0,115,115,44,1,
,,,,,,,,,,,,,FF,,,,,,,,0.8167,,,,,,,,,,,,,,,,,,,,,,60e03b0a759b4850df25f739,60e57d40bffb5052504da600,2021-07-07_13h25.40.389,Simcolourproject_2stim_asymm_v5,2020.2.10,Win32,60,60e52e7cfedb1dae636df45f,,,,,,,,,2056,109,50,1,0,0,response1disk,,6,9,4,1,0,0,rectangle,9,4,1,0,0,,,,,,,9,4,1,0,0,,0,116,116,73,1,
,,,,,,,,,,,,,FF,,,,,,,,1.4534,,,,,,,,,,,,,,,,,,,,,,60e03b0a759b4850df25f739,60e57d40bffb5052504da600,2021-07-07_13h25.40.389,Simcolourproject_2stim_asymm_v5,2020.2.10,Win32,60,60e52e7cfedb1dae636df45f,,,,,,,,,1880,128,40,1,0,0,response1disk,,6,12,-4,1,0,0,rectangle,12,-4,1,0,0,,,,,,,12,-4,1,0,0,,0,117,117,119,1,
,,,,,,,,,,,,,FF,,,,,,,,0.5972,,,,,,,,,,,,,,,,,,,,,,60e03b0a759b4850df25f739,60e57d40bffb5052504da600,2021-07-07_13h25.40.389,Simcolourproject_2stim_asymm_v5,2020.2.10,Win32,60,60e52e7cfedb1dae636df45f,,,,,,,,,4299,123,34,1,0,0,response1disk,,6,-3,2,1,0,0,rectangle,-3,2,1,0,0,,,,,,,-3,2,1,0,0,,0,118,118,114,1,
,,,,,,,,,,,,,FF,,,,,,,,0.9831,,,,,,,,,,,,,,,,,,,,,,60e03b0a759b4850df25f739,60e57d40bffb5052504da600,2021-07-07_13h25.40.389,Simcolourproject_2stim_asymm_v5,2020.2.10,Win32,60,60e52e7cfedb1dae636df45f,,,,,,,,,3253,128,43,1,0,0,response1disk,,6,25,-10,1,0,0,rectangle,92,-43,1,0,0,response3disk_3,TRUE,5,5,"[78,220,32,192,1,31,140,144,202,285,107,39,291,226,52,210,0,102,120,224]",1.2862,-11,3,1,0,0,rectangle,0,119,119,78,1,
,,,,,,,,,,,,,FF,,,,,,,,7.5837,,,,,,,,,,,,,,,,,,,,,,60e03b0a759b4850df25f739,60e57d40bffb5052504da600,2021-07-07_13h25.40.389,Simcolourproject_2stim_asymm_v5,2020.2.10,Win32,60,60e52e7cfedb1dae636df45f,,,,,,,,,1868,83,-117,1,0,0,response3disk,,4,12,-16,1,0,0,rectangle,12,-16,1,0,0,,,,,,,12,-16,1,0,0,,0,120,120,82,1,
,,,,,,,,,,,,,FF,,,,,,,,2.7332,,,,,,,,,,,,,,,,,,,,,,60e03b0a759b4850df25f739,60e57d40bffb5052504da600,2021-07-07_13h25.40.389,Simcolourproject_2stim_asymm_v5,2020.2.10,Win32,60,60e52e7cfedb1dae636df45f,,,,,,,,,4141,-72,-93,1,0,0,response5disk,,3,-5,-4,1,0,0,rectangle,-5,-4,1,0,0,,,,,,,-5,-4,1,0,0,,0,121,121,11,1,
,,,,,,,,,,,,,FF,,,,,,,,0.7198,,,,,,,,,,,,,,,,,,,,,,60e03b0a759b4850df25f739,60e57d40bffb5052504da600,2021-07-07_13h25.40.389,Simcolourproject_2stim_asymm_v5,2020.2.10,Win32,60,60e52e7cfedb1dae636df45f,,,,,,,,,27,134,57,1,0,0,response1disk,,6,14,-1,1,0,0,rectangle,14,-1,1,0,0,,,,,,,14,-1,1,0,0,,0,122,122,148,1,
,,,,,,,,,,,,,FF,,,,,,,,0.8868,,,,,,,,,,,,,,,,,,,,,,60e03b0a759b4850df25f739,60e57d40bffb5052504da600,2021-07-07_13h25.40.389,Simcolourproject_2stim_asymm_v5,2020.2.10,Win32,60,60e52e7cfedb1dae636df45f,,,,,,,,,2615,-55,-131,1,0,0,response5disk,,3,-14,7,1,0,0,rectangle,-14,7,1,0,0,,,,,,,-14,7,1,0,0,,0,123,123,41,1,
,,,,,,,,,,,,,FF,,,,,,,,2.4169,,,,,,,,,,,,,,,,,,,,,,60e03b0a759b4850df25f739,60e57d40bffb5052504da600,2021-07-07_13h25.40.389,Simcolourproject_2stim_asymm_v5,2020.2.10,Win32,60,60e52e7cfedb1dae636df45f,,,,,,,,,323,72,123,1,0,0,response1disk,,7,24,17,1,0,0,rectangle,24,17,1,0,0,,,,,,,24,17,1,0,0,,0,124,124,23,1,
,,,,,,,,,,,,,FF,,,,,,,,0.7698,,,,,,,,,,,,,,,,,,,,,,60e03b0a759b4850df25f739,60e57d40bffb5052504da600,2021-07-07_13h25.40.389,Simcolourproject_2stim_asymm_v5,2020.2.10,Win32,60,60e52e7cfedb1dae636df45f,,,,,,,,,4232,130,57,1,0,0,response1disk,,6,20,-6,1,0,0,rectangle,20,-6,1,0,0,,,,,,,20,-6,1,0,0,,0,125,125,53,1,
,,,,,,,,,,,,,FF,,,,,,,,0.9497,,,,,,,,,,,,,,,,,,,,,,60e03b0a759b4850df25f739,60e57d40bffb5052504da600,2021-07-07_13h25.40.389,Simcolourproject_2stim_asymm_v5,2020.2.10,Win32,60,60e52e7cfedb1dae636df45f,,,,,,,,,1249,65,91,1,0,0,response1disk,,7,1,3,1,0,0,rectangle,1,3,1,0,0,,,,,,,1,3,1,0,0,,0,126,126,124,1,
,,,,,,,,,,,,,FF,,,,,,,,0.8001,,,,,,,,,,,,,,,,,,,,,,60e03b0a759b4850df25f739,60e57d40bffb5052504da600,2021-07-07_13h25.40.389,Simcolourproject_2stim_asymm_v5,2020.2.10,Win32,60,60e52e7cfedb1dae636df45f,,,,,,,,,4213,60,88,1,0,0,response1disk,,7,0,-12,1,0,0,rectangle,0,-12,1,0,0,,,,,,,0,-12,1,0,0,,0,127,127,158,1,
,,,,,,,,,,,,,FF,,,,,,,,1.2333,,,,,,,,,,,,,,,,,,,,,,60e03b0a759b4850df25f739,60e57d40bffb5052504da600,2021-07-07_13h25.40.389,Simcolourproject_2stim_asymm_v5,2020.2.10,Win32,60,60e52e7cfedb1dae636df45f,,,,,,,,,1962,96,-143,1,0,0,response3disk,,4,-14,-9,1,0,0,rectangle,-14,-9,1,0,0,,,,,,,-14,-9,1,0,0,,0,128,128,77,1,
,,,,,,,,,,,,,FF,,,,,,,,0.8333,,,,,,,,,,,,,,,,,,,,,,60e03b0a759b4850df25f739,60e57d40bffb5052504da600,2021-07-07_13h25.40.389,Simcolourproject_2stim_asymm_v5,2020.2.10,Win32,60,60e52e7cfedb1dae636df45f,,,,,,,,,3630,-47,91,1,0,0,response7disk,,0,-12,-9,1,0,0,rectangle,-12,-9,1,0,0,,,,,,,-12,-9,1,0,0,,0,129,129,50,1,
,,,,,,,,,,,,,FF,,,,,,,,1.5834,,,,,,,,,,,,,,,,,,,,,,60e03b0a759b4850df25f739,60e57d40bffb5052504da600,2021-07-07_13h25.40.389,Simcolourproject_2stim_asymm_v5,2020.2.10,Win32,60,60e52e7cfedb1dae636df45f,,,,,,,,,2157,115,-83,1,0,0,response3disk,,5,-2,6,1,0,0,rectangle,-2,6,1,0,0,,,,,,,-2,6,1,0,0,,0,130,130,102,1,
,,,,,,,,,,,,,FF,,,,,,,,0.9502,,,,,,,,,,,,,,,,,,,,,,60e03b0a759b4850df25f739,60e57d40bffb5052504da600,2021-07-07_13h25.40.389,Simcolourproject_2stim_asymm_v5,2020.2.10,Win32,60,60e52e7cfedb1dae636df45f,,,,,,,,,613,-31,-118,1,0,0,response5disk,,3,-19,13,1,0,0,rectangle,-19,13,1,0,0,,,,,,,-19,13,1,0,0,,0,131,131,43,1,
,,,,,,,,,,,,,FF,,,,,,,,1.6169,,,,,,,,,,,,,,,,,,,,,,60e03b0a759b4850df25f739,60e57d40bffb5052504da600,2021-07-07_13h25.40.389,Simcolourproject_2stim_asymm_v5,2020.2.10,Win32,60,60e52e7cfedb1dae636df45f,,,,,,,,,645,105,-59,1,0,0,response3disk,,5,27,-3,1,0,0,rectangle,27,-3,1,0,0,,,,,,,27,-3,1,0,0,,0,132,132,34,1,
,,,,,,,,,,,,,FF,,,,,,,,0.8199,,,,,,,,,,,,,,,,,,,,,,60e03b0a759b4850df25f739,60e57d40bffb5052504da600,2021-07-07_13h25.40.389,Simcolourproject_2stim_asymm_v5,2020.2.10,Win32,60,60e52e7cfedb1dae636df45f,,,,,,,,,3226,62,108,1,0,0,response1disk,,7,1,0,1,0,0,rectangle,1,0,1,0,0,,,,,,,1,0,1,0,0,,0,133,133,101,1,
,,,,,,,,,,,,,FF,,,,,,,,0.7335,,,,,,,,,,,,,,,,,,,,,,60e03b0a759b4850df25f739,60e57d40bffb5052504da600,2021-07-07_13h25.40.389,Simcolourproject_2stim_asymm_v5,2020.2.10,Win32,60,60e52e7cfedb1dae636df45f,,,,,,,,,1250,112,55,1,0,0,response1disk,,6,31,-4,1,0,0,rectangle,31,-4,1,0,0,,,,,,,31,-4,1,0,0,,0,134,134,159,1,
,,,,,,,,,,,,,FF,,,,,,,,1.5703,,,,,,,,,,,,,,,,,,,,,,60e03b0a759b4850df25f739,60e57d40bffb5052504da600,2021-07-07_13h25.40.389,Simcolourproject_2stim_asymm_v5,2020.2.10,Win32,60,60e52e7cfedb1dae636df45f,,,,,,,,,751,112,63,1,0,0,response1disk,,6,34,-13,1,0,0,rectangle,34,-13,1,0,0,,,,,,,34,-13,1,0,0,,0,135,135,143,1,
,,,,,,,,,,,,,FF,,,,,,,,0.7801,,,,,,,,,,,,,,,,,,,,,,60e03b0a759b4850df25f739,60e57d40bffb5052504da600,2021-07-07_13h25.40.389,Simcolourproject_2stim_asymm_v5,2020.2.10,Win32,60,60e52e7cfedb1dae636df45f,,,,,,,,,1991,47,106,1,0,0,response1disk,,7,-8,4,1,0,0,rectangle,-8,4,1,0,0,,,,,,,-8,4,1,0,0,,0,136,136,145,1,
,,,,,,,,,,,,,FF,,,,,,,,1.4167,,,,,,,,,,,,,,,,,,,,,,60e03b0a759b4850df25f739,60e57d40bffb5052504da600,2021-07-07_13h25.40.389,Simcolourproject_2stim_asymm_v5,2020.2.10,Win32,60,60e52e7cfedb1dae636df45f,,,,,,,,,275,101,-83,1,0,0,response3disk,,5,-8,-10,1,0,0,rectangle,-8,-10,1,0,0,,,,,,,-8,-10,1,0,0,,0,137,137,136,1,
,,,,,,,,,,,,,FF,,,,,,,,1.0862,,,,,,,,,,,,,,,,,,,,,,60e03b0a759b4850df25f739,60e57d40bffb5052504da600,2021-07-07_13h25.40.389,Simcolourproject_2stim_asymm_v5,2020.2.10,Win32,60,60e52e7cfedb1dae636df45f,,,,,,,,,222,102,67,1,0,0,response1disk,,6,23,-16,1,0,0,rectangle,23,-16,1,0,0,,,,,,,23,-16,1,0,0,,0,138,138,156,1,
,,,,,,,,,,,,,FF,,,,,,,,0.75,,,,,,,,,,,,,,,,,,,,,,60e03b0a759b4850df25f739,60e57d40bffb5052504da600,2021-07-07_13h25.40.389,Simcolourproject_2stim_asymm_v5,2020.2.10,Win32,60,60e52e7cfedb1dae636df45f,,,,,,,,,2151,54,94,1,0,0,response1disk,,7,-14,-1,1,0,0,rectangle,-45,-126,1,0,0,response5disk_3,TRUE,3,3,"[78,220,32,192,1,31,140,144,202,285,107,39,291,226,52,210,0,102,120,224]",1.3697,5,12,1,0,0,rectangle,0,139,139,56,1,
,,,,,,,,,,,,,FF,,,,,,,,2.9166,,,,,,,,,,,,,,,,,,,,,,60e03b0a759b4850df25f739,60e57d40bffb5052504da600,2021-07-07_13h25.40.389,Simcolourproject_2stim_asymm_v5,2020.2.10,Win32,60,60e52e7cfedb1dae636df45f,,,,,,,,,1535,113,-63,1,0,0,response3disk,,5,20,-9,1,0,0,rectangle,20,-9,1,0,0,,,,,,,20,-9,1,0,0,,0,140,140,62,1,
,,,,,,,,,,,,,FF,,,,,,,,0.7143,,,,,,,,,,,,,,,,,,,,,,60e03b0a759b4850df25f739,60e57d40bffb5052504da600,2021-07-07_13h25.40.389,Simcolourproject_2stim_asymm_v5,2020.2.10,Win32,60,60e52e7cfedb1dae636df45f,,,,,,,,,1719,31,82,1,0,0,response1disk,,7,-43,7,1,0,0,rectangle,-43,7,1,0,0,,,,,,,-43,7,1,0,0,,0,141,141,140,1,
,,,,,,,,,,,,,FF,,,,,,,,0.5663,,,,,,,,,,,,,,,,,,,,,,60e03b0a759b4850df25f739,60e57d40bffb5052504da600,2021-07-07_13h25.40.389,Simcolourproject_2stim_asymm_v5,2020.2.10,Win32,60,60e52e7cfedb1dae636df45f,,,,,,,,,3649,106,39,1,0,0,response1disk,,6,13,0,1,0,0,rectangle,13,0,1,0,0,,,,,,,13,0,1,0,0,,0,142,142,121,1,
,,,,,,,,,,,,,FF,,,,,,,,0.9366,,,,,,,,,,,,,,,,,,,,,,60e03b0a759b4850df25f739,60e57d40bffb5052504da600,2021-07-07_13h25.40.389,Simcolourproject_2stim_asymm_v5,2020.2.10,Win32,60,60e52e7cfedb1dae636df45f,,,,,,,,,2362,51,-120,1,0,0,response3disk,,4,-7,20,1,0,0,rectangle,-48,135,1,0,0,response7disk_3,TRUE,0,0,"[78,220,32,192,1,31,140,144,202,285,107,39,291,226,52,210,0,102,120,224]",1.7666,1,8,1,0,0,rectangle,0,143,143,28,1,
,,,,,,,,,,,,,FF,,,,,,,,1.0031,,,,,,,,,,,,,,,,,,,,,,60e03b0a759b4850df25f739,60e57d40bffb5052504da600,2021-07-07_13h25.40.389,Simcolourproject_2stim_asymm_v5,2020.2.10,Win32,60,60e52e7cfedb1dae636df45f,,,,,,,,,1299,120,-55,1,0,0,response3disk,,5,13,-4,1,0,0,rectangle,13,-4,1,0,0,,,,,,,13,-4,1,0,0,,0,144,144,22,1,
,,,,,,,,,,,,,FF,,,,,,,,0.6368,,,,,,,,,,,,,,,,,,,,,,60e03b0a759b4850df25f739,60e57d40bffb5052504da600,2021-07-07_13h25.40.389,Simcolourproject_2stim_asymm_v5,2020.2.10,Win32,60,60e52e7cfedb1dae636df45f,,,,,,,,,468,66,-91,1,0,0,response3disk,,4,6,-4,1,0,0,rectangle,6,-4,1,0,0,,,,,,,6,-4,1,0,0,,0,145,145,74,1,
,,,,,,,,,,,,,FF,,,,,,,,0.9365,,,,,,,,,,,,,,,,,,,,,,60e03b0a759b4850df25f739,60e57d40bffb5052504da600,2021-07-07_13h25.40.389,Simcolourproject_2stim_asymm_v5,2020.2.10,Win32,60,60e52e7cfedb1dae636df45f,,,,,,,,,2821,94,54,1,0,0,response1disk,,6,-24,5,1,0,0,rectangle,-24,5,1,0,0,,,,,,,-24,5,1,0,0,,0,146,146,66,1,
,,,,,,,,,,,,,FF,,,,,,,,0.5333,,,,,,,,,,,,,,,,,,,,,,60e03b0a759b4850df25f739,60e57d40bffb5052504da600,2021-07-07_13h25.40.389,Simcolourproject_2stim_asymm_v5,2020.2.10,Win32,60,60e52e7cfedb1dae636df45f,,,,,,,,,69,44,95,1,0,0,response1disk,,7,-20,17,1,0,0,rectangle,-20,17,1,0,0,,,,,,,-20,17,1,0,0,,0,147,147,68,1,
,,,,,,,,,,,,,FF,,,,,,,,0.953,,,,,,,,,,,,,,,,,,,,,,60e03b0a759b4850df25f739,60e57d40bffb5052504da600,2021-07-07_13h25.40.389,Simcolourproject_2stim_asymm_v5,2020.2.10,Win32,60,60e52e7cfedb1dae636df45f,,,,,,,,,3166,82,126,1,0,0,response1disk,,7,4,-20,1,0,0,rectangle,4,-20,1,0,0,,,,,,,4,-20,1,0,0,,0,148,148,152,1,
,,,,,,,,,,,,,FF,,,,,,,,0.4502,,,,,,,,,,,,,,,,,,,,,,60e03b0a759b4850df25f739,60e57d40bffb5052504da600,2021-07-07_13h25.40.389,Simcolourproject_2stim_asymm_v5,2020.2.10,Win32,60,60e52e7cfedb1dae636df45f,,,,,,,,,2192,43,106,1,0,0,response1disk,,7,-4,-11,1,0,0,rectangle,-4,-11,1,0,0,,,,,,,-4,-11,1,0,0,,0,149,149,91,1,
,,,,,,,,,,,,,FF,,,,,,,,1.0373,,,,,,,,,,,,,,,,,,,,,,60e03b0a759b4850df25f739,60e57d40bffb5052504da600,2021-07-07_13h25.40.389,Simcolourproject_2stim_asymm_v5,2020.2.10,Win32,60,60e52e7cfedb1dae636df45f,,,,,,,,,284,-33,-133,1,0,0,response5disk,,3,-24,-11,1,0,0,rectangle,-24,-11,1,0,0,,,,,,,-24,-11,1,0,0,,0,150,150,135,1,
,,,,,,,,,,,,,FF,,,,,,,,1.1335,,,,,,,,,,,,,,,,,,,,,,60e03b0a759b4850df25f739,60e57d40bffb5052504da600,2021-07-07_13h25.40.389,Simcolourproject_2stim_asymm_v5,2020.2.10,Win32,60,60e52e7cfedb1dae636df45f,,,,,,,,,388,117,-52,1,0,0,response3disk,,5,16,-3,1,0,0,rectangle,16,-3,1,0,0,,,,,,,16,-3,1,0,0,,0,151,151,67,1,
,,,,,,,,,,,,,FF,,,,,,,,1.2501,,,,,,,,,,,,,,,,,,,,,,60e03b0a759b4850df25f739,60e57d40bffb5052504da600,2021-07-07_13h25.40.389,Simcolourproject_2stim_asymm_v5,2020.2.10,Win32,60,60e52e7cfedb1dae636df45f,,,,,,,,,480,107,27,1,0,0,response1disk,,6,3,11,1,0,0,rectangle,3,11,1,0,0,,,,,,,3,11,1,0,0,,0,152,152,129,1,
,,,,,,,,,,,,,FF,,,,,,,,1.5665,,,,,,,,,,,,,,,,,,,,,,60e03b0a759b4850df25f739,60e57d40bffb5052504da600,2021-07-07_13h25.40.389,Simcolourproject_2stim_asymm_v5,2020.2.10,Win32,60,60e52e7cfedb1dae636df45f,,,,,,,,,3070,64,76,1,0,0,response1disk,,7,0,-9,1,0,0,rectangle,0,-9,1,0,0,,,,,,,0,-9,1,0,0,,0,153,153,149,1,
,,,,,,,,,,,,,FF,,,,,,,,0.953,,,,,,,,,,,,,,,,,,,,,,60e03b0a759b4850df25f739,60e57d40bffb5052504da600,2021-07-07_13h25.40.389,Simcolourproject_2stim_asymm_v5,2020.2.10,Win32,60,60e52e7cfedb1dae636df45f,,,,,,,,,1327,56,96,1,0,0,response1disk,,7,-14,19,1,0,0,rectangle,-14,19,1,0,0,,,,,,,-14,19,1,0,0,,0,154,154,31,1,
,,,,,,,,,,,,,FF,,,,,,,,0.8696,,,,,,,,,,,,,,,,,,,,,,60e03b0a759b4850df25f739,60e57d40bffb5052504da600,2021-07-07_13h25.40.389,Simcolourproject_2stim_asymm_v5,2020.2.10,Win32,60,60e52e7cfedb1dae636df45f,,,,,,,,,1368,-58,98,1,0,0,response7disk,,0,-18,-5,1,0,0,rectangle,-18,-5,1,0,0,,,,,,,-18,-5,1,0,0,,0,155,155,97,1,
,,,,,,,,,,,,,FF,,,,,,,,0.8529,,,,,,,,,,,,,,,,,,,,,,60e03b0a759b4850df25f739,60e57d40bffb5052504da600,2021-07-07_13h25.40.389,Simcolourproject_2stim_asymm_v5,2020.2.10,Win32,60,60e52e7cfedb1dae636df45f,,,,,,,,,830,116,-59,1,0,0,response3disk,,5,24,12,1,0,0,rectangle,24,12,1,0,0,,,,,,,24,12,1,0,0,,0,156,156,133,1,
,,,,,,,,,,,,,FF,,,,,,,,2.2138,,,,,,,,,,,,,,,,,,,,,,60e03b0a759b4850df25f739,60e57d40bffb5052504da600,2021-07-07_13h25.40.389,Simcolourproject_2stim_asymm_v5,2020.2.10,Win32,60,60e52e7cfedb1dae636df45f,,,,,,,,,1507,97,61,1,0,0,response1disk,,6,1,11,1,0,0,rectangle,1,11,1,0,0,,,,,,,1,11,1,0,0,,0,157,157,19,1,
,,,,,,,,,,,,,FF,,,,,,,,0.8168,,,,,,,,,,,,,,,,,,,,,,60e03b0a759b4850df25f739,60e57d40bffb5052504da600,2021-07-07_13h25.40.389,Simcolourproject_2stim_asymm_v5,2020.2.10,Win32,60,60e52e7cfedb1dae636df45f,,,,,,,,,1025,123,-71,1,0,0,response3disk,,5,12,5,1,0,0,rectangle,12,5,1,0,0,,,,,,,12,5,1,0,0,,0,158,158,80,1,
,,,,,,,,,,,,,FF,,,,,,,,0.7667,,,,,,,,,,,,,,,,,,,,,,60e03b0a759b4850df25f739,60e57d40bffb5052504da600,2021-07-07_13h25.40.389,Simcolourproject_2stim_asymm_v5,2020.2.10,Win32,60,60e52e7cfedb1dae636df45f,,,,,,,,,2983,46,91,1,0,0,response1disk,,7,-32,9,1,0,0,rectangle,-32,9,1,0,0,,,,,,,-32,9,1,0,0,,0,159,159,37,1,
,,,,,,,,,,,,,FF,,,,,,,,0.6667,,,,,,,,,,,,,,,,,,,,,,60e03b0a759b4850df25f739,60e57d40bffb5052504da600,2021-07-07_13h25.40.389,Simcolourproject_2stim_asymm_v5,2020.2.10,Win32,60,60e52e7cfedb1dae636df45f,,,,,,,,,79,-56,95,1,0,0,response7disk,,0,-18,-2,1,0,0,rectangle,-18,-2,1,0,0,,,,,,,-18,-2,1,0,0,,1,0,160,89,1,
,,,,,,,,,,,,,FF,,,,,,,,1.4183,,,,,,,,,,,,,,,,,,,,,,60e03b0a759b4850df25f739,60e57d40bffb5052504da600,2021-07-07_13h25.40.389,Simcolourproject_2stim_asymm_v5,2020.2.10,Win32,60,60e52e7cfedb1dae636df45f,,,,,,,,,1746,-39,-132,1,0,0,response5disk,,3,12,-4,1,0,0,rectangle,12,-4,1,0,0,,,,,,,12,-4,1,0,0,,1,1,161,59,1,
,,,,,,,,,,,,,FF,,,,,,,,1.2362,,,,,,,,,,,,,,,,,,,,,,60e03b0a759b4850df25f739,60e57d40bffb5052504da600,2021-07-07_13h25.40.389,Simcolourproject_2stim_asymm_v5,2020.2.10,Win32,60,60e52e7cfedb1dae636df45f,,,,,,,,,1198,127,44,1,0,0,response1disk,,6,12,13,1,0,0,rectangle,12,13,1,0,0,,,,,,,12,13,1,0,0,,1,2,162,77,1,
,,,,,,,,,,,,,FF,,,,,,,,0.7336,,,,,,,,,,,,,,,,,,,,,,60e03b0a759b4850df25f739,60e57d40bffb5052504da600,2021-07-07_13h25.40.389,Simcolourproject_2stim_asymm_v5,2020.2.10,Win32,60,60e52e7cfedb1dae636df45f,,,,,,,,,1254,55,61,1,0,0,response1disk,,7,26,-10,1,0,0,rectangle,26,-10,1,0,0,,,,,,,26,-10,1,0,0,,1,3,163,104,1,
,,,,,,,,,,,,,FF,,,,,,,,0.7526,,,,,,,,,,,,,,,,,,,,,,60e03b0a759b4850df25f739,60e57d40bffb5052504da600,2021-07-07_13h25.40.389,Simcolourproject_2stim_asymm_v5,2020.2.10,Win32,60,60e52e7cfedb1dae636df45f,,,,,,,,,465,122,49,1,0,0,response1disk,,6,35,-8,1,0,0,rectangle,35,-8,1,0,0,,,,,,,35,-8,1,0,0,,1,4,164,60,1,
,,,,,,,,,,,,,FF,,,,,,,,0.65,,,,,,,,,,,,,,,,,,,,,,60e03b0a759b4850df25f739,60e57d40bffb5052504da600,2021-07-07_13h25.40.389,Simcolourproject_2stim_asymm_v5,2020.2.10,Win32,60,60e52e7cfedb1dae636df45f,,,,,,,,,1915,119,43,1,0,0,response1disk,,6,13,1,1,0,0,rectangle,13,1,1,0,0,,,,,,,13,1,1,0,0,,1,5,165,118,1,
,,,,,,,,,,,,,FF,,,,,,,,1.4333,,,,,,,,,,,,,,,,,,,,,,60e03b0a759b4850df25f739,60e57d40bffb5052504da600,2021-07-07_13h25.40.389,Simcolourproject_2stim_asymm_v5,2020.2.10,Win32,60,60e52e7cfedb1dae636df45f,,,,,,,,,3606,35,117,1,0,0,response1disk,,7,-5,-1,1,0,0,rectangle,-5,-1,1,0,0,,,,,,,-5,-1,1,0,0,,1,6,166,144,1,
,,,,,,,,,,,,,FF,,,,,,,,0.6497,,,,,,,,,,,,,,,,,,,,,,60e03b0a759b4850df25f739,60e57d40bffb5052504da600,2021-07-07_13h25.40.389,Simcolourproject_2stim_asymm_v5,2020.2.10,Win32,60,60e52e7cfedb1dae636df45f,,,,,,,,,3527,62,89,1,0,0,response1disk,,7,-9,-1,1,0,0,rectangle,-9,-1,1,0,0,,,,,,,-9,-1,1,0,0,,1,7,167,90,1,
,,,,,,,,,,,,,FF,,,,,,,,1.2999,,,,,,,,,,,,,,,,,,,,,,60e03b0a759b4850df25f739,60e57d40bffb5052504da600,2021-07-07_13h25.40.389,Simcolourproject_2stim_asymm_v5,2020.2.10,Win32,60,60e52e7cfedb1dae636df45f,,,,,,,,,201,66,-151,1,0,0,response3disk,,4,-21,-10,1,0,0,rectangle,-21,-10,1,0,0,,,,,,,-21,-10,1,0,0,,1,8,168,98,1,
,,,,,,,,,,,,,FF,,,,,,,,0.6365,,,,,,,,,,,,,,,,,,,,,,60e03b0a759b4850df25f739,60e57d40bffb5052504da600,2021-07-07_13h25.40.389,Simcolourproject_2stim_asymm_v5,2020.2.10,Win32,60,60e52e7cfedb1dae636df45f,,,,,,,,,835,68,92,1,0,0,response1disk,,7,-7,10,1,0,0,rectangle,-7,10,1,0,0,,,,,,,-7,10,1,0,0,,1,9,169,139,1,
,,,,,,,,,,,,,FF,,,,,,,,2,,,,,,,,,,,,,,,,,,,,,,60e03b0a759b4850df25f739,60e57d40bffb5052504da600,2021-07-07_13h25.40.389,Simcolourproject_2stim_asymm_v5,2020.2.10,Win32,60,60e52e7cfedb1dae636df45f,,,,,,,,,1882,119,29,1,0,0,response1disk,,6,-4,-7,1,0,0,rectangle,-4,-7,1,0,0,,,,,,,-4,-7,1,0,0,,1,10,170,52,1,
,,,,,,,,,,,,,FF,,,,,,,,1.0698,,,,,,,,,,,,,,,,,,,,,,60e03b0a759b4850df25f739,60e57d40bffb5052504da600,2021-07-07_13h25.40.389,Simcolourproject_2stim_asymm_v5,2020.2.10,Win32,60,60e52e7cfedb1dae636df45f,,,,,,,,,715,51,-128,1,0,0,response3disk,,4,-45,0,1,0,0,rectangle,-45,0,1,0,0,,,,,,,-45,0,1,0,0,,1,11,171,58,1,
,,,,,,,,,,,,,FF,,,,,,,,2.0666,,,,,,,,,,,,,,,,,,,,,,60e03b0a759b4850df25f739,60e57d40bffb5052504da600,2021-07-07_13h25.40.389,Simcolourproject_2stim_asymm_v5,2020.2.10,Win32,60,60e52e7cfedb1dae636df45f,,,,,,,,,2911,77,119,1,0,0,response1disk,,7,2,13,1,0,0,rectangle,2,13,1,0,0,,,,,,,2,13,1,0,0,,1,12,172,151,1,
,,,,,,,,,,,,,FF,,,,,,,,1.0501,,,,,,,,,,,,,,,,,,,,,,60e03b0a759b4850df25f739,60e57d40bffb5052504da600,2021-07-07_13h25.40.389,Simcolourproject_2stim_asymm_v5,2020.2.10,Win32,60,60e52e7cfedb1dae636df45f,,,,,,,,,2299,-53,-135,1,0,0,response5disk,,3,-4,-15,1,0,0,rectangle,-4,-15,1,0,0,,,,,,,-4,-15,1,0,0,,1,13,173,33,1,
,,,,,,,,,,,,,FF,,,,,,,,0.6836,,,,,,,,,,,,,,,,,,,,,,60e03b0a759b4850df25f739,60e57d40bffb5052504da600,2021-07-07_13h25.40.389,Simcolourproject_2stim_asymm_v5,2020.2.10,Win32,60,60e52e7cfedb1dae636df45f,,,,,,,,,87,138,-72,1,0,0,response3disk,,5,21,-1,1,0,0,rectangle,21,-1,1,0,0,,,,,,,21,-1,1,0,0,,1,14,174,115,1,
,,,,,,,,,,,,,FF,,,,,,,,1.1004,,,,,,,,,,,,,,,,,,,,,,60e03b0a759b4850df25f739,60e57d40bffb5052504da600,2021-07-07_13h25.40.389,Simcolourproject_2stim_asymm_v5,2020.2.10,Win32,60,60e52e7cfedb1dae636df45f,,,,,,,,,1081,87,56,1,0,0,response1disk,,6,27,10,1,0,0,rectangle,27,10,1,0,0,,,,,,,27,10,1,0,0,,1,15,175,26,1,
,,,,,,,,,,,,,FF,,,,,,,,4.3972,,,,,,,,,,,,,,,,,,,,,,60e03b0a759b4850df25f739,60e57d40bffb5052504da600,2021-07-07_13h25.40.389,Simcolourproject_2stim_asymm_v5,2020.2.10,Win32,60,60e52e7cfedb1dae636df45f,,,,,,,,,4318,135,-45,1,0,0,response3disk,,5,-38,13,1,0,0,rectangle,-38,13,1,0,0,,,,,,,-38,13,1,0,0,,1,16,176,150,1,
,,,,,,,,,,,,,FF,,,,,,,,1.2031,,,,,,,,,,,,,,,,,,,,,,60e03b0a759b4850df25f739,60e57d40bffb5052504da600,2021-07-07_13h25.40.389,Simcolourproject_2stim_asymm_v5,2020.2.10,Win32,60,60e52e7cfedb1dae636df45f,,,,,,,,,2293,58,-138,1,0,0,response3disk,,4,-2,-1,1,0,0,rectangle,-2,-1,1,0,0,,,,,,,-2,-1,1,0,0,,1,17,177,76,1,
,,,,,,,,,,,,,FF,,,,,,,,1.6834,,,,,,,,,,,,,,,,,,,,,,60e03b0a759b4850df25f739,60e57d40bffb5052504da600,2021-07-07_13h25.40.389,Simcolourproject_2stim_asymm_v5,2020.2.10,Win32,60,60e52e7cfedb1dae636df45f,,,,,,,,,3422,127,-70,1,0,0,response3disk,,5,-4,-4,1,0,0,rectangle,-4,-4,1,0,0,,,,,,,-4,-4,1,0,0,,1,18,178,117,1,
,,,,,,,,,,,,,FF,,,,,,,,0.7865,,,,,,,,,,,,,,,,,,,,,,60e03b0a759b4850df25f739,60e57d40bffb5052504da600,2021-07-07_13h25.40.389,Simcolourproject_2stim_asymm_v5,2020.2.10,Win32,60,60e52e7cfedb1dae636df45f,,,,,,,,,1812,42,-110,1,0,0,response3disk,,4,-15,-7,1,0,0,rectangle,-15,-7,1,0,0,,,,,,,-15,-7,1,0,0,,1,19,179,143,1,
,,,,,,,,,,,,,FF,,,,,,,,0.8035,,,,,,,,,,,,,,,,,,,,,,60e03b0a759b4850df25f739,60e57d40bffb5052504da600,2021-07-07_13h25.40.389,Simcolourproject_2stim_asymm_v5,2020.2.10,Win32,60,60e52e7cfedb1dae636df45f,,,,,,,,,3711,54,-108,1,0,0,response3disk,,4,-12,15,1,0,0,rectangle,-12,15,1,0,0,,,,,,,-12,15,1,0,0,,1,20,180,43,1,
,,,,,,,,,,,,,FF,,,,,,,,0.8699,,,,,,,,,,,,,,,,,,,,,,60e03b0a759b4850df25f739,60e57d40bffb5052504da600,2021-07-07_13h25.40.389,Simcolourproject_2stim_asymm_v5,2020.2.10,Win32,60,60e52e7cfedb1dae636df45f,,,,,,,,,1702,45,117,1,0,0,response1disk,,7,-6,8,1,0,0,rectangle,-6,8,1,0,0,,,,,,,-6,8,1,0,0,,1,21,181,86,1,
,,,,,,,,,,,,,FF,,,,,,,,29.4828,,,,,,,,,,,,,,,,,,,,,,60e03b0a759b4850df25f739,60e57d40bffb5052504da600,2021-07-07_13h25.40.389,Simcolourproject_2stim_asymm_v5,2020.2.10,Win32,60,60e52e7cfedb1dae636df45f,,,,,,,,,3778,118,-60,1,0,0,response3disk,,5,2,-2,1,0,0,rectangle,2,-2,1,0,0,,,,,,,2,-2,1,0,0,,1,22,182,63,1,
,,,,,,,,,,,,,FF,,,,,,,,0.8032,,,,,,,,,,,,,,,,,,,,,,60e03b0a759b4850df25f739,60e57d40bffb5052504da600,2021-07-07_13h25.40.389,Simcolourproject_2stim_asymm_v5,2020.2.10,Win32,60,60e52e7cfedb1dae636df45f,,,,,,,,,3045,-72,103,1,0,0,response7disk,,0,-40,14,1,0,0,rectangle,-40,14,1,0,0,,,,,,,-40,14,1,0,0,,1,23,183,145,1,
,,,,,,,,,,,,,FF,,,,,,,,0.817,,,,,,,,,,,,,,,,,,,,,,60e03b0a759b4850df25f739,60e57d40bffb5052504da600,2021-07-07_13h25.40.389,Simcolourproject_2stim_asymm_v5,2020.2.10,Win32,60,60e52e7cfedb1dae636df45f,,,,,,,,,4243,62,-114,1,0,0,response3disk,,4,-5,5,1,0,0,rectangle,-5,5,1,0,0,,,,,,,-5,5,1,0,0,,1,24,184,125,1,
,,,,,,,,,,,,,FF,,,,,,,,1.1531,,,,,,,,,,,,,,,,,,,,,,60e03b0a759b4850df25f739,60e57d40bffb5052504da600,2021-07-07_13h25.40.389,Simcolourproject_2stim_asymm_v5,2020.2.10,Win32,60,60e52e7cfedb1dae636df45f,,,,,,,,,2341,55,-101,1,0,0,response3disk,,4,7,-2,1,0,0,rectangle,7,-2,1,0,0,,,,,,,7,-2,1,0,0,,1,25,185,16,1,
,,,,,,,,,,,,,FF,,,,,,,,1.6667,,,,,,,,,,,,,,,,,,,,,,60e03b0a759b4850df25f739,60e57d40bffb5052504da600,2021-07-07_13h25.40.389,Simcolourproject_2stim_asymm_v5,2020.2.10,Win32,60,60e52e7cfedb1dae636df45f,,,,,,,,,535,91,-51,1,0,0,response3disk,,5,19,-4,1,0,0,rectangle,19,-4,1,0,0,,,,,,,19,-4,1,0,0,,1,26,186,56,1,
,,,,,,,,,,,,,FF,,,,,,,,2.0003,,,,,,,,,,,,,,,,,,,,,,60e03b0a759b4850df25f739,60e57d40bffb5052504da600,2021-07-07_13h25.40.389,Simcolourproject_2stim_asymm_v5,2020.2.10,Win32,60,60e52e7cfedb1dae636df45f,,,,,,,,,2738,105,56,1,0,0,response1disk,,6,-8,3,1,0,0,rectangle,-8,3,1,0,0,,,,,,,-8,3,1,0,0,,1,27,187,107,1,
,,,,,,,,,,,,,FF,,,,,,,,1.3169,,,,,,,,,,,,,,,,,,,,,,60e03b0a759b4850df25f739,60e57d40bffb5052504da600,2021-07-07_13h25.40.389,Simcolourproject_2stim_asymm_v5,2020.2.10,Win32,60,60e52e7cfedb1dae636df45f,,,,,,,,,1711,104,67,1,0,0,response1disk,,6,19,-13,1,0,0,rectangle,19,-13,1,0,0,,,,,,,19,-13,1,0,0,,1,28,188,27,1,
,,,,,,,,,,,,,FF,,,,,,,,1.2478,,,,,,,,,,,,,,,,,,,,,,60e03b0a759b4850df25f739,60e57d40bffb5052504da600,2021-07-07_13h25.40.389,Simcolourproject_2stim_asymm_v5,2020.2.10,Win32,60,60e52e7cfedb1dae636df45f,,,,,,,,,1432,117,-70,1,0,0,response3disk,,5,-3,-4,1,0,0,rectangle,-3,-4,1,0,0,,,,,,,-3,-4,1,0,0,,1,29,189,142,1,
,,,,,,,,,,,,,FF,,,,,,,,1.0866,,,,,,,,,,,,,,,,,,,,,,60e03b0a759b4850df25f739,60e57d40bffb5052504da600,2021-07-07_13h25.40.389,Simcolourproject_2stim_asymm_v5,2020.2.10,Win32,60,60e52e7cfedb1dae636df45f,,,,,,,,,3924,99,-55,1,0,0,response3disk,,5,18,-3,1,0,0,rectangle,18,-3,1,0,0,,,,,,,18,-3,1,0,0,,1,30,190,74,1,
,,,,,,,,,,,,,FF,,,,,,,,1.2,,,,,,,,,,,,,,,,,,,,,,60e03b0a759b4850df25f739,60e57d40bffb5052504da600,2021-07-07_13h25.40.389,Simcolourproject_2stim_asymm_v5,2020.2.10,Win32,60,60e52e7cfedb1dae636df45f,,,,,,,,,1572,100,48,1,0,0,response1disk,,6,21,-6,1,0,0,rectangle,79,-137,1,0,0,response3disk_3,TRUE,4,4,"[78,220,32,192,1,31,140,144,202,285,107,39,291,226,52,210,0,102,120,224]",1.5007,20,16,1,0,0,rectangle,1,31,191,21,1,
,,,,,,,,,,,,,FF,,,,,,,,3.0703,,,,,,,,,,,,,,,,,,,,,,60e03b0a759b4850df25f739,60e57d40bffb5052504da600,2021-07-07_13h25.40.389,Simcolourproject_2stim_asymm_v5,2020.2.10,Win32,60,60e52e7cfedb1dae636df45f,,,,,,,,,22,99,-69,1,0,0,response3disk,,5,-14,5,1,0,0,rectangle,-14,5,1,0,0,,,,,,,-14,5,1,0,0,,1,32,192,128,1,
,,,,,,,,,,,,,FF,,,,,,,,0.9806,,,,,,,,,,,,,,,,,,,,,,60e03b0a759b4850df25f739,60e57d40bffb5052504da600,2021-07-07_13h25.40.389,Simcolourproject_2stim_asymm_v5,2020.2.10,Win32,60,60e52e7cfedb1dae636df45f,,,,,,,,,3186,43,129,1,0,0,response1disk,,7,-20,21,1,0,0,rectangle,-20,21,1,0,0,,,,,,,-20,21,1,0,0,,1,33,193,71,1,
,,,,,,,,,,,,,FF,,,,,,,,0.82,,,,,,,,,,,,,,,,,,,,,,60e03b0a759b4850df25f739,60e57d40bffb5052504da600,2021-07-07_13h25.40.389,Simcolourproject_2stim_asymm_v5,2020.2.10,Win32,60,60e52e7cfedb1dae636df45f,,,,,,,,,2355,-41,114,1,0,0,response7disk,,0,7,4,1,0,0,rectangle,7,4,1,0,0,,,,,,,7,4,1,0,0,,1,34,194,79,1,
,,,,,,,,,,,,,FF,,,,,,,,0.4304,,,,,,,,,,,,,,,,,,,,,,60e03b0a759b4850df25f739,60e57d40bffb5052504da600,2021-07-07_13h25.40.389,Simcolourproject_2stim_asymm_v5,2020.2.10,Win32,60,60e52e7cfedb1dae636df45f,,,,,,,,,2093,-43,102,1,0,0,response7disk,,0,0,-1,1,0,0,rectangle,0,-1,1,0,0,,,,,,,0,-1,1,0,0,,1,35,195,153,1,
,,,,,,,,,,,,,FF,,,,,,,,1.6665,,,,,,,,,,,,,,,,,,,,,,60e03b0a759b4850df25f739,60e57d40bffb5052504da600,2021-07-07_13h25.40.389,Simcolourproject_2stim_asymm_v5,2020.2.10,Win32,60,60e52e7cfedb1dae636df45f,,,,,,,,,2437,36,-129,1,0,0,response3disk,,4,-15,8,1,0,0,rectangle,-15,8,1,0,0,,,,,,,-15,8,1,0,0,,1,36,196,97,1,
,,,,,,,,,,,,,FF,,,,,,,,0.753,,,,,,,,,,,,,,,,,,,,,,60e03b0a759b4850df25f739,60e57d40bffb5052504da600,2021-07-07_13h25.40.389,Simcolourproject_2stim_asymm_v5,2020.2.10,Win32,60,60e52e7cfedb1dae636df45f,,,,,,,,,1800,103,-49,1,0,0,response3disk,,5,8,4,1,0,0,rectangle,8,4,1,0,0,,,,,,,8,4,1,0,0,,1,37,197,67,1,
,,,,,,,,,,,,,FF,,,,,,,,0.6845,,,,,,,,,,,,,,,,,,,,,,60e03b0a759b4850df25f739,60e57d40bffb5052504da600,2021-07-07_13h25.40.389,Simcolourproject_2stim_asymm_v5,2020.2.10,Win32,60,60e52e7cfedb1dae636df45f,,,,,,,,,473,108,-63,1,0,0,response3disk,,5,-19,19,1,0,0,rectangle,-19,19,1,0,0,,,,,,,-19,19,1,0,0,,1,38,198,8,1,
,,,,,,,,,,,,,FF,,,,,,,,1.1868,,,,,,,,,,,,,,,,,,,,,,60e03b0a759b4850df25f739,60e57d40bffb5052504da600,2021-07-07_13h25.40.389,Simcolourproject_2stim_asymm_v5,2020.2.10,Win32,60,60e52e7cfedb1dae636df45f,,,,,,,,,346,-44,-114,1,0,0,response5disk,,3,-7,11,1,0,0,rectangle,-7,11,1,0,0,,,,,,,-7,11,1,0,0,,1,39,199,102,1,
,,,,,,,,,,,,,FF,,,,,,,,1.4331,,,,,,,,,,,,,,,,,,,,,,60e03b0a759b4850df25f739,60e57d40bffb5052504da600,2021-07-07_13h25.40.389,Simcolourproject_2stim_asymm_v5,2020.2.10,Win32,60,60e52e7cfedb1dae636df45f,,,,,,,,,1367,62,-112,1,0,0,response3disk,,4,9,9,1,0,0,rectangle,9,9,1,0,0,,,,,,,9,9,1,0,0,,1,40,200,44,1,
,,,,,,,,,,,,,FF,,,,,,,,0.6502,,,,,,,,,,,,,,,,,,,,,,60e03b0a759b4850df25f739,60e57d40bffb5052504da600,2021-07-07_13h25.40.389,Simcolourproject_2stim_asymm_v5,2020.2.10,Win32,60,60e52e7cfedb1dae636df45f,,,,,,,,,1678,103,-39,1,0,0,response3disk,,5,-14,16,1,0,0,rectangle,70,113,1,0,0,response1disk_3,TRUE,7,7,"[78,220,32,192,1,31,140,144,202,285,107,39,291,226,52,210,0,102,120,224]",1.514,-5,3,1,0,0,rectangle,1,41,201,81,1,
,,,,,,,,,,,,,FF,,,,,,,,0.8835,,,,,,,,,,,,,,,,,,,,,,60e03b0a759b4850df25f739,60e57d40bffb5052504da600,2021-07-07_13h25.40.389,Simcolourproject_2stim_asymm_v5,2020.2.10,Win32,60,60e52e7cfedb1dae636df45f,,,,,,,,,1531,109,41,1,0,0,response1disk,,6,7,3,1,0,0,rectangle,7,3,1,0,0,,,,,,,7,3,1,0,0,,1,42,202,158,1,
,,,,,,,,,,,,,FF,,,,,,,,1.0501,,,,,,,,,,,,,,,,,,,,,,60e03b0a759b4850df25f739,60e57d40bffb5052504da600,2021-07-07_13h25.40.389,Simcolourproject_2stim_asymm_v5,2020.2.10,Win32,60,60e52e7cfedb1dae636df45f,,,,,,,,,886,-114,-59,1,0,0,response5disk,,2,14,-5,1,0,0,rectangle,14,-5,1,0,0,,,,,,,14,-5,1,0,0,,1,43,203,38,1,
,,,,,,,,,,,,,FF,,,,,,,,3.4363,,,,,,,,,,,,,,,,,,,,,,60e03b0a759b4850df25f739,60e57d40bffb5052504da600,2021-07-07_13h25.40.389,Simcolourproject_2stim_asymm_v5,2020.2.10,Win32,60,60e52e7cfedb1dae636df45f,,,,,,,,,1129,96,-61,1,0,0,response3disk,,5,1,8,1,0,0,rectangle,1,8,1,0,0,,,,,,,1,8,1,0,0,,1,44,204,57,1,
,,,,,,,,,,,,,FF,,,,,,,,0.6366,,,,,,,,,,,,,,,,,,,,,,60e03b0a759b4850df25f739,60e57d40bffb5052504da600,2021-07-07_13h25.40.389,Simcolourproject_2stim_asymm_v5,2020.2.10,Win32,60,60e52e7cfedb1dae636df45f,,,,,,,,,3574,97,47,1,0,0,response1disk,,6,-41,-2,1,0,0,rectangle,-41,-2,1,0,0,,,,,,,-41,-2,1,0,0,,1,45,205,109,1,
,,,,,,,,,,,,,FF,,,,,,,,1.1204,,,,,,,,,,,,,,,,,,,,,,60e03b0a759b4850df25f739,60e57d40bffb5052504da600,2021-07-07_13h25.40.389,Simcolourproject_2stim_asymm_v5,2020.2.10,Win32,60,60e52e7cfedb1dae636df45f,,,,,,,,,164,-31,-112,1,0,0,response5disk,,3,8,-10,1,0,0,rectangle,8,-10,1,0,0,,,,,,,8,-10,1,0,0,,1,46,206,7,1,
,,,,,,,,,,,,,FF,,,,,,,,1.6865,,,,,,,,,,,,,,,,,,,,,,60e03b0a759b4850df25f739,60e57d40bffb5052504da600,2021-07-07_13h25.40.389,Simcolourproject_2stim_asymm_v5,2020.2.10,Win32,60,60e52e7cfedb1dae636df45f,,,,,,,,,419,114,-80,1,0,0,response3disk,,5,8,7,1,0,0,rectangle,8,7,1,0,0,,,,,,,8,7,1,0,0,,1,47,207,84,1,
,,,,,,,,,,,,,FF,,,,,,,,1.3001,,,,,,,,,,,,,,,,,,,,,,60e03b0a759b4850df25f739,60e57d40bffb5052504da600,2021-07-07_13h25.40.389,Simcolourproject_2stim_asymm_v5,2020.2.10,Win32,60,60e52e7cfedb1dae636df45f,,,,,,,,,4288,110,46,1,0,0,response1disk,,6,10,2,1,0,0,rectangle,10,2,1,0,0,,,,,,,10,2,1,0,0,,1,48,208,51,1,
,,,,,,,,,,,,,FF,,,,,,,,1.7333,,,,,,,,,,,,,,,,,,,,,,60e03b0a759b4850df25f739,60e57d40bffb5052504da600,2021-07-07_13h25.40.389,Simcolourproject_2stim_asymm_v5,2020.2.10,Win32,60,60e52e7cfedb1dae636df45f,,,,,,,,,39,97,-56,1,0,0,response3disk,,5,-5,-16,1,0,0,rectangle,116,-49,1,0,0,response3disk_3,TRUE,5,5,"[78,220,32,192,1,31,140,144,202,285,107,39,291,226,52,210,0,102,120,224]",1.519,30,3,1,0,0,rectangle,1,49,209,18,1,
,,,,,,,,,,,,,FF,,,,,,,,1.85,,,,,,,,,,,,,,,,,,,,,,60e03b0a759b4850df25f739,60e57d40bffb5052504da600,2021-07-07_13h25.40.389,Simcolourproject_2stim_asymm_v5,2020.2.10,Win32,60,60e52e7cfedb1dae636df45f,,,,,,,,,430,-28,-62,1,0,0,response5disk,,3,9,-17,1,0,0,rectangle,9,-17,1,0,0,,,,,,,9,-17,1,0,0,,1,50,210,159,1,
,,,,,,,,,,,,,FF,,,,,,,,2.8167,,,,,,,,,,,,,,,,,,,,,,60e03b0a759b4850df25f739,60e57d40bffb5052504da600,2021-07-07_13h25.40.389,Simcolourproject_2stim_asymm_v5,2020.2.10,Win32,60,60e52e7cfedb1dae636df45f,,,,,,,,,2291,-122,76,1,0,0,response7disk,,1,1,-4,1,0,0,rectangle,1,-4,1,0,0,,,,,,,1,-4,1,0,0,,1,51,211,126,1,
,,,,,,,,,,,,,FF,,,,,,,,1.7169,,,,,,,,,,,,,,,,,,,,,,60e03b0a759b4850df25f739,60e57d40bffb5052504da600,2021-07-07_13h25.40.389,Simcolourproject_2stim_asymm_v5,2020.2.10,Win32,60,60e52e7cfedb1dae636df45f,,,,,,,,,1908,94,-51,1,0,0,response3disk,,5,2,-2,1,0,0,rectangle,2,-2,1,0,0,,,,,,,2,-2,1,0,0,,1,52,212,49,1,
,,,,,,,,,,,,,FF,,,,,,,,0.9001,,,,,,,,,,,,,,,,,,,,,,60e03b0a759b4850df25f739,60e57d40bffb5052504da600,2021-07-07_13h25.40.389,Simcolourproject_2stim_asymm_v5,2020.2.10,Win32,60,60e52e7cfedb1dae636df45f,,,,,,,,,2241,40,-94,1,0,0,response3disk,,4,-39,9,1,0,0,rectangle,-39,9,1,0,0,,,,,,,-39,9,1,0,0,,1,53,213,106,1,
,,,,,,,,,,,,,FF,,,,,,,,1.0668,,,,,,,,,,,,,,,,,,,,,,60e03b0a759b4850df25f739,60e57d40bffb5052504da600,2021-07-07_13h25.40.389,Simcolourproject_2stim_asymm_v5,2020.2.10,Win32,60,60e52e7cfedb1dae636df45f,,,,,,,,,199,111,-72,1,0,0,response3disk,,5,13,-8,1,0,0,rectangle,13,-8,1,0,0,,,,,,,13,-8,1,0,0,,1,54,214,92,1,
,,,,,,,,,,,,,FF,,,,,,,,5.8333,,,,,,,,,,,,,,,,,,,,,,60e03b0a759b4850df25f739,60e57d40bffb5052504da600,2021-07-07_13h25.40.389,Simcolourproject_2stim_asymm_v5,2020.2.10,Win32,60,60e52e7cfedb1dae636df45f,,,,,,,,,815,64,-87,1,0,0,response3disk,,4,8,-11,1,0,0,rectangle,8,-11,1,0,0,,,,,,,8,-11,1,0,0,,1,55,215,154,1,
,,,,,,,,,,,,,FF,,,,,,,,2.6532,,,,,,,,,,,,,,,,,,,,,,60e03b0a759b4850df25f739,60e57d40bffb5052504da600,2021-07-07_13h25.40.389,Simcolourproject_2stim_asymm_v5,2020.2.10,Win32,60,60e52e7cfedb1dae636df45f,,,,,,,,,1721,65,94,1,0,0,response1disk,,7,13,-13,1,0,0,rectangle,13,-13,1,0,0,,,,,,,13,-13,1,0,0,,1,56,216,46,1,
,,,,,,,,,,,,,FF,,,,,,,,1.4668,,,,,,,,,,,,,,,,,,,,,,60e03b0a759b4850df25f739,60e57d40bffb5052504da600,2021-07-07_13h25.40.389,Simcolourproject_2stim_asymm_v5,2020.2.10,Win32,60,60e52e7cfedb1dae636df45f,,,,,,,,,278,-136,-47,1,0,0,response5disk,,2,-20,5,1,0,0,rectangle,-20,5,1,0,0,,,,,,,-20,5,1,0,0,,1,57,217,146,1,
,,,,,,,,,,,,,FF,,,,,,,,0.6669,,,,,,,,,,,,,,,,,,,,,,60e03b0a759b4850df25f739,60e57d40bffb5052504da600,2021-07-07_13h25.40.389,Simcolourproject_2stim_asymm_v5,2020.2.10,Win32,60,60e52e7cfedb1dae636df45f,,,,,,,,,1853,128,-47,1,0,0,response3disk,,5,4,16,1,0,0,rectangle,4,16,1,0,0,,,,,,,4,16,1,0,0,,1,58,218,17,1,
,,,,,,,,,,,,,FF,,,,,,,,1.0203,,,,,,,,,,,,,,,,,,,,,,60e03b0a759b4850df25f739,60e57d40bffb5052504da600,2021-07-07_13h25.40.389,Simcolourproject_2stim_asymm_v5,2020.2.10,Win32,60,60e52e7cfedb1dae636df45f,,,,,,,,,488,83,-121,1,0,0,response3disk,,4,16,-4,1,0,0,rectangle,48,129,1,0,0,response1disk_3,TRUE,7,7,"[78,220,32,192,1,31,140,144,202,285,107,39,291,226,52,210,0,102,120,224]",1.2832,0,2,1,0,0,rectangle,1,59,219,129,1,
,,,,,,,,,,,,,FF,,,,,,,,1.1502,,,,,,,,,,,,,,,,,,,,,,60e03b0a759b4850df25f739,60e57d40bffb5052504da600,2021-07-07_13h25.40.389,Simcolourproject_2stim_asymm_v5,2020.2.10,Win32,60,60e52e7cfedb1dae636df45f,,,,,,,,,106,-41,-114,1,0,0,response5disk,,3,-13,4,1,0,0,rectangle,-13,4,1,0,0,,,,,,,-13,4,1,0,0,,1,60,220,3,1,
,,,,,,,,,,,,,FF,,,,,,,,0.75,,,,,,,,,,,,,,,,,,,,,,60e03b0a759b4850df25f739,60e57d40bffb5052504da600,2021-07-07_13h25.40.389,Simcolourproject_2stim_asymm_v5,2020.2.10,Win32,60,60e52e7cfedb1dae636df45f,,,,,,,,,1931,105,-67,1,0,0,response3disk,,5,26,-7,1,0,0,rectangle,26,-7,1,0,0,,,,,,,26,-7,1,0,0,,1,61,221,50,1,
,,,,,,,,,,,,,FF,,,,,,,,0.9638,,,,,,,,,,,,,,,,,,,,,,60e03b0a759b4850df25f739,60e57d40bffb5052504da600,2021-07-07_13h25.40.389,Simcolourproject_2stim_asymm_v5,2020.2.10,Win32,60,60e52e7cfedb1dae636df45f,,,,,,,,,156,125,-57,1,0,0,response3disk,,5,-8,-2,1,0,0,rectangle,-8,-2,1,0,0,,,,,,,-8,-2,1,0,0,,1,62,222,22,1,
,,,,,,,,,,,,,FF,,,,,,,,1.0036,,,,,,,,,,,,,,,,,,,,,,60e03b0a759b4850df25f739,60e57d40bffb5052504da600,2021-07-07_13h25.40.389,Simcolourproject_2stim_asymm_v5,2020.2.10,Win32,60,60e52e7cfedb1dae636df45f,,,,,,,,,467,62,-113,1,0,0,response3disk,,4,-7,-9,1,0,0,rectangle,120,-53,1,0,0,response3disk_3,TRUE,5,5,"[78,220,32,192,1,31,140,144,202,285,107,39,291,226,52,210,0,102,120,224]",1.351,-8,9,1,0,0,rectangle,1,63,223,25,1,
,,,,,,,,,,,,,FF,,,,,,,,1.9836,,,,,,,,,,,,,,,,,,,,,,60e03b0a759b4850df25f739,60e57d40bffb5052504da600,2021-07-07_13h25.40.389,Simcolourproject_2stim_asymm_v5,2020.2.10,Win32,60,60e52e7cfedb1dae636df45f,,,,,,,,,3974,60,-126,1,0,0,response3disk,,4,-6,19,1,0,0,rectangle,-6,19,1,0,0,,,,,,,-6,19,1,0,0,,1,64,224,80,1,
,,,,,,,,,,,,,FF,,,,,,,,1.3199,,,,,,,,,,,,,,,,,,,,,,60e03b0a759b4850df25f739,60e57d40bffb5052504da600,2021-07-07_13h25.40.389,Simcolourproject_2stim_asymm_v5,2020.2.10,Win32,60,60e52e7cfedb1dae636df45f,,,,,,,,,1379,65,-101,1,0,0,response3disk,,4,-4,3,1,0,0,rectangle,103,55,1,0,0,response1disk_3,TRUE,6,6,"[78,220,32,192,1,31,140,144,202,285,107,39,291,226,52,210,0,102,120,224]",1.6967,3,8,1,0,0,rectangle,1,65,225,1,1,
,,,,,,,,,,,,,FF,,,,,,,,3.9499,,,,,,,,,,,,,,,,,,,,,,60e03b0a759b4850df25f739,60e57d40bffb5052504da600,2021-07-07_13h25.40.389,Simcolourproject_2stim_asymm_v5,2020.2.10,Win32,60,60e52e7cfedb1dae636df45f,,,,,,,,,2360,-81,-119,1,0,0,response5disk,,3,-9,8,1,0,0,rectangle,-9,8,1,0,0,,,,,,,-9,8,1,0,0,,1,66,226,123,1,
,,,,,,,,,,,,,FF,,,,,,,,0.8803,,,,,,,,,,,,,,,,,,,,,,60e03b0a759b4850df25f739,60e57d40bffb5052504da600,2021-07-07_13h25.40.389,Simcolourproject_2stim_asymm_v5,2020.2.10,Win32,60,60e52e7cfedb1dae636df45f,,,,,,,,,1173,109,-52,1,0,0,response3disk,,5,15,17,1,0,0,rectangle,15,17,1,0,0,,,,,,,15,17,1,0,0,,1,67,227,140,1,
,,,,,,,,,,,,,FF,,,,,,,,0.7667,,,,,,,,,,,,,,,,,,,,,,60e03b0a759b4850df25f739,60e57d40bffb5052504da600,2021-07-07_13h25.40.389,Simcolourproject_2stim_asymm_v5,2020.2.10,Win32,60,60e52e7cfedb1dae636df45f,,,,,,,,,1525,74,-132,1,0,0,response3disk,,4,-16,9,1,0,0,rectangle,-16,9,1,0,0,,,,,,,-16,9,1,0,0,,1,68,228,14,1,
,,,,,,,,,,,,,FF,,,,,,,,1.0032,,,,,,,,,,,,,,,,,,,,,,60e03b0a759b4850df25f739,60e57d40bffb5052504da600,2021-07-07_13h25.40.389,Simcolourproject_2stim_asymm_v5,2020.2.10,Win32,60,60e52e7cfedb1dae636df45f,,,,,,,,,3394,67,-113,1,0,0,response3disk,,4,-9,11,1,0,0,rectangle,-9,11,1,0,0,,,,,,,-9,11,1,0,0,,1,69,229,113,1,
,,,,,,,,,,,,,FF,,,,,,,,0.5998,,,,,,,,,,,,,,,,,,,,,,60e03b0a759b4850df25f739,60e57d40bffb5052504da600,2021-07-07_13h25.40.389,Simcolourproject_2stim_asymm_v5,2020.2.10,Win32,60,60e52e7cfedb1dae636df45f,,,,,,,,,1270,126,55,1,0,0,response1disk,,6,1,2,1,0,0,rectangle,1,2,1,0,0,,,,,,,1,2,1,0,0,,1,70,230,20,1,
,,,,,,,,,,,,,FF,,,,,,,,0.6001,,,,,,,,,,,,,,,,,,,,,,60e03b0a759b4850df25f739,60e57d40bffb5052504da600,2021-07-07_13h25.40.389,Simcolourproject_2stim_asymm_v5,2020.2.10,Win32,60,60e52e7cfedb1dae636df45f,,,,,,,,,2588,36,90,1,0,0,response1disk,,7,-2,-2,1,0,0,rectangle,-2,-2,1,0,0,,,,,,,-2,-2,1,0,0,,1,71,231,147,1,
,,,,,,,,,,,,,FF,,,,,,,,2.2835,,,,,,,,,,,,,,,,,,,,,,60e03b0a759b4850df25f739,60e57d40bffb5052504da600,2021-07-07_13h25.40.389,Simcolourproject_2stim_asymm_v5,2020.2.10,Win32,60,60e52e7cfedb1dae636df45f,,,,,,,,,3,56,-119,1,0,0,response3disk,,4,-24,13,1,0,0,rectangle,-24,13,1,0,0,,,,,,,-24,13,1,0,0,,1,72,232,119,1,
,,,,,,,,,,,,,FF,,,,,,,,0.9058,,,,,,,,,,,,,,,,,,,,,,60e03b0a759b4850df25f739,60e57d40bffb5052504da600,2021-07-07_13h25.40.389,Simcolourproject_2stim_asymm_v5,2020.2.10,Win32,60,60e52e7cfedb1dae636df45f,,,,,,,,,3338,44,-138,1,0,0,response3disk,,4,-17,1,1,0,0,rectangle,-17,1,1,0,0,,,,,,,-17,1,1,0,0,,1,73,233,41,1,
,,,,,,,,,,,,,FF,,,,,,,,1.0366,,,,,,,,,,,,,,,,,,,,,,60e03b0a759b4850df25f739,60e57d40bffb5052504da600,2021-07-07_13h25.40.389,Simcolourproject_2stim_asymm_v5,2020.2.10,Win32,60,60e52e7cfedb1dae636df45f,,,,,,,,,303,107,49,1,0,0,response1disk,,6,17,-4,1,0,0,rectangle,17,-4,1,0,0,,,,,,,17,-4,1,0,0,,1,74,234,0,1,
,,,,,,,,,,,,,FF,,,,,,,,1.0033,,,,,,,,,,,,,,,,,,,,,,60e03b0a759b4850df25f739,60e57d40bffb5052504da600,2021-07-07_13h25.40.389,Simcolourproject_2stim_asymm_v5,2020.2.10,Win32,60,60e52e7cfedb1dae636df45f,,,,,,,,,3699,48,74,1,0,0,response1disk,,7,13,10,1,0,0,rectangle,13,10,1,0,0,,,,,,,13,10,1,0,0,,1,75,235,42,1,
,,,,,,,,,,,,,FF,,,,,,,,1.7863,,,,,,,,,,,,,,,,,,,,,,60e03b0a759b4850df25f739,60e57d40bffb5052504da600,2021-07-07_13h25.40.389,Simcolourproject_2stim_asymm_v5,2020.2.10,Win32,60,60e52e7cfedb1dae636df45f,,,,,,,,,1603,-128,61,1,0,0,response7disk,,1,12,-16,1,0,0,rectangle,12,-16,1,0,0,,,,,,,12,-16,1,0,0,,1,76,236,108,1,
,,,,,,,,,,,,,FF,,,,,,,,0.8703,,,,,,,,,,,,,,,,,,,,,,60e03b0a759b4850df25f739,60e57d40bffb5052504da600,2021-07-07_13h25.40.389,Simcolourproject_2stim_asymm_v5,2020.2.10,Win32,60,60e52e7cfedb1dae636df45f,,,,,,,,,1038,-104,-46,1,0,0,response5disk,,2,0,10,1,0,0,rectangle,0,10,1,0,0,,,,,,,0,10,1,0,0,,1,77,237,120,1,
,,,,,,,,,,,,,FF,,,,,,,,1.2667,,,,,,,,,,,,,,,,,,,,,,60e03b0a759b4850df25f739,60e57d40bffb5052504da600,2021-07-07_13h25.40.389,Simcolourproject_2stim_asymm_v5,2020.2.10,Win32,60,60e52e7cfedb1dae636df45f,,,,,,,,,4171,57,-115,1,0,0,response3disk,,4,-9,19,1,0,0,rectangle,-9,19,1,0,0,,,,,,,-9,19,1,0,0,,1,78,238,65,1,
,,,,,,,,,,,,,FF,,,,,,,,0.9333,,,,,,,,,,,,,,,,,,,,,,60e03b0a759b4850df25f739,60e57d40bffb5052504da600,2021-07-07_13h25.40.389,Simcolourproject_2stim_asymm_v5,2020.2.10,Win32,60,60e52e7cfedb1dae636df45f,,,,,,,,,3322,101,-38,1,0,0,response3disk,,5,4,-5,1,0,0,rectangle,4,-5,1,0,0,,,,,,,4,-5,1,0,0,,1,79,239,30,1,
,,,,,,,,,,,,,FF,,,,,,,,1.7203,,,,,,,,,,,,,,,,,,,,,,60e03b0a759b4850df25f739,60e57d40bffb5052504da600,2021-07-07_13h25.40.389,Simcolourproject_2stim_asymm_v5,2020.2.10,Win32,60,60e52e7cfedb1dae636df45f,,,,,,,,,2776,-57,-130,1,0,0,response5disk,,3,-20,-5,1,0,0,rectangle,-20,-5,1,0,0,,,,,,,-20,-5,1,0,0,,1,80,240,95,1,
,,,,,,,,,,,,,FF,,,,,,,,0.8501,,,,,,,,,,,,,,,,,,,,,,60e03b0a759b4850df25f739,60e57d40bffb5052504da600,2021-07-07_13h25.40.389,Simcolourproject_2stim_asymm_v5,2020.2.10,Win32,60,60e52e7cfedb1dae636df45f,,,,,,,,,2269,88,45,1,0,0,response1disk,,6,-7,-7,1,0,0,rectangle,-7,-7,1,0,0,,,,,,,-7,-7,1,0,0,,1,81,241,156,1,
,,,,,,,,,,,,,FF,,,,,,,,0.8367,,,,,,,,,,,,,,,,,,,,,,60e03b0a759b4850df25f739,60e57d40bffb5052504da600,2021-07-07_13h25.40.389,Simcolourproject_2stim_asymm_v5,2020.2.10,Win32,60,60e52e7cfedb1dae636df45f,,,,,,,,,603,112,47,1,0,0,response1disk,,6,6,-6,1,0,0,rectangle,6,-6,1,0,0,,,,,,,6,-6,1,0,0,,1,82,242,75,1,
,,,,,,,,,,,,,FF,,,,,,,,1.1034,,,,,,,,,,,,,,,,,,,,,,60e03b0a759b4850df25f739,60e57d40bffb5052504da600,2021-07-07_13h25.40.389,Simcolourproject_2stim_asymm_v5,2020.2.10,Win32,60,60e52e7cfedb1dae636df45f,,,,,,,,,2029,51,-97,1,0,0,response3disk,,4,2,9,1,0,0,rectangle,2,9,1,0,0,,,,,,,2,9,1,0,0,,1,83,243,133,1,
,,,,,,,,,,,,,FF,,,,,,,,1.1169,,,,,,,,,,,,,,,,,,,,,,60e03b0a759b4850df25f739,60e57d40bffb5052504da600,2021-07-07_13h25.40.389,Simcolourproject_2stim_asymm_v5,2020.2.10,Win32,60,60e52e7cfedb1dae636df45f,,,,,,,,,2676,59,-134,1,0,0,response3disk,,4,11,1,1,0,0,rectangle,11,1,1,0,0,,,,,,,11,1,1,0,0,,1,84,244,55,1,
,,,,,,,,,,,,,FF,,,,,,,,0.7337,,,,,,,,,,,,,,,,,,,,,,60e03b0a759b4850df25f739,60e57d40bffb5052504da600,2021-07-07_13h25.40.389,Simcolourproject_2stim_asymm_v5,2020.2.10,Win32,60,60e52e7cfedb1dae636df45f,,,,,,,,,3134,121,-55,1,0,0,response3disk,,5,1,1,1,0,0,rectangle,1,1,1,0,0,,,,,,,1,1,1,0,0,,1,85,245,85,1,
,,,,,,,,,,,,,FF,,,,,,,,0.9363,,,,,,,,,,,,,,,,,,,,,,60e03b0a759b4850df25f739,60e57d40bffb5052504da600,2021-07-07_13h25.40.389,Simcolourproject_2stim_asymm_v5,2020.2.10,Win32,60,60e52e7cfedb1dae636df45f,,,,,,,,,625,123,66,1,0,0,response1disk,,6,8,7,1,0,0,rectangle,8,7,1,0,0,,,,,,,8,7,1,0,0,,1,86,246,87,1,
,,,,,,,,,,,,,FF,,,,,,,,1.1331,,,,,,,,,,,,,,,,,,,,,,60e03b0a759b4850df25f739,60e57d40bffb5052504da600,2021-07-07_13h25.40.389,Simcolourproject_2stim_asymm_v5,2020.2.10,Win32,60,60e52e7cfedb1dae636df45f,,,,,,,,,3521,92,66,1,0,0,response1disk,,6,-13,-9,1,0,0,rectangle,-13,-9,1,0,0,,,,,,,-13,-9,1,0,0,,1,87,247,15,1,
,,,,,,,,,,,,,FF,,,,,,,,0.4529,,,,,,,,,,,,,,,,,,,,,,60e03b0a759b4850df25f739,60e57d40bffb5052504da600,2021-07-07_13h25.40.389,Simcolourproject_2stim_asymm_v5,2020.2.10,Win32,60,60e52e7cfedb1dae636df45f,,,,,,,,,4136,112,59,1,0,0,response1disk,,6,-17,-5,1,0,0,rectangle,-17,-5,1,0,0,,,,,,,-17,-5,1,0,0,,1,88,248,70,1,
,,,,,,,,,,,,,FF,,,,,,,,0.903,,,,,,,,,,,,,,,,,,,,,,60e03b0a759b4850df25f739,60e57d40bffb5052504da600,2021-07-07_13h25.40.389,Simcolourproject_2stim_asymm_v5,2020.2.10,Win32,60,60e52e7cfedb1dae636df45f,,,,,,,,,1896,67,-118,1,0,0,response3disk,,4,-19,-3,1,0,0,rectangle,-19,-3,1,0,0,,,,,,,-19,-3,1,0,0,,1,89,249,66,1,
,,,,,,,,,,,,,FF,,,,,,,,0.6701,,,,,,,,,,,,,,,,,,,,,,60e03b0a759b4850df25f739,60e57d40bffb5052504da600,2021-07-07_13h25.40.389,Simcolourproject_2stim_asymm_v5,2020.2.10,Win32,60,60e52e7cfedb1dae636df45f,,,,,,,,,981,75,-127,1,0,0,response3disk,,4,-15,8,1,0,0,rectangle,-15,8,1,0,0,,,,,,,-15,8,1,0,0,,1,90,250,78,1,
,,,,,,,,,,,,,FF,,,,,,,,0.6001,,,,,,,,,,,,,,,,,,,,,,60e03b0a759b4850df25f739,60e57d40bffb5052504da600,2021-07-07_13h25.40.389,Simcolourproject_2stim_asymm_v5,2020.2.10,Win32,60,60e52e7cfedb1dae636df45f,,,,,,,,,2494,96,-46,1,0,0,response3disk,,5,-1,7,1,0,0,rectangle,-1,7,1,0,0,,,,,,,-1,7,1,0,0,,1,91,251,94,1,
,,,,,,,,,,,,,FF,,,,,,,,0.6469,,,,,,,,,,,,,,,,,,,,,,60e03b0a759b4850df25f739,60e57d40bffb5052504da600,2021-07-07_13h25.40.389,Simcolourproject_2stim_asymm_v5,2020.2.10,Win32,60,60e52e7cfedb1dae636df45f,,,,,,,,,2857,84,32,1,0,0,response1disk,,6,-1,6,1,0,0,rectangle,-1,6,1,0,0,,,,,,,-1,6,1,0,0,,1,92,252,122,1,
,,,,,,,,,,,,,FF,,,,,,,,0.9002,,,,,,,,,,,,,,,,,,,,,,60e03b0a759b4850df25f739,60e57d40bffb5052504da600,2021-07-07_13h25.40.389,Simcolourproject_2stim_asymm_v5,2020.2.10,Win32,60,60e52e7cfedb1dae636df45f,,,,,,,,,297,46,88,1,0,0,response1disk,,7,14,8,1,0,0,rectangle,14,8,1,0,0,,,,,,,14,8,1,0,0,,1,93,253,69,1,
,,,,,,,,,,,,,FF,,,,,,,,0.9335,,,,,,,,,,,,,,,,,,,,,,60e03b0a759b4850df25f739,60e57d40bffb5052504da600,2021-07-07_13h25.40.389,Simcolourproject_2stim_asymm_v5,2020.2.10,Win32,60,60e52e7cfedb1dae636df45f,,,,,,,,,2451,37,115,1,0,0,response1disk,,7,-6,-18,1,0,0,rectangle,-6,-18,1,0,0,,,,,,,-6,-18,1,0,0,,1,94,254,37,1,
,,,,,,,,,,,,,FF,,,,,,,,0.9863,,,,,,,,,,,,,,,,,,,,,,60e03b0a759b4850df25f739,60e57d40bffb5052504da600,2021-07-07_13h25.40.389,Simcolourproject_2stim_asymm_v5,2020.2.10,Win32,60,60e52e7cfedb1dae636df45f,,,,,,,,,709,67,113,1,0,0,response1disk,,7,0,17,1,0,0,rectangle,0,17,1,0,0,,,,,,,0,17,1,0,0,,1,95,255,116,1,
,,,,,,,,,,,,,FF,,,,,,,,0.4307,,,,,,,,,,,,,,,,,,,,,,60e03b0a759b4850df25f739,60e57d40bffb5052504da600,2021-07-07_13h25.40.389,Simcolourproject_2stim_asymm_v5,2020.2.10,Win32,60,60e52e7cfedb1dae636df45f,,,,,,,,,1538,36,89,1,0,0,response1disk,,7,25,14,1,0,0,rectangle,25,14,1,0,0,,,,,,,25,14,1,0,0,,1,96,256,114,1,
,,,,,,,,,,,,,FF,,,,,,,,0.5667,,,,,,,,,,,,,,,,,,,,,,60e03b0a759b4850df25f739,60e57d40bffb5052504da600,2021-07-07_13h25.40.389,Simcolourproject_2stim_asymm_v5,2020.2.10,Win32,60,60e52e7cfedb1dae636df45f,,,,,,,,,2222,48,89,1,0,0,response1disk,,7,10,-9,1,0,0,rectangle,10,-9,1,0,0,,,,,,,10,-9,1,0,0,,1,97,257,100,1,
,,,,,,,,,,,,,FF,,,,,,,,1.2804,,,,,,,,,,,,,,,,,,,,,,60e03b0a759b4850df25f739,60e57d40bffb5052504da600,2021-07-07_13h25.40.389,Simcolourproject_2stim_asymm_v5,2020.2.10,Win32,60,60e52e7cfedb1dae636df45f,,,,,,,,,615,82,-129,1,0,0,response3disk,,4,3,0,1,0,0,rectangle,3,0,1,0,0,,,,,,,3,0,1,0,0,,1,98,258,111,1,
,,,,,,,,,,,,,FF,,,,,,,,1.4333,,,,,,,,,,,,,,,,,,,,,,60e03b0a759b4850df25f739,60e57d40bffb5052504da600,2021-07-07_13h25.40.389,Simcolourproject_2stim_asymm_v5,2020.2.10,Win32,60,60e52e7cfedb1dae636df45f,,,,,,,,,3240,76,-121,1,0,0,response3disk,,4,1,8,1,0,0,rectangle,1,8,1,0,0,,,,,,,1,8,1,0,0,,1,99,259,39,1,
,,,,,,,,,,,,,FF,,,,,,,,0.9201,,,,,,,,,,,,,,,,,,,,,,60e03b0a759b4850df25f739,60e57d40bffb5052504da600,2021-07-07_13h25.40.389,Simcolourproject_2stim_asymm_v5,2020.2.10,Win32,60,60e52e7cfedb1dae636df45f,,,,,,,,,1195,51,-108,1,0,0,response3disk,,4,-4,-8,1,0,0,rectangle,-4,-8,1,0,0,,,,,,,-4,-8,1,0,0,,1,100,260,28,1,
,,,,,,,,,,,,,FF,,,,,,,,0.8347,,,,,,,,,,,,,,,,,,,,,,60e03b0a759b4850df25f739,60e57d40bffb5052504da600,2021-07-07_13h25.40.389,Simcolourproject_2stim_asymm_v5,2020.2.10,Win32,60,60e52e7cfedb1dae636df45f,,,,,,,,,2383,85,49,1,0,0,response1disk,,6,-45,-21,1,0,0,rectangle,-45,-21,1,0,0,,,,,,,-45,-21,1,0,0,,1,101,261,72,1,
,,,,,,,,,,,,,FF,,,,,,,,0.8139,,,,,,,,,,,,,,,,,,,,,,60e03b0a759b4850df25f739,60e57d40bffb5052504da600,2021-07-07_13h25.40.389,Simcolourproject_2stim_asymm_v5,2020.2.10,Win32,60,60e52e7cfedb1dae636df45f,,,,,,,,,1232,113,-75,1,0,0,response3disk,,5,34,-6,1,0,0,rectangle,34,-6,1,0,0,,,,,,,34,-6,1,0,0,,1,102,262,24,1,
,,,,,,,,,,,,,FF,,,,,,,,1.1,,,,,,,,,,,,,,,,,,,,,,60e03b0a759b4850df25f739,60e57d40bffb5052504da600,2021-07-07_13h25.40.389,Simcolourproject_2stim_asymm_v5,2020.2.10,Win32,60,60e52e7cfedb1dae636df45f,,,,,,,,,286,56,-144,1,0,0,response3disk,,4,-12,21,1,0,0,rectangle,-12,21,1,0,0,,,,,,,-12,21,1,0,0,,1,103,263,29,1,
,,,,,,,,,,,,,FF,,,,,,,,1.3835,,,,,,,,,,,,,,,,,,,,,,60e03b0a759b4850df25f739,60e57d40bffb5052504da600,2021-07-07_13h25.40.389,Simcolourproject_2stim_asymm_v5,2020.2.10,Win32,60,60e52e7cfedb1dae636df45f,,,,,,,,,987,108,49,1,0,0,response1disk,,6,8,5,1,0,0,rectangle,8,5,1,0,0,,,,,,,8,5,1,0,0,,1,104,264,40,1,
,,,,,,,,,,,,,FF,,,,,,,,1.1366,,,,,,,,,,,,,,,,,,,,,,60e03b0a759b4850df25f739,60e57d40bffb5052504da600,2021-07-07_13h25.40.389,Simcolourproject_2stim_asymm_v5,2020.2.10,Win32,60,60e52e7cfedb1dae636df45f,,,,,,,,,3518,-32,-129,1,0,0,response5disk,,3,-6,2,1,0,0,rectangle,-6,2,1,0,0,,,,,,,-6,2,1,0,0,,1,105,265,134,1,
,,,,,,,,,,,,,FF,,,,,,,,0.9832,,,,,,,,,,,,,,,,,,,,,,60e03b0a759b4850df25f739,60e57d40bffb5052504da600,2021-07-07_13h25.40.389,Simcolourproject_2stim_asymm_v5,2020.2.10,Win32,60,60e52e7cfedb1dae636df45f,,,,,,,,,3131,129,-86,1,0,0,response3disk,,5,15,8,1,0,0,rectangle,15,8,1,0,0,,,,,,,15,8,1,0,0,,1,106,266,68,1,
,,,,,,,,,,,,,FF,,,,,,,,0.6362,,,,,,,,,,,,,,,,,,,,,,60e03b0a759b4850df25f739,60e57d40bffb5052504da600,2021-07-07_13h25.40.389,Simcolourproject_2stim_asymm_v5,2020.2.10,Win32,60,60e52e7cfedb1dae636df45f,,,,,,,,,1419,115,44,1,0,0,response1disk,,6,7,15,1,0,0,rectangle,7,15,1,0,0,,,,,,,7,15,1,0,0,,1,107,267,131,1,
,,,,,,,,,,,,,FF,,,,,,,,0.9804,,,,,,,,,,,,,,,,,,,,,,60e03b0a759b4850df25f739,60e57d40bffb5052504da600,2021-07-07_13h25.40.389,Simcolourproject_2stim_asymm_v5,2020.2.10,Win32,60,60e52e7cfedb1dae636df45f,,,,,,,,,1584,60,-115,1,0,0,response3disk,,4,0,-2,1,0,0,rectangle,0,-2,1,0,0,,,,,,,0,-2,1,0,0,,1,108,268,103,1,
,,,,,,,,,,,,,FF,,,,,,,,1.7,,,,,,,,,,,,,,,,,,,,,,60e03b0a759b4850df25f739,60e57d40bffb5052504da600,2021-07-07_13h25.40.389,Simcolourproject_2stim_asymm_v5,2020.2.10,Win32,60,60e52e7cfedb1dae636df45f,,,,,,,,,3078,125,38,1,0,0,response1disk,,6,26,5,1,0,0,rectangle,26,5,1,0,0,,,,,,,26,5,1,0,0,,1,109,269,93,1,
,,,,,,,,,,,,,FF,,,,,,,,0.9334,,,,,,,,,,,,,,,,,,,,,,60e03b0a759b4850df25f739,60e57d40bffb5052504da600,2021-07-07_13h25.40.389,Simcolourproject_2stim_asymm_v5,2020.2.10,Win32,60,60e52e7cfedb1dae636df45f,,,,,,,,,2597,87,-43,1,0,0,response3disk,,5,4,-6,1,0,0,rectangle,4,-6,1,0,0,,,,,,,4,-6,1,0,0,,1,110,270,110,1,
,,,,,,,,,,,,,FF,,,,,,,,0.7697,,,,,,,,,,,,,,,,,,,,,,60e03b0a759b4850df25f739,60e57d40bffb5052504da600,2021-07-07_13h25.40.389,Simcolourproject_2stim_asymm_v5,2020.2.10,Win32,60,60e52e7cfedb1dae636df45f,,,,,,,,,2012,25,85,1,0,0,response1disk,,7,3,8,1,0,0,rectangle,3,8,1,0,0,,,,,,,3,8,1,0,0,,1,111,271,34,1,
,,,,,,,,,,,,,FF,,,,,,,,2.2999,,,,,,,,,,,,,,,,,,,,,,60e03b0a759b4850df25f739,60e57d40bffb5052504da600,2021-07-07_13h25.40.389,Simcolourproject_2stim_asymm_v5,2020.2.10,Win32,60,60e52e7cfedb1dae636df45f,,,,,,,,,608,126,56,1,0,0,response1disk,,6,16,-4,1,0,0,rectangle,16,-4,1,0,0,,,,,,,16,-4,1,0,0,,1,112,272,19,1,
,,,,,,,,,,,,,FF,,,,,,,,1.0167,,,,,,,,,,,,,,,,,,,,,,60e03b0a759b4850df25f739,60e57d40bffb5052504da600,2021-07-07_13h25.40.389,Simcolourproject_2stim_asymm_v5,2020.2.10,Win32,60,60e52e7cfedb1dae636df45f,,,,,,,,,3721,111,-55,1,0,0,response3disk,,5,-21,3,1,0,0,rectangle,-21,3,1,0,0,,,,,,,-21,3,1,0,0,,1,113,273,53,1,
,,,,,,,,,,,,,FF,,,,,,,,2.1664,,,,,,,,,,,,,,,,,,,,,,60e03b0a759b4850df25f739,60e57d40bffb5052504da600,2021-07-07_13h25.40.389,Simcolourproject_2stim_asymm_v5,2020.2.10,Win32,60,60e52e7cfedb1dae636df45f,,,,,,,,,244,93,62,1,0,0,response1disk,,6,2,0,1,0,0,rectangle,2,0,1,0,0,,,,,,,2,0,1,0,0,,1,114,274,23,1,
,,,,,,,,,,,,,FF,,,,,,,,0.8866,,,,,,,,,,,,,,,,,,,,,,60e03b0a759b4850df25f739,60e57d40bffb5052504da600,2021-07-07_13h25.40.389,Simcolourproject_2stim_asymm_v5,2020.2.10,Win32,60,60e52e7cfedb1dae636df45f,,,,,,,,,4223,71,-114,1,0,0,response3disk,,4,-6,19,1,0,0,rectangle,-6,19,1,0,0,,,,,,,-6,19,1,0,0,,1,115,275,99,1,
,,,,,,,,,,,,,FF,,,,,,,,0.9167,,,,,,,,,,,,,,,,,,,,,,60e03b0a759b4850df25f739,60e57d40bffb5052504da600,2021-07-07_13h25.40.389,Simcolourproject_2stim_asymm_v5,2020.2.10,Win32,60,60e52e7cfedb1dae636df45f,,,,,,,,,2056,71,99,1,0,0,response1disk,,7,-3,-3,1,0,0,rectangle,-3,-3,1,0,0,,,,,,,-3,-3,1,0,0,,1,116,276,82,1,
,,,,,,,,,,,,,FF,,,,,,,,0.8531,,,,,,,,,,,,,,,,,,,,,,60e03b0a759b4850df25f739,60e57d40bffb5052504da600,2021-07-07_13h25.40.389,Simcolourproject_2stim_asymm_v5,2020.2.10,Win32,60,60e52e7cfedb1dae636df45f,,,,,,,,,1880,48,84,1,0,0,response1disk,,7,0,10,1,0,0,rectangle,0,10,1,0,0,,,,,,,0,10,1,0,0,,1,117,277,5,1,
,,,,,,,,,,,,,FF,,,,,,,,0.5531,,,,,,,,,,,,,,,,,,,,,,60e03b0a759b4850df25f739,60e57d40bffb5052504da600,2021-07-07_13h25.40.389,Simcolourproject_2stim_asymm_v5,2020.2.10,Win32,60,60e52e7cfedb1dae636df45f,,,,,,,,,4299,41,80,1,0,0,response1disk,,7,-1,0,1,0,0,rectangle,-1,0,1,0,0,,,,,,,-1,0,1,0,0,,1,118,278,48,1,
,,,,,,,,,,,,,FF,,,,,,,,1.15,,,,,,,,,,,,,,,,,,,,,,60e03b0a759b4850df25f739,60e57d40bffb5052504da600,2021-07-07_13h25.40.389,Simcolourproject_2stim_asymm_v5,2020.2.10,Win32,60,60e52e7cfedb1dae636df45f,,,,,,,,,3253,133,-67,1,0,0,response3disk,,5,19,-17,1,0,0,rectangle,19,-17,1,0,0,,,,,,,19,-17,1,0,0,,1,119,279,62,1,
,,,,,,,,,,,,,FF,,,,,,,,0.7,,,,,,,,,,,,,,,,,,,,,,60e03b0a759b4850df25f739,60e57d40bffb5052504da600,2021-07-07_13h25.40.389,Simcolourproject_2stim_asymm_v5,2020.2.10,Win32,60,60e52e7cfedb1dae636df45f,,,,,,,,,1868,51,71,1,0,0,response1disk,,7,-7,11,1,0,0,rectangle,-7,11,1,0,0,,,,,,,-7,11,1,0,0,,1,120,280,13,1,
,,,,,,,,,,,,,FF,,,,,,,,1.0528,,,,,,,,,,,,,,,,,,,,,,60e03b0a759b4850df25f739,60e57d40bffb5052504da600,2021-07-07_13h25.40.389,Simcolourproject_2stim_asymm_v5,2020.2.10,Win32,60,60e52e7cfedb1dae636df45f,,,,,,,,,4141,-92,-119,1,0,0,response5disk,,3,-3,8,1,0,0,rectangle,-3,8,1,0,0,,,,,,,-3,8,1,0,0,,1,121,281,96,1,
,,,,,,,,,,,,,FF,,,,,,,,1.5155,,,,,,,,,,,,,,,,,,,,,,60e03b0a759b4850df25f739,60e57d40bffb5052504da600,2021-07-07_13h25.40.389,Simcolourproject_2stim_asymm_v5,2020.2.10,Win32,60,60e52e7cfedb1dae636df45f,,,,,,,,,27,131,46,1,0,0,response1disk,,6,5,-1,1,0,0,rectangle,5,-1,1,0,0,,,,,,,5,-1,1,0,0,,1,122,282,6,1,
,,,,,,,,,,,,,FF,,,,,,,,2.2001,,,,,,,,,,,,,,,,,,,,,,60e03b0a759b4850df25f739,60e57d40bffb5052504da600,2021-07-07_13h25.40.389,Simcolourproject_2stim_asymm_v5,2020.2.10,Win32,60,60e52e7cfedb1dae636df45f,,,,,,,,,2615,-145,-42,1,0,0,response5disk,,2,-9,-3,1,0,0,rectangle,-9,-3,1,0,0,,,,,,,-9,-3,1,0,0,,1,123,283,47,1,
,,,,,,,,,,,,,FF,,,,,,,,4.4637,,,,,,,,,,,,,,,,,,,,,,60e03b0a759b4850df25f739,60e57d40bffb5052504da600,2021-07-07_13h25.40.389,Simcolourproject_2stim_asymm_v5,2020.2.10,Win32,60,60e52e7cfedb1dae636df45f,,,,,,,,,323,132,-55,1,0,0,response3disk,,5,14,0,1,0,0,rectangle,-142,54,1,0,0,response7disk_3,TRUE,1,1,"[78,220,32,192,1,31,140,144,202,285,107,39,291,226,52,210,0,102,120,224]",1.317,-22,7,1,0,0,rectangle,1,124,284,10,1,
,,,,,,,,,,,,,FF,,,,,,,,1.7835,,,,,,,,,,,,,,,,,,,,,,60e03b0a759b4850df25f739,60e57d40bffb5052504da600,2021-07-07_13h25.40.389,Simcolourproject_2stim_asymm_v5,2020.2.10,Win32,60,60e52e7cfedb1dae636df45f,,,,,,,,,4232,76,-114,1,0,0,response3disk,,4,-18,-4,1,0,0,rectangle,-18,-4,1,0,0,,,,,,,-18,-4,1,0,0,,1,125,285,141,1,
,,,,,,,,,,,,,FF,,,,,,,,1.1834,,,,,,,,,,,,,,,,,,,,,,60e03b0a759b4850df25f739,60e57d40bffb5052504da600,2021-07-07_13h25.40.389,Simcolourproject_2stim_asymm_v5,2020.2.10,Win32,60,60e52e7cfedb1dae636df45f,,,,,,,,,1249,108,44,1,0,0,response1disk,,6,40,6,1,0,0,rectangle,40,6,1,0,0,,,,,,,40,6,1,0,0,,1,126,286,138,1,
,,,,,,,,,,,,,FF,,,,,,,,0.8697,,,,,,,,,,,,,,,,,,,,,,60e03b0a759b4850df25f739,60e57d40bffb5052504da600,2021-07-07_13h25.40.389,Simcolourproject_2stim_asymm_v5,2020.2.10,Win32,60,60e52e7cfedb1dae636df45f,,,,,,,,,4213,27,90,1,0,0,response1disk,,7,-17,-11,1,0,0,rectangle,-17,-11,1,0,0,,,,,,,-17,-11,1,0,0,,1,127,287,45,1,
,,,,,,,,,,,,,FF,,,,,,,,1.3501,,,,,,,,,,,,,,,,,,,,,,60e03b0a759b4850df25f739,60e57d40bffb5052504da600,2021-07-07_13h25.40.389,Simcolourproject_2stim_asymm_v5,2020.2.10,Win32,60,60e52e7cfedb1dae636df45f,,,,,,,,,1962,-57,-99,1,0,0,response5disk,,3,12,13,1,0,0,rectangle,12,13,1,0,0,,,,,,,12,13,1,0,0,,1,128,288,36,1,
,,,,,,,,,,,,,FF,,,,,,,,0.8335,,,,,,,,,,,,,,,,,,,,,,60e03b0a759b4850df25f739,60e57d40bffb5052504da600,2021-07-07_13h25.40.389,Simcolourproject_2stim_asymm_v5,2020.2.10,Win32,60,60e52e7cfedb1dae636df45f,,,,,,,,,3630,-74,110,1,0,0,response7disk,,0,-25,11,1,0,0,rectangle,-25,11,1,0,0,,,,,,,-25,11,1,0,0,,1,129,289,12,1,
,,,,,,,,,,,,,FF,,,,,,,,3.3834,,,,,,,,,,,,,,,,,,,,,,60e03b0a759b4850df25f739,60e57d40bffb5052504da600,2021-07-07_13h25.40.389,Simcolourproject_2stim_asymm_v5,2020.2.10,Win32,60,60e52e7cfedb1dae636df45f,,,,,,,,,2157,124,-59,1,0,0,response3disk,,5,20,-1,1,0,0,rectangle,123,62,1,0,0,response1disk_3,TRUE,6,6,"[78,220,32,192,1,31,140,144,202,285,107,39,291,226,52,210,0,102,120,224]",1.48,17,2,1,0,0,rectangle,1,130,290,61,1,
,,,,,,,,,,,,,FF,,,,,,,,1.2861,,,,,,,,,,,,,,,,,,,,,,60e03b0a759b4850df25f739,60e57d40bffb5052504da600,2021-07-07_13h25.40.389,Simcolourproject_2stim_asymm_v5,2020.2.10,Win32,60,60e52e7cfedb1dae636df45f,,,,,,,,,613,-58,-98,1,0,0,response5disk,,3,-23,16,1,0,0,rectangle,-23,16,1,0,0,,,,,,,-23,16,1,0,0,,1,131,291,130,1,
,,,,,,,,,,,,,FF,,,,,,,,0.7999,,,,,,,,,,,,,,,,,,,,,,60e03b0a759b4850df25f739,60e57d40bffb5052504da600,2021-07-07_13h25.40.389,Simcolourproject_2stim_asymm_v5,2020.2.10,Win32,60,60e52e7cfedb1dae636df45f,,,,,,,,,645,126,-59,1,0,0,response3disk,,5,17,-4,1,0,0,rectangle,17,-4,1,0,0,,,,,,,17,-4,1,0,0,,1,132,292,35,1,
,,,,,,,,,,,,,FF,,,,,,,,0.8861,,,,,,,,,,,,,,,,,,,,,,60e03b0a759b4850df25f739,60e57d40bffb5052504da600,2021-07-07_13h25.40.389,Simcolourproject_2stim_asymm_v5,2020.2.10,Win32,60,60e52e7cfedb1dae636df45f,,,,,,,,,3226,59,93,1,0,0,response1disk,,7,-7,-3,1,0,0,rectangle,-7,-3,1,0,0,,,,,,,-7,-3,1,0,0,,1,133,293,54,1,
,,,,,,,,,,,,,FF,,,,,,,,0.797,,,,,,,,,,,,,,,,,,,,,,60e03b0a759b4850df25f739,60e57d40bffb5052504da600,2021-07-07_13h25.40.389,Simcolourproject_2stim_asymm_v5,2020.2.10,Win32,60,60e52e7cfedb1dae636df45f,,,,,,,,,1250,115,-56,1,0,0,response3disk,,5,-13,-10,1,0,0,rectangle,-13,-10,1,0,0,,,,,,,-13,-10,1,0,0,,1,134,294,4,1,
,,,,,,,,,,,,,FF,,,,,,,,0.92,,,,,,,,,,,,,,,,,,,,,,60e03b0a759b4850df25f739,60e57d40bffb5052504da600,2021-07-07_13h25.40.389,Simcolourproject_2stim_asymm_v5,2020.2.10,Win32,60,60e52e7cfedb1dae636df45f,,,,,,,,,751,119,53,1,0,0,response1disk,,6,23,-4,1,0,0,rectangle,23,-4,1,0,0,,,,,,,23,-4,1,0,0,,1,135,295,64,1,
,,,,,,,,,,,,,FF,,,,,,,,0.6864,,,,,,,,,,,,,,,,,,,,,,60e03b0a759b4850df25f739,60e57d40bffb5052504da600,2021-07-07_13h25.40.389,Simcolourproject_2stim_asymm_v5,2020.2.10,Win32,60,60e52e7cfedb1dae636df45f,,,,,,,,,1991,53,91,1,0,0,response1disk,,7,-11,-13,1,0,0,rectangle,-11,-13,1,0,0,,,,,,,-11,-13,1,0,0,,1,136,296,83,1,
,,,,,,,,,,,,,FF,,,,,,,,0.9501,,,,,,,,,,,,,,,,,,,,,,60e03b0a759b4850df25f739,60e57d40bffb5052504da600,2021-07-07_13h25.40.389,Simcolourproject_2stim_asymm_v5,2020.2.10,Win32,60,60e52e7cfedb1dae636df45f,,,,,,,,,275,52,-114,1,0,0,response3disk,,4,-7,10,1,0,0,rectangle,-7,10,1,0,0,,,,,,,-7,10,1,0,0,,1,137,297,88,1,
,,,,,,,,,,,,,FF,,,,,,,,0.7668,,,,,,,,,,,,,,,,,,,,,,60e03b0a759b4850df25f739,60e57d40bffb5052504da600,2021-07-07_13h25.40.389,Simcolourproject_2stim_asymm_v5,2020.2.10,Win32,60,60e52e7cfedb1dae636df45f,,,,,,,,,222,97,-37,1,0,0,response3disk,,5,12,-2,1,0,0,rectangle,12,-2,1,0,0,,,,,,,12,-2,1,0,0,,1,138,298,152,1,
,,,,,,,,,,,,,FF,,,,,,,,1.1665,,,,,,,,,,,,,,,,,,,,,,60e03b0a759b4850df25f739,60e57d40bffb5052504da600,2021-07-07_13h25.40.389,Simcolourproject_2stim_asymm_v5,2020.2.10,Win32,60,60e52e7cfedb1dae636df45f,,,,,,,,,2151,93,58,1,0,0,response1disk,,6,13,-14,1,0,0,rectangle,13,-14,1,0,0,,,,,,,13,-14,1,0,0,,1,139,299,105,1,
,,,,,,,,,,,,,FF,,,,,,,,0.8535,,,,,,,,,,,,,,,,,,,,,,60e03b0a759b4850df25f739,60e57d40bffb5052504da600,2021-07-07_13h25.40.389,Simcolourproject_2stim_asymm_v5,2020.2.10,Win32,60,60e52e7cfedb1dae636df45f,,,,,,,,,1535,-54,-108,1,0,0,response5disk,,3,-27,12,1,0,0,rectangle,-27,12,1,0,0,,,,,,,-27,12,1,0,0,,1,140,300,112,1,
