key_resp.keys,key_resp.rt,key_resp_14.keys,key_resp_14.rt,key_resp_15.keys,key_resp_15.rt,key_resp_17.keys,key_resp_17.rt,key_resp_9.keys,key_resp_9.rt,key_resp_10.keys,key_resp_10.rt,practice_comparison,Ecc,mouse_5.x,mouse_5.y,mouse_5.leftButton,mouse_5.midButton,mouse_5.rightButton,mouse_5.clicked_name,pracsimilarity,response_time,mouse_10.x,mouse_10.y,mouse_10.leftButton,mouse_10.midButton,mouse_10.rightButton,mouse_10.clicked_name,mouse_7.x,mouse_7.y,mouse_7.leftButton,mouse_7.midButton,mouse_7.rightButton,mouse_6.x,mouse_6.y,mouse_6.leftButton,mouse_6.midButton,mouse_6.rightButton,duringprac.thisRepN,duringprac.thisTrialN,duringprac.thisN,duringprac.thisIndex,duringprac.ran,participant,session,date,expName,psychopyVersion,OS,frameRate,study_id,mouse_7.clicked_name,catchpracsimilarity,catch_response_time,catchnumberprac,catchtrialorderprac,mouse_6.clicked_name,key_resp_22.keys,key_resp_22.rt,realcomparison,mouse.x,mouse.y,mouse.leftButton,mouse.midButton,mouse.rightButton,mouse.clicked_name,Colour2,similarity,mouse_2.x,mouse_2.y,mouse_2.leftButton,mouse_2.midButton,mouse_2.rightButton,mouse_2.clicked_name,mouse_3.x,mouse_3.y,mouse_3.leftButton,mouse_3.midButton,mouse_3.rightButton,mouse_11.x,mouse_11.y,mouse_11.leftButton,mouse_11.midButton,mouse_11.rightButton,trials_2.thisRepN,trials_2.thisTrialN,trials_2.thisN,trials_2.thisIndex,trials_2.ran,Colour1,mouse_3.clicked_name,catchornah,catchsimilarity,catchnumber,catchtrialorder,catchRT,mouse_11.clicked_name
space,2.9555,space,18.4094,space,14.2117,space,2.3249,space,1.1854,space,4.5314,9,PF,40,-42.5,1,0,0,response3disk_5,4,17.2793,7,1.5,1,0,0,rectangle_8,7,1.5,1,0,0,7,1.5,1,0,0,0,0,0,2,1,60e435add197abec7bebe435,60e565ada326ed4b6c94435e,2021-07-07_10h57.04.938,Simcolourproject_2stim_asymm_v5,2020.2.10,Win32,60,60e52e7cfedb1dae636df45f,,,,,,,,,,,,,,,,,,,,,,,,,,,,,,,,,,,,,,,,,,,,,,
,,,,,,,,,,,,43,FF,32,-37.5,1,0,0,response3disk_5,4,1.0224,-21,-4.5,1,0,0,rectangle_8,-43,-32.5,1,0,0,-4,-4.5,1,0,0,0,1,1,3,1,60e435add197abec7bebe435,60e565ada326ed4b6c94435e,2021-07-07_10h57.04.938,Simcolourproject_2stim_asymm_v5,2020.2.10,Win32,60,60e52e7cfedb1dae636df45f,response5disk_7,2,2.584,3,"[2,5]",rectangle_4,,,,,,,,,,,,,,,,,,,,,,,,,,,,,,,,,,,,,,,,
,,,,,,,,,,,,117,FF,-46,27.5,1,0,0,response7disk_5,1,2.8821,-7,3.5,1,0,0,rectangle_8,-7,3.5,1,0,0,-7,3.5,1,0,0,0,2,2,5,1,60e435add197abec7bebe435,60e565ada326ed4b6c94435e,2021-07-07_10h57.04.938,Simcolourproject_2stim_asymm_v5,2020.2.10,Win32,60,60e52e7cfedb1dae636df45f,,,,,,,,,,,,,,,,,,,,,,,,,,,,,,,,,,,,,,,,,,,,,,
,,,,,,,,,,,,105,PF,39,51.5,1,0,0,response1disk_5,7,2.8667,8,0.5,1,0,0,rectangle_8,8,0.5,1,0,0,8,0.5,1,0,0,0,3,3,1,1,60e435add197abec7bebe435,60e565ada326ed4b6c94435e,2021-07-07_10h57.04.938,Simcolourproject_2stim_asymm_v5,2020.2.10,Win32,60,60e52e7cfedb1dae636df45f,,,,,,,,,,,,,,,,,,,,,,,,,,,,,,,,,,,,,,,,,,,,,,
,,,,,,,,,,,,50,PF,26,40.5,1,0,0,response1disk_5,7,1.6656,5,7.5,1,0,0,rectangle_8,-33,-75.5,1,0,0,-20,3.5,1,0,0,0,4,4,4,1,60e435add197abec7bebe435,60e565ada326ed4b6c94435e,2021-07-07_10h57.04.938,Simcolourproject_2stim_asymm_v5,2020.2.10,Win32,60,60e52e7cfedb1dae636df45f,response5disk_7,3,4.0164,3,"[2,5]",rectangle_4,,,,,,,,,,,,,,,,,,,,,,,,,,,,,,,,,,,,,,,,
,,,,,,,,,,,,31,FF,48,-25.5,1,0,0,response3disk_5,5,2.5995,14,-2.5,1,0,0,rectangle_8,14,-2.5,1,0,0,14,-2.5,1,0,0,0,5,5,0,1,60e435add197abec7bebe435,60e565ada326ed4b6c94435e,2021-07-07_10h57.04.938,Simcolourproject_2stim_asymm_v5,2020.2.10,Win32,60,60e52e7cfedb1dae636df45f,,,,,,,,,,,,,,,,,,,,,,,,,,,,,,,,,,,,,,,,,,,,,,
,,,,,,,,,,,,129,PF,-58,35.5,1,0,0,response7disk_5,1,1.6168,1,-1.5,1,0,0,rectangle_8,1,-1.5,1,0,0,1,-1.5,1,0,0,0,6,6,6,1,60e435add197abec7bebe435,60e565ada326ed4b6c94435e,2021-07-07_10h57.04.938,Simcolourproject_2stim_asymm_v5,2020.2.10,Win32,60,60e52e7cfedb1dae636df45f,,,,,,,,,,,,,,,,,,,,,,,,,,,,,,,,,,,,,,,,,,,,,,
,,,,,,,,,,,,,FF,,,,,,,,1.8541,,,,,,,,,,,,,,,,,,,,,,60e435add197abec7bebe435,60e565ada326ed4b6c94435e,2021-07-07_10h57.04.938,Simcolourproject_2stim_asymm_v5,2020.2.10,Win32,60,60e52e7cfedb1dae636df45f,,,,,,,space,6.7385,2937,52,-46.5,1,0,0,response3disk,,5,-4,-4.5,1,0,0,rectangle,-4,-4.5,1,0,0,-4,-4.5,1,0,0,0,0,0,132,1,,,,,,,,
,,,,,,,,,,,,,FF,,,,,,,,32.4569,,,,,,,,,,,,,,,,,,,,,,60e435add197abec7bebe435,60e565ada326ed4b6c94435e,2021-07-07_10h57.04.938,Simcolourproject_2stim_asymm_v5,2020.2.10,Win32,60,60e52e7cfedb1dae636df45f,,,,,,,,,2741,81,-40.5,1,0,0,response3disk,,5,-5,-10.5,1,0,0,rectangle,-5,-10.5,1,0,0,-5,-10.5,1,0,0,0,1,1,29,1,,,,,,,,
,,,,,,,,,,,,,FF,,,,,,,,2.234,,,,,,,,,,,,,,,,,,,,,,60e435add197abec7bebe435,60e565ada326ed4b6c94435e,2021-07-07_10h57.04.938,Simcolourproject_2stim_asymm_v5,2020.2.10,Win32,60,60e52e7cfedb1dae636df45f,,,,,,,,,774,-41,-56.5,1,0,0,response5disk,,3,-16,-0.5,1,0,0,rectangle,-16,-0.5,1,0,0,-16,-0.5,1,0,0,0,2,2,16,1,,,,,,,,
,,,,,,,,,,,,,FF,,,,,,,,2.3982,,,,,,,,,,,,,,,,,,,,,,60e435add197abec7bebe435,60e565ada326ed4b6c94435e,2021-07-07_10h57.04.938,Simcolourproject_2stim_asymm_v5,2020.2.10,Win32,60,60e52e7cfedb1dae636df45f,,,,,,,,,2564,65,26.5,1,0,0,response1disk,,6,26,-9.5,1,0,0,rectangle,26,-9.5,1,0,0,26,-9.5,1,0,0,0,3,3,2,1,,,,,,,,
,,,,,,,,,,,,,FF,,,,,,,,1.3501,,,,,,,,,,,,,,,,,,,,,,60e435add197abec7bebe435,60e565ada326ed4b6c94435e,2021-07-07_10h57.04.938,Simcolourproject_2stim_asymm_v5,2020.2.10,Win32,60,60e52e7cfedb1dae636df45f,,,,,,,,,3926,-39,-56.5,1,0,0,response5disk,,3,8,-9.5,1,0,0,rectangle,8,-9.5,1,0,0,8,-9.5,1,0,0,0,4,4,145,1,,,,,,,,
,,,,,,,,,,,,,FF,,,,,,,,1.8517,,,,,,,,,,,,,,,,,,,,,,60e435add197abec7bebe435,60e565ada326ed4b6c94435e,2021-07-07_10h57.04.938,Simcolourproject_2stim_asymm_v5,2020.2.10,Win32,60,60e52e7cfedb1dae636df45f,,,,,,,,,1261,-44,-30.5,1,0,0,response5disk,,2,-7,-2.5,1,0,0,rectangle,-7,-2.5,1,0,0,-7,-2.5,1,0,0,0,5,5,87,1,,,,,,,,
,,,,,,,,,,,,,FF,,,,,,,,1.699,,,,,,,,,,,,,,,,,,,,,,60e435add197abec7bebe435,60e565ada326ed4b6c94435e,2021-07-07_10h57.04.938,Simcolourproject_2stim_asymm_v5,2020.2.10,Win32,60,60e52e7cfedb1dae636df45f,,,,,,,,,1119,50,-23.5,1,0,0,response3disk,,5,30,-8.5,1,0,0,rectangle,30,-8.5,1,0,0,30,-8.5,1,0,0,0,6,6,127,1,,,,,,,,
,,,,,,,,,,,,,FF,,,,,,,,0.8671,,,,,,,,,,,,,,,,,,,,,,60e435add197abec7bebe435,60e565ada326ed4b6c94435e,2021-07-07_10h57.04.938,Simcolourproject_2stim_asymm_v5,2020.2.10,Win32,60,60e52e7cfedb1dae636df45f,,,,,,,,,1794,-25,-51.5,1,0,0,response5disk,,3,-3,-10.5,1,0,0,rectangle,-3,-10.5,1,0,0,-3,-10.5,1,0,0,0,7,7,150,1,,,,,,,,
,,,,,,,,,,,,,FF,,,,,,,,1.0169,,,,,,,,,,,,,,,,,,,,,,60e435add197abec7bebe435,60e565ada326ed4b6c94435e,2021-07-07_10h57.04.938,Simcolourproject_2stim_asymm_v5,2020.2.10,Win32,60,60e52e7cfedb1dae636df45f,,,,,,,,,4270,52,-28.5,1,0,0,response3disk,,5,22,-3.5,1,0,0,rectangle,22,-3.5,1,0,0,22,-3.5,1,0,0,0,8,8,26,1,,,,,,,,
,,,,,,,,,,,,,FF,,,,,,,,0.9323,,,,,,,,,,,,,,,,,,,,,,60e435add197abec7bebe435,60e565ada326ed4b6c94435e,2021-07-07_10h57.04.938,Simcolourproject_2stim_asymm_v5,2020.2.10,Win32,60,60e52e7cfedb1dae636df45f,,,,,,,,,3112,-58,-22.5,1,0,0,response5disk,,2,-8,2.5,1,0,0,rectangle,-8,2.5,1,0,0,-8,2.5,1,0,0,0,9,9,85,1,,,,,,,,
,,,,,,,,,,,,,FF,,,,,,,,0.9491,,,,,,,,,,,,,,,,,,,,,,60e435add197abec7bebe435,60e565ada326ed4b6c94435e,2021-07-07_10h57.04.938,Simcolourproject_2stim_asymm_v5,2020.2.10,Win32,60,60e52e7cfedb1dae636df45f,,,,,,,,,973,43,-63.5,1,0,0,response3disk,,4,16,-10.5,1,0,0,rectangle,16,-10.5,1,0,0,16,-10.5,1,0,0,0,10,10,51,1,,,,,,,,
,,,,,,,,,,,,,FF,,,,,,,,1.5501,,,,,,,,,,,,,,,,,,,,,,60e435add197abec7bebe435,60e565ada326ed4b6c94435e,2021-07-07_10h57.04.938,Simcolourproject_2stim_asymm_v5,2020.2.10,Win32,60,60e52e7cfedb1dae636df45f,,,,,,,,,4110,-39,-56.5,1,0,0,response5disk,,3,-12,-13.5,1,0,0,rectangle,-12,-13.5,1,0,0,-12,-13.5,1,0,0,0,11,11,75,1,,,,,,,,
,,,,,,,,,,,,,FF,,,,,,,,1.6505,,,,,,,,,,,,,,,,,,,,,,60e435add197abec7bebe435,60e565ada326ed4b6c94435e,2021-07-07_10h57.04.938,Simcolourproject_2stim_asymm_v5,2020.2.10,Win32,60,60e52e7cfedb1dae636df45f,,,,,,,,,3753,27,-73.5,1,0,0,response3disk,,4,5,-13.5,1,0,0,rectangle,5,-13.5,1,0,0,5,-13.5,1,0,0,0,12,12,28,1,,,,,,,,
,,,,,,,,,,,,,FF,,,,,,,,2.1152,,,,,,,,,,,,,,,,,,,,,,60e435add197abec7bebe435,60e565ada326ed4b6c94435e,2021-07-07_10h57.04.938,Simcolourproject_2stim_asymm_v5,2020.2.10,Win32,60,60e52e7cfedb1dae636df45f,,,,,,,,,3895,-34,54.5,1,0,0,response7disk,,0,8,13.5,1,0,0,rectangle,8,13.5,1,0,0,8,13.5,1,0,0,0,13,13,80,1,,,,,,,,
,,,,,,,,,,,,,FF,,,,,,,,2.4841,,,,,,,,,,,,,,,,,,,,,,60e435add197abec7bebe435,60e565ada326ed4b6c94435e,2021-07-07_10h57.04.938,Simcolourproject_2stim_asymm_v5,2020.2.10,Win32,60,60e52e7cfedb1dae636df45f,,,,,,,,,970,27,84.5,1,0,0,response1disk,,7,14,9.5,1,0,0,rectangle,14,9.5,1,0,0,14,9.5,1,0,0,0,14,14,102,1,,,,,,,,
,,,,,,,,,,,,,FF,,,,,,,,1.2182,,,,,,,,,,,,,,,,,,,,,,60e435add197abec7bebe435,60e565ada326ed4b6c94435e,2021-07-07_10h57.04.938,Simcolourproject_2stim_asymm_v5,2020.2.10,Win32,60,60e52e7cfedb1dae636df45f,,,,,,,,,3831,-39,-68.5,1,0,0,response5disk,,3,-18,-10.5,1,0,0,rectangle,-18,-10.5,1,0,0,-18,-10.5,1,0,0,0,15,15,65,1,,,,,,,,
,,,,,,,,,,,,,FF,,,,,,,,0.8678,,,,,,,,,,,,,,,,,,,,,,60e435add197abec7bebe435,60e565ada326ed4b6c94435e,2021-07-07_10h57.04.938,Simcolourproject_2stim_asymm_v5,2020.2.10,Win32,60,60e52e7cfedb1dae636df45f,,,,,,,,,917,41,-38.5,1,0,0,response3disk,,5,-2,-4.5,1,0,0,rectangle,-2,-4.5,1,0,0,-2,-4.5,1,0,0,0,16,16,0,1,,,,,,,,
,,,,,,,,,,,,,FF,,,,,,,,0.6507,,,,,,,,,,,,,,,,,,,,,,60e435add197abec7bebe435,60e565ada326ed4b6c94435e,2021-07-07_10h57.04.938,Simcolourproject_2stim_asymm_v5,2020.2.10,Win32,60,60e52e7cfedb1dae636df45f,,,,,,,,,2805,55,-33.5,1,0,0,response3disk,,5,8,2.5,1,0,0,rectangle,8,2.5,1,0,0,8,2.5,1,0,0,0,17,17,152,1,,,,,,,,
,,,,,,,,,,,,,FF,,,,,,,,0.7338,,,,,,,,,,,,,,,,,,,,,,60e435add197abec7bebe435,60e565ada326ed4b6c94435e,2021-07-07_10h57.04.938,Simcolourproject_2stim_asymm_v5,2020.2.10,Win32,60,60e52e7cfedb1dae636df45f,,,,,,,,,2380,-49,31.5,1,0,0,response7disk,,1,15,-3.5,1,0,0,rectangle,15,-3.5,1,0,0,15,-3.5,1,0,0,0,18,18,140,1,,,,,,,,
,,,,,,,,,,,,,FF,,,,,,,,0.8333,,,,,,,,,,,,,,,,,,,,,,60e435add197abec7bebe435,60e565ada326ed4b6c94435e,2021-07-07_10h57.04.938,Simcolourproject_2stim_asymm_v5,2020.2.10,Win32,60,60e52e7cfedb1dae636df45f,,,,,,,,,2932,47,-69.5,1,0,0,response3disk,,4,3,0.5,1,0,0,rectangle,3,0.5,1,0,0,3,0.5,1,0,0,0,19,19,126,1,,,,,,,,
,,,,,,,,,,,,,FF,,,,,,,,1.0821,,,,,,,,,,,,,,,,,,,,,,60e435add197abec7bebe435,60e565ada326ed4b6c94435e,2021-07-07_10h57.04.938,Simcolourproject_2stim_asymm_v5,2020.2.10,Win32,60,60e52e7cfedb1dae636df45f,,,,,,,,,2530,49,20.5,1,0,0,response1disk,,6,13,10.5,1,0,0,rectangle,13,10.5,1,0,0,13,10.5,1,0,0,0,20,20,9,1,,,,,,,,
,,,,,,,,,,,,,FF,,,,,,,,1.4823,,,,,,,,,,,,,,,,,,,,,,60e435add197abec7bebe435,60e565ada326ed4b6c94435e,2021-07-07_10h57.04.938,Simcolourproject_2stim_asymm_v5,2020.2.10,Win32,60,60e52e7cfedb1dae636df45f,,,,,,,,,1230,-50,-29.5,1,0,0,response5disk,,2,16,-6.5,1,0,0,rectangle,16,-6.5,1,0,0,16,-6.5,1,0,0,0,21,21,13,1,,,,,,,,
,,,,,,,,,,,,,FF,,,,,,,,0.7824,,,,,,,,,,,,,,,,,,,,,,60e435add197abec7bebe435,60e565ada326ed4b6c94435e,2021-07-07_10h57.04.938,Simcolourproject_2stim_asymm_v5,2020.2.10,Win32,60,60e52e7cfedb1dae636df45f,,,,,,,,,2881,67,-26.5,1,0,0,response3disk,,5,26,-2.5,1,0,0,rectangle,26,-2.5,1,0,0,26,-2.5,1,0,0,0,22,22,159,1,,,,,,,,
,,,,,,,,,,,,,FF,,,,,,,,0.8002,,,,,,,,,,,,,,,,,,,,,,60e435add197abec7bebe435,60e565ada326ed4b6c94435e,2021-07-07_10h57.04.938,Simcolourproject_2stim_asymm_v5,2020.2.10,Win32,60,60e52e7cfedb1dae636df45f,,,,,,,,,3066,-75,29.5,1,0,0,response7disk,,1,-1,3.5,1,0,0,rectangle,-1,3.5,1,0,0,-1,3.5,1,0,0,0,23,23,48,1,,,,,,,,
,,,,,,,,,,,,,FF,,,,,,,,1.5998,,,,,,,,,,,,,,,,,,,,,,60e435add197abec7bebe435,60e565ada326ed4b6c94435e,2021-07-07_10h57.04.938,Simcolourproject_2stim_asymm_v5,2020.2.10,Win32,60,60e52e7cfedb1dae636df45f,,,,,,,,,4346,-24,52.5,1,0,0,response7disk,,0,-2,3.5,1,0,0,rectangle,-62,33.5,1,0,0,16,0.5,1,0,0,0,24,24,40,1,,response7disk_3,TRUE,1,1,"[215,25,45,87,260,279,61,207,200,192,130,317,138,106,31,246,62,111,61,165]",2.6848,rectangle
,,,,,,,,,,,,,FF,,,,,,,,0.7844,,,,,,,,,,,,,,,,,,,,,,60e435add197abec7bebe435,60e565ada326ed4b6c94435e,2021-07-07_10h57.04.938,Simcolourproject_2stim_asymm_v5,2020.2.10,Win32,60,60e52e7cfedb1dae636df45f,,,,,,,,,3350,56,-28.5,1,0,0,response3disk,,5,-11,-0.5,1,0,0,rectangle,-11,-0.5,1,0,0,-11,-0.5,1,0,0,0,25,25,49,1,,,,,,,,
,,,,,,,,,,,,,FF,,,,,,,,3.1494,,,,,,,,,,,,,,,,,,,,,,60e435add197abec7bebe435,60e565ada326ed4b6c94435e,2021-07-07_10h57.04.938,Simcolourproject_2stim_asymm_v5,2020.2.10,Win32,60,60e52e7cfedb1dae636df45f,,,,,,,,,2300,-30,71.5,1,0,0,response7disk,,0,-3,10.5,1,0,0,rectangle,-3,10.5,1,0,0,-3,10.5,1,0,0,0,26,26,30,1,,,,,,,,
,,,,,,,,,,,,,FF,,,,,,,,0.8823,,,,,,,,,,,,,,,,,,,,,,60e435add197abec7bebe435,60e565ada326ed4b6c94435e,2021-07-07_10h57.04.938,Simcolourproject_2stim_asymm_v5,2020.2.10,Win32,60,60e52e7cfedb1dae636df45f,,,,,,,,,1834,-72,37.5,1,0,0,response7disk,,1,-16,10.5,1,0,0,rectangle,-16,10.5,1,0,0,-16,10.5,1,0,0,0,27,27,63,1,,,,,,,,
,,,,,,,,,,,,,FF,,,,,,,,1.2169,,,,,,,,,,,,,,,,,,,,,,60e435add197abec7bebe435,60e565ada326ed4b6c94435e,2021-07-07_10h57.04.938,Simcolourproject_2stim_asymm_v5,2020.2.10,Win32,60,60e52e7cfedb1dae636df45f,,,,,,,,,807,-29,-61.5,1,0,0,response5disk,,3,-3,-6.5,1,0,0,rectangle,-3,-6.5,1,0,0,-3,-6.5,1,0,0,0,28,28,144,1,,,,,,,,
,,,,,,,,,,,,,FF,,,,,,,,1.8668,,,,,,,,,,,,,,,,,,,,,,60e435add197abec7bebe435,60e565ada326ed4b6c94435e,2021-07-07_10h57.04.938,Simcolourproject_2stim_asymm_v5,2020.2.10,Win32,60,60e52e7cfedb1dae636df45f,,,,,,,,,1802,51,60.5,1,0,0,response1disk,,7,16,12.5,1,0,0,rectangle,16,12.5,1,0,0,16,12.5,1,0,0,0,29,29,62,1,,,,,,,,
,,,,,,,,,,,,,FF,,,,,,,,1.1974,,,,,,,,,,,,,,,,,,,,,,60e435add197abec7bebe435,60e565ada326ed4b6c94435e,2021-07-07_10h57.04.938,Simcolourproject_2stim_asymm_v5,2020.2.10,Win32,60,60e52e7cfedb1dae636df45f,,,,,,,,,2939,37,-57.5,1,0,0,response3disk,,4,6,0.5,1,0,0,rectangle,57,-37.5,1,0,0,0,-1.5,1,0,0,0,30,30,104,1,,response3disk_3,TRUE,5,5,"[215,25,45,87,260,279,61,207,200,192,130,317,138,106,31,246,62,111,61,165]",1.4041,rectangle
,,,,,,,,,,,,,FF,,,,,,,,2.4531,,,,,,,,,,,,,,,,,,,,,,60e435add197abec7bebe435,60e565ada326ed4b6c94435e,2021-07-07_10h57.04.938,Simcolourproject_2stim_asymm_v5,2020.2.10,Win32,60,60e52e7cfedb1dae636df45f,,,,,,,,,2625,-51,-72.5,1,0,0,response5disk,,3,-1,-7.5,1,0,0,rectangle,-1,-7.5,1,0,0,-1,-7.5,1,0,0,0,31,31,4,1,,,,,,,,
,,,,,,,,,,,,,FF,,,,,,,,1.7469,,,,,,,,,,,,,,,,,,,,,,60e435add197abec7bebe435,60e565ada326ed4b6c94435e,2021-07-07_10h57.04.938,Simcolourproject_2stim_asymm_v5,2020.2.10,Win32,60,60e52e7cfedb1dae636df45f,,,,,,,,,521,-69,-31.5,1,0,0,response5disk,,2,7,-2.5,1,0,0,rectangle,7,-2.5,1,0,0,7,-2.5,1,0,0,0,32,32,108,1,,,,,,,,
,,,,,,,,,,,,,FF,,,,,,,,1.0318,,,,,,,,,,,,,,,,,,,,,,60e435add197abec7bebe435,60e565ada326ed4b6c94435e,2021-07-07_10h57.04.938,Simcolourproject_2stim_asymm_v5,2020.2.10,Win32,60,60e52e7cfedb1dae636df45f,,,,,,,,,1718,65,-30.5,1,0,0,response3disk,,5,15,-8.5,1,0,0,rectangle,15,-8.5,1,0,0,15,-8.5,1,0,0,0,33,33,153,1,,,,,,,,
,,,,,,,,,,,,,FF,,,,,,,,1.5046,,,,,,,,,,,,,,,,,,,,,,60e435add197abec7bebe435,60e565ada326ed4b6c94435e,2021-07-07_10h57.04.938,Simcolourproject_2stim_asymm_v5,2020.2.10,Win32,60,60e52e7cfedb1dae636df45f,,,,,,,,,2444,-29,48.5,1,0,0,response7disk,,0,-17,11.5,1,0,0,rectangle,-17,11.5,1,0,0,-17,11.5,1,0,0,0,34,34,24,1,,,,,,,,
,,,,,,,,,,,,,FF,,,,,,,,1.1787,,,,,,,,,,,,,,,,,,,,,,60e435add197abec7bebe435,60e565ada326ed4b6c94435e,2021-07-07_10h57.04.938,Simcolourproject_2stim_asymm_v5,2020.2.10,Win32,60,60e52e7cfedb1dae636df45f,,,,,,,,,1524,36,-25.5,1,0,0,response3disk,,5,17,-6.5,1,0,0,rectangle,17,-6.5,1,0,0,17,-6.5,1,0,0,0,35,35,5,1,,,,,,,,
,,,,,,,,,,,,,FF,,,,,,,,5.7821,,,,,,,,,,,,,,,,,,,,,,60e435add197abec7bebe435,60e565ada326ed4b6c94435e,2021-07-07_10h57.04.938,Simcolourproject_2stim_asymm_v5,2020.2.10,Win32,60,60e52e7cfedb1dae636df45f,,,,,,,,,3975,-24,-43.5,1,0,0,response5disk,,3,22,-1.5,1,0,0,rectangle,22,-1.5,1,0,0,22,-1.5,1,0,0,0,36,36,110,1,,,,,,,,
,,,,,,,,,,,,,FF,,,,,,,,3.3823,,,,,,,,,,,,,,,,,,,,,,60e435add197abec7bebe435,60e565ada326ed4b6c94435e,2021-07-07_10h57.04.938,Simcolourproject_2stim_asymm_v5,2020.2.10,Win32,60,60e52e7cfedb1dae636df45f,,,,,,,,,585,79,-61.5,1,0,0,response3disk,,5,2,-6.5,1,0,0,rectangle,2,-6.5,1,0,0,2,-6.5,1,0,0,0,37,37,53,1,,,,,,,,
,,,,,,,,,,,,,FF,,,,,,,,2.2483,,,,,,,,,,,,,,,,,,,,,,60e435add197abec7bebe435,60e565ada326ed4b6c94435e,2021-07-07_10h57.04.938,Simcolourproject_2stim_asymm_v5,2020.2.10,Win32,60,60e52e7cfedb1dae636df45f,,,,,,,,,2826,-38,52.5,1,0,0,response7disk,,0,6,1.5,1,0,0,rectangle,6,1.5,1,0,0,6,1.5,1,0,0,0,38,38,121,1,,,,,,,,
,,,,,,,,,,,,,FF,,,,,,,,2.9494,,,,,,,,,,,,,,,,,,,,,,60e435add197abec7bebe435,60e565ada326ed4b6c94435e,2021-07-07_10h57.04.938,Simcolourproject_2stim_asymm_v5,2020.2.10,Win32,60,60e52e7cfedb1dae636df45f,,,,,,,,,2099,-41,66.5,1,0,0,response7disk,,0,0,8.5,1,0,0,rectangle,0,8.5,1,0,0,0,8.5,1,0,0,0,39,39,130,1,,,,,,,,
,,,,,,,,,,,,,FF,,,,,,,,1.1348,,,,,,,,,,,,,,,,,,,,,,60e435add197abec7bebe435,60e565ada326ed4b6c94435e,2021-07-07_10h57.04.938,Simcolourproject_2stim_asymm_v5,2020.2.10,Win32,60,60e52e7cfedb1dae636df45f,,,,,,,,,405,-30,-41.5,1,0,0,response5disk,,3,-4,0.5,1,0,0,rectangle,-4,0.5,1,0,0,-4,0.5,1,0,0,0,40,40,54,1,,,,,,,,
,,,,,,,,,,,,,FF,,,,,,,,1.5668,,,,,,,,,,,,,,,,,,,,,,60e435add197abec7bebe435,60e565ada326ed4b6c94435e,2021-07-07_10h57.04.938,Simcolourproject_2stim_asymm_v5,2020.2.10,Win32,60,60e52e7cfedb1dae636df45f,,,,,,,,,687,42,-52.5,1,0,0,response3disk,,4,15,-8.5,1,0,0,rectangle,15,-8.5,1,0,0,15,-8.5,1,0,0,0,41,41,128,1,,,,,,,,
,,,,,,,,,,,,,FF,,,,,,,,1.3129,,,,,,,,,,,,,,,,,,,,,,60e435add197abec7bebe435,60e565ada326ed4b6c94435e,2021-07-07_10h57.04.938,Simcolourproject_2stim_asymm_v5,2020.2.10,Win32,60,60e52e7cfedb1dae636df45f,,,,,,,,,2556,-18,47.5,1,0,0,response7disk,,0,10,-5.5,1,0,0,rectangle,10,-5.5,1,0,0,10,-5.5,1,0,0,0,42,42,35,1,,,,,,,,
,,,,,,,,,,,,,FF,,,,,,,,2.9168,,,,,,,,,,,,,,,,,,,,,,60e435add197abec7bebe435,60e565ada326ed4b6c94435e,2021-07-07_10h57.04.938,Simcolourproject_2stim_asymm_v5,2020.2.10,Win32,60,60e52e7cfedb1dae636df45f,,,,,,,,,4090,-28,42.5,1,0,0,response7disk,,0,-17,8.5,1,0,0,rectangle,-17,8.5,1,0,0,-17,8.5,1,0,0,0,43,43,93,1,,,,,,,,
,,,,,,,,,,,,,FF,,,,,,,,2.035,,,,,,,,,,,,,,,,,,,,,,60e435add197abec7bebe435,60e565ada326ed4b6c94435e,2021-07-07_10h57.04.938,Simcolourproject_2stim_asymm_v5,2020.2.10,Win32,60,60e52e7cfedb1dae636df45f,,,,,,,,,3989,-47,-42.5,1,0,0,response5disk,,2,-29,5.5,1,0,0,rectangle,70,24.5,1,0,0,-15,-7.5,1,0,0,0,44,44,82,1,,response1disk_3,TRUE,6,6,"[215,25,45,87,260,279,61,207,200,192,130,317,138,106,31,246,62,111,61,165]",1.9885,rectangle
,,,,,,,,,,,,,FF,,,,,,,,1.6821,,,,,,,,,,,,,,,,,,,,,,60e435add197abec7bebe435,60e565ada326ed4b6c94435e,2021-07-07_10h57.04.938,Simcolourproject_2stim_asymm_v5,2020.2.10,Win32,60,60e52e7cfedb1dae636df45f,,,,,,,,,657,-44,-57.5,1,0,0,response5disk,,3,-4,-1.5,1,0,0,rectangle,-4,-1.5,1,0,0,-4,-1.5,1,0,0,0,45,45,38,1,,,,,,,,
,,,,,,,,,,,,,FF,,,,,,,,1.2496,,,,,,,,,,,,,,,,,,,,,,60e435add197abec7bebe435,60e565ada326ed4b6c94435e,2021-07-07_10h57.04.938,Simcolourproject_2stim_asymm_v5,2020.2.10,Win32,60,60e52e7cfedb1dae636df45f,,,,,,,,,2445,35,-31.5,1,0,0,response3disk,,5,-1,-6.5,1,0,0,rectangle,-1,-6.5,1,0,0,-1,-6.5,1,0,0,0,46,46,3,1,,,,,,,,
,,,,,,,,,,,,,FF,,,,,,,,1.6167,,,,,,,,,,,,,,,,,,,,,,60e435add197abec7bebe435,60e565ada326ed4b6c94435e,2021-07-07_10h57.04.938,Simcolourproject_2stim_asymm_v5,2020.2.10,Win32,60,60e52e7cfedb1dae636df45f,,,,,,,,,4088,50,-38.5,1,0,0,response3disk,,5,4,-6.5,1,0,0,rectangle,4,-6.5,1,0,0,4,-6.5,1,0,0,0,47,47,12,1,,,,,,,,
,,,,,,,,,,,,,FF,,,,,,,,2.434,,,,,,,,,,,,,,,,,,,,,,60e435add197abec7bebe435,60e565ada326ed4b6c94435e,2021-07-07_10h57.04.938,Simcolourproject_2stim_asymm_v5,2020.2.10,Win32,60,60e52e7cfedb1dae636df45f,,,,,,,,,3371,52,22.5,1,0,0,response1disk,,6,19,5.5,1,0,0,rectangle,19,5.5,1,0,0,19,5.5,1,0,0,0,48,48,15,1,,,,,,,,
,,,,,,,,,,,,,FF,,,,,,,,1.0002,,,,,,,,,,,,,,,,,,,,,,60e435add197abec7bebe435,60e565ada326ed4b6c94435e,2021-07-07_10h57.04.938,Simcolourproject_2stim_asymm_v5,2020.2.10,Win32,60,60e52e7cfedb1dae636df45f,,,,,,,,,4357,-26,45.5,1,0,0,response7disk,,0,12,-7.5,1,0,0,rectangle,12,-7.5,1,0,0,12,-7.5,1,0,0,0,49,49,131,1,,,,,,,,
,,,,,,,,,,,,,FF,,,,,,,,0.967,,,,,,,,,,,,,,,,,,,,,,60e435add197abec7bebe435,60e565ada326ed4b6c94435e,2021-07-07_10h57.04.938,Simcolourproject_2stim_asymm_v5,2020.2.10,Win32,60,60e52e7cfedb1dae636df45f,,,,,,,,,3579,-20,-36.5,1,0,0,response5disk,,3,9,3.5,1,0,0,rectangle,9,3.5,1,0,0,9,3.5,1,0,0,0,50,50,8,1,,,,,,,,
,,,,,,,,,,,,,FF,,,,,,,,0.9491,,,,,,,,,,,,,,,,,,,,,,60e435add197abec7bebe435,60e565ada326ed4b6c94435e,2021-07-07_10h57.04.938,Simcolourproject_2stim_asymm_v5,2020.2.10,Win32,60,60e52e7cfedb1dae636df45f,,,,,,,,,253,-42,31.5,1,0,0,response7disk,,1,13,-1.5,1,0,0,rectangle,13,-1.5,1,0,0,13,-1.5,1,0,0,0,51,51,125,1,,,,,,,,
,,,,,,,,,,,,,FF,,,,,,,,2.5322,,,,,,,,,,,,,,,,,,,,,,60e435add197abec7bebe435,60e565ada326ed4b6c94435e,2021-07-07_10h57.04.938,Simcolourproject_2stim_asymm_v5,2020.2.10,Win32,60,60e52e7cfedb1dae636df45f,,,,,,,,,831,-38,-20.5,1,0,0,response5disk,,2,13,-6.5,1,0,0,rectangle,13,-6.5,1,0,0,13,-6.5,1,0,0,0,52,52,134,1,,,,,,,,
,,,,,,,,,,,,,FF,,,,,,,,1.0996,,,,,,,,,,,,,,,,,,,,,,60e435add197abec7bebe435,60e565ada326ed4b6c94435e,2021-07-07_10h57.04.938,Simcolourproject_2stim_asymm_v5,2020.2.10,Win32,60,60e52e7cfedb1dae636df45f,,,,,,,,,519,47,-23.5,1,0,0,response3disk,,5,7,-4.5,1,0,0,rectangle,7,-4.5,1,0,0,7,-4.5,1,0,0,0,53,53,138,1,,,,,,,,
,,,,,,,,,,,,,FF,,,,,,,,1.1156,,,,,,,,,,,,,,,,,,,,,,60e435add197abec7bebe435,60e565ada326ed4b6c94435e,2021-07-07_10h57.04.938,Simcolourproject_2stim_asymm_v5,2020.2.10,Win32,60,60e52e7cfedb1dae636df45f,,,,,,,,,2360,-26,52.5,1,0,0,response7disk,,0,29,6.5,1,0,0,rectangle,29,6.5,1,0,0,29,6.5,1,0,0,0,54,54,117,1,,,,,,,,
,,,,,,,,,,,,,FF,,,,,,,,1.0999,,,,,,,,,,,,,,,,,,,,,,60e435add197abec7bebe435,60e565ada326ed4b6c94435e,2021-07-07_10h57.04.938,Simcolourproject_2stim_asymm_v5,2020.2.10,Win32,60,60e52e7cfedb1dae636df45f,,,,,,,,,3648,23,47.5,1,0,0,response1disk,,7,-3,9.5,1,0,0,rectangle,-3,9.5,1,0,0,-3,9.5,1,0,0,0,55,55,67,1,,,,,,,,
,,,,,,,,,,,,,FF,,,,,,,,1.0828,,,,,,,,,,,,,,,,,,,,,,60e435add197abec7bebe435,60e565ada326ed4b6c94435e,2021-07-07_10h57.04.938,Simcolourproject_2stim_asymm_v5,2020.2.10,Win32,60,60e52e7cfedb1dae636df45f,,,,,,,,,3276,-40,-58.5,1,0,0,response5disk,,3,-30,-2.5,1,0,0,rectangle,-30,-2.5,1,0,0,-30,-2.5,1,0,0,0,56,56,133,1,,,,,,,,
,,,,,,,,,,,,,FF,,,,,,,,0.7336,,,,,,,,,,,,,,,,,,,,,,60e435add197abec7bebe435,60e565ada326ed4b6c94435e,2021-07-07_10h57.04.938,Simcolourproject_2stim_asymm_v5,2020.2.10,Win32,60,60e52e7cfedb1dae636df45f,,,,,,,,,1509,-52,-18.5,1,0,0,response5disk,,2,-21,0.5,1,0,0,rectangle,-21,0.5,1,0,0,-21,0.5,1,0,0,0,57,57,45,1,,,,,,,,
,,,,,,,,,,,,,FF,,,,,,,,0.7833,,,,,,,,,,,,,,,,,,,,,,60e435add197abec7bebe435,60e565ada326ed4b6c94435e,2021-07-07_10h57.04.938,Simcolourproject_2stim_asymm_v5,2020.2.10,Win32,60,60e52e7cfedb1dae636df45f,,,,,,,,,882,44,-34.5,1,0,0,response3disk,,5,7,-9.5,1,0,0,rectangle,7,-9.5,1,0,0,7,-9.5,1,0,0,0,58,58,37,1,,,,,,,,
,,,,,,,,,,,,,FF,,,,,,,,0.7164,,,,,,,,,,,,,,,,,,,,,,60e435add197abec7bebe435,60e565ada326ed4b6c94435e,2021-07-07_10h57.04.938,Simcolourproject_2stim_asymm_v5,2020.2.10,Win32,60,60e52e7cfedb1dae636df45f,,,,,,,,,2187,-31,-40.5,1,0,0,response5disk,,3,-8,-5.5,1,0,0,rectangle,-8,-5.5,1,0,0,-8,-5.5,1,0,0,0,59,59,69,1,,,,,,,,
,,,,,,,,,,,,,FF,,,,,,,,1.3672,,,,,,,,,,,,,,,,,,,,,,60e435add197abec7bebe435,60e565ada326ed4b6c94435e,2021-07-07_10h57.04.938,Simcolourproject_2stim_asymm_v5,2020.2.10,Win32,60,60e52e7cfedb1dae636df45f,,,,,,,,,528,45,-22.5,1,0,0,response3disk,,5,11,-5.5,1,0,0,rectangle,-27,58.5,1,0,0,-9,-3.5,1,0,0,0,60,60,119,1,,response7disk_3,TRUE,0,0,"[215,25,45,87,260,279,61,207,200,192,130,317,138,106,31,246,62,111,61,165]",1.783,rectangle
,,,,,,,,,,,,,FF,,,,,,,,1.0654,,,,,,,,,,,,,,,,,,,,,,60e435add197abec7bebe435,60e565ada326ed4b6c94435e,2021-07-07_10h57.04.938,Simcolourproject_2stim_asymm_v5,2020.2.10,Win32,60,60e52e7cfedb1dae636df45f,,,,,,,,,3188,-40,-22.5,1,0,0,response5disk,,2,-5,-4.5,1,0,0,rectangle,-48,33.5,1,0,0,-6,3.5,1,0,0,0,61,61,84,1,,response7disk_3,TRUE,1,1,"[215,25,45,87,260,279,61,207,200,192,130,317,138,106,31,246,62,111,61,165]",1.1655,rectangle
,,,,,,,,,,,,,FF,,,,,,,,0.9833,,,,,,,,,,,,,,,,,,,,,,60e435add197abec7bebe435,60e565ada326ed4b6c94435e,2021-07-07_10h57.04.938,Simcolourproject_2stim_asymm_v5,2020.2.10,Win32,60,60e52e7cfedb1dae636df45f,,,,,,,,,3599,41,-29.5,1,0,0,response3disk,,5,12,-8.5,1,0,0,rectangle,12,-8.5,1,0,0,12,-8.5,1,0,0,0,62,62,103,1,,,,,,,,
,,,,,,,,,,,,,FF,,,,,,,,1.4508,,,,,,,,,,,,,,,,,,,,,,60e435add197abec7bebe435,60e565ada326ed4b6c94435e,2021-07-07_10h57.04.938,Simcolourproject_2stim_asymm_v5,2020.2.10,Win32,60,60e52e7cfedb1dae636df45f,,,,,,,,,3349,43,-36.5,1,0,0,response3disk,,5,15,-8.5,1,0,0,rectangle,15,-8.5,1,0,0,15,-8.5,1,0,0,0,63,63,57,1,,,,,,,,
,,,,,,,,,,,,,FF,,,,,,,,0.9504,,,,,,,,,,,,,,,,,,,,,,60e435add197abec7bebe435,60e565ada326ed4b6c94435e,2021-07-07_10h57.04.938,Simcolourproject_2stim_asymm_v5,2020.2.10,Win32,60,60e52e7cfedb1dae636df45f,,,,,,,,,3568,-33,-36.5,1,0,0,response5disk,,3,-6,-6.5,1,0,0,rectangle,-6,-6.5,1,0,0,-6,-6.5,1,0,0,0,64,64,20,1,,,,,,,,
,,,,,,,,,,,,,FF,,,,,,,,1.9838,,,,,,,,,,,,,,,,,,,,,,60e435add197abec7bebe435,60e565ada326ed4b6c94435e,2021-07-07_10h57.04.938,Simcolourproject_2stim_asymm_v5,2020.2.10,Win32,60,60e52e7cfedb1dae636df45f,,,,,,,,,1228,43,17.5,1,0,0,response1disk,,6,-3,-0.5,1,0,0,rectangle,-3,-0.5,1,0,0,-3,-0.5,1,0,0,0,65,65,64,1,,,,,,,,
,,,,,,,,,,,,,FF,,,,,,,,1.0667,,,,,,,,,,,,,,,,,,,,,,60e435add197abec7bebe435,60e565ada326ed4b6c94435e,2021-07-07_10h57.04.938,Simcolourproject_2stim_asymm_v5,2020.2.10,Win32,60,60e52e7cfedb1dae636df45f,,,,,,,,,3679,-34,42.5,1,0,0,response7disk,,0,-12,3.5,1,0,0,rectangle,-12,3.5,1,0,0,-12,3.5,1,0,0,0,66,66,73,1,,,,,,,,
,,,,,,,,,,,,,FF,,,,,,,,0.9666,,,,,,,,,,,,,,,,,,,,,,60e435add197abec7bebe435,60e565ada326ed4b6c94435e,2021-07-07_10h57.04.938,Simcolourproject_2stim_asymm_v5,2020.2.10,Win32,60,60e52e7cfedb1dae636df45f,,,,,,,,,1575,-31,-43.5,1,0,0,response5disk,,3,-8,-9.5,1,0,0,rectangle,-8,-9.5,1,0,0,-8,-9.5,1,0,0,0,67,67,142,1,,,,,,,,
,,,,,,,,,,,,,FF,,,,,,,,0.9505,,,,,,,,,,,,,,,,,,,,,,60e435add197abec7bebe435,60e565ada326ed4b6c94435e,2021-07-07_10h57.04.938,Simcolourproject_2stim_asymm_v5,2020.2.10,Win32,60,60e52e7cfedb1dae636df45f,,,,,,,,,2345,43,28.5,1,0,0,response1disk,,6,14,1.5,1,0,0,rectangle,14,1.5,1,0,0,14,1.5,1,0,0,0,68,68,79,1,,,,,,,,
,,,,,,,,,,,,,FF,,,,,,,,1.2827,,,,,,,,,,,,,,,,,,,,,,60e435add197abec7bebe435,60e565ada326ed4b6c94435e,2021-07-07_10h57.04.938,Simcolourproject_2stim_asymm_v5,2020.2.10,Win32,60,60e52e7cfedb1dae636df45f,,,,,,,,,74,34,-17.5,1,0,0,response3disk,,5,23,-2.5,1,0,0,rectangle,23,-2.5,1,0,0,23,-2.5,1,0,0,0,69,69,101,1,,,,,,,,
,,,,,,,,,,,,,FF,,,,,,,,1.3494,,,,,,,,,,,,,,,,,,,,,,60e435add197abec7bebe435,60e565ada326ed4b6c94435e,2021-07-07_10h57.04.938,Simcolourproject_2stim_asymm_v5,2020.2.10,Win32,60,60e52e7cfedb1dae636df45f,,,,,,,,,2464,43,-31.5,1,0,0,response3disk,,5,17,-7.5,1,0,0,rectangle,17,-7.5,1,0,0,17,-7.5,1,0,0,0,70,70,42,1,,,,,,,,
,,,,,,,,,,,,,FF,,,,,,,,0.7177,,,,,,,,,,,,,,,,,,,,,,60e435add197abec7bebe435,60e565ada326ed4b6c94435e,2021-07-07_10h57.04.938,Simcolourproject_2stim_asymm_v5,2020.2.10,Win32,60,60e52e7cfedb1dae636df45f,,,,,,,,,157,30,-48.5,1,0,0,response3disk,,4,19,-11.5,1,0,0,rectangle,19,-11.5,1,0,0,19,-11.5,1,0,0,0,71,71,6,1,,,,,,,,
,,,,,,,,,,,,,FF,,,,,,,,1.6496,,,,,,,,,,,,,,,,,,,,,,60e435add197abec7bebe435,60e565ada326ed4b6c94435e,2021-07-07_10h57.04.938,Simcolourproject_2stim_asymm_v5,2020.2.10,Win32,60,60e52e7cfedb1dae636df45f,,,,,,,,,349,-28,35.5,1,0,0,response7disk,,0,-19,-9.5,1,0,0,rectangle,-19,-9.5,1,0,0,-19,-9.5,1,0,0,0,72,72,61,1,,,,,,,,
,,,,,,,,,,,,,FF,,,,,,,,0.8498,,,,,,,,,,,,,,,,,,,,,,60e435add197abec7bebe435,60e565ada326ed4b6c94435e,2021-07-07_10h57.04.938,Simcolourproject_2stim_asymm_v5,2020.2.10,Win32,60,60e52e7cfedb1dae636df45f,,,,,,,,,3120,45,-26.5,1,0,0,response3disk,,5,21,-11.5,1,0,0,rectangle,21,-11.5,1,0,0,21,-11.5,1,0,0,0,73,73,97,1,,,,,,,,
,,,,,,,,,,,,,FF,,,,,,,,1.1996,,,,,,,,,,,,,,,,,,,,,,60e435add197abec7bebe435,60e565ada326ed4b6c94435e,2021-07-07_10h57.04.938,Simcolourproject_2stim_asymm_v5,2020.2.10,Win32,60,60e52e7cfedb1dae636df45f,,,,,,,,,3799,22,47.5,1,0,0,response1disk,,7,5,-0.5,1,0,0,rectangle,5,-0.5,1,0,0,5,-0.5,1,0,0,0,74,74,115,1,,,,,,,,
,,,,,,,,,,,,,FF,,,,,,,,0.7331,,,,,,,,,,,,,,,,,,,,,,60e435add197abec7bebe435,60e565ada326ed4b6c94435e,2021-07-07_10h57.04.938,Simcolourproject_2stim_asymm_v5,2020.2.10,Win32,60,60e52e7cfedb1dae636df45f,,,,,,,,,951,64,21.5,1,0,0,response1disk,,6,12,13.5,1,0,0,rectangle,12,13.5,1,0,0,12,13.5,1,0,0,0,75,75,96,1,,,,,,,,
,,,,,,,,,,,,,FF,,,,,,,,0.6994,,,,,,,,,,,,,,,,,,,,,,60e435add197abec7bebe435,60e565ada326ed4b6c94435e,2021-07-07_10h57.04.938,Simcolourproject_2stim_asymm_v5,2020.2.10,Win32,60,60e52e7cfedb1dae636df45f,,,,,,,,,3896,47,-20.5,1,0,0,response3disk,,5,23,-7.5,1,0,0,rectangle,23,-7.5,1,0,0,23,-7.5,1,0,0,0,76,76,122,1,,,,,,,,
,,,,,,,,,,,,,FF,,,,,,,,1.0333,,,,,,,,,,,,,,,,,,,,,,60e435add197abec7bebe435,60e565ada326ed4b6c94435e,2021-07-07_10h57.04.938,Simcolourproject_2stim_asymm_v5,2020.2.10,Win32,60,60e52e7cfedb1dae636df45f,,,,,,,,,75,54,22.5,1,0,0,response1disk,,6,10,10.5,1,0,0,rectangle,10,10.5,1,0,0,10,10.5,1,0,0,0,77,77,107,1,,,,,,,,
,,,,,,,,,,,,,FF,,,,,,,,1.8827,,,,,,,,,,,,,,,,,,,,,,60e435add197abec7bebe435,60e565ada326ed4b6c94435e,2021-07-07_10h57.04.938,Simcolourproject_2stim_asymm_v5,2020.2.10,Win32,60,60e52e7cfedb1dae636df45f,,,,,,,,,2432,-32,-35.5,1,0,0,response5disk,,3,-9,-3.5,1,0,0,rectangle,-9,-3.5,1,0,0,-9,-3.5,1,0,0,0,78,78,99,1,,,,,,,,
,,,,,,,,,,,,,FF,,,,,,,,0.7496,,,,,,,,,,,,,,,,,,,,,,60e435add197abec7bebe435,60e565ada326ed4b6c94435e,2021-07-07_10h57.04.938,Simcolourproject_2stim_asymm_v5,2020.2.10,Win32,60,60e52e7cfedb1dae636df45f,,,,,,,,,2995,37,25.5,1,0,0,response1disk,,6,-1,16.5,1,0,0,rectangle,-1,16.5,1,0,0,-1,16.5,1,0,0,0,79,79,105,1,,,,,,,,
,,,,,,,,,,,,,FF,,,,,,,,1.5335,,,,,,,,,,,,,,,,,,,,,,60e435add197abec7bebe435,60e565ada326ed4b6c94435e,2021-07-07_10h57.04.938,Simcolourproject_2stim_asymm_v5,2020.2.10,Win32,60,60e52e7cfedb1dae636df45f,,,,,,,,,1753,33,-23.5,1,0,0,response3disk,,5,6,-8.5,1,0,0,rectangle,6,-8.5,1,0,0,6,-8.5,1,0,0,0,80,80,21,1,,,,,,,,
,,,,,,,,,,,,,FF,,,,,,,,9.8984,,,,,,,,,,,,,,,,,,,,,,60e435add197abec7bebe435,60e565ada326ed4b6c94435e,2021-07-07_10h57.04.938,Simcolourproject_2stim_asymm_v5,2020.2.10,Win32,60,60e52e7cfedb1dae636df45f,,,,,,,,,2107,68,26.5,1,0,0,response1disk,,6,12,7.5,1,0,0,rectangle,12,7.5,1,0,0,12,7.5,1,0,0,0,81,81,120,1,,,,,,,,
,,,,,,,,,,,,,FF,,,,,,,,0.5518,,,,,,,,,,,,,,,,,,,,,,60e435add197abec7bebe435,60e565ada326ed4b6c94435e,2021-07-07_10h57.04.938,Simcolourproject_2stim_asymm_v5,2020.2.10,Win32,60,60e52e7cfedb1dae636df45f,,,,,,,,,3445,60,-29.5,1,0,0,response3disk,,5,27,-1.5,1,0,0,rectangle,27,-1.5,1,0,0,27,-1.5,1,0,0,0,82,82,149,1,,,,,,,,
,,,,,,,,,,,,,FF,,,,,,,,1.4326,,,,,,,,,,,,,,,,,,,,,,60e435add197abec7bebe435,60e565ada326ed4b6c94435e,2021-07-07_10h57.04.938,Simcolourproject_2stim_asymm_v5,2020.2.10,Win32,60,60e52e7cfedb1dae636df45f,,,,,,,,,873,60,-33.5,1,0,0,response3disk,,5,-18,-4.5,1,0,0,rectangle,-18,-4.5,1,0,0,-18,-4.5,1,0,0,0,83,83,81,1,,,,,,,,
,,,,,,,,,,,,,FF,,,,,,,,0.6993,,,,,,,,,,,,,,,,,,,,,,60e435add197abec7bebe435,60e565ada326ed4b6c94435e,2021-07-07_10h57.04.938,Simcolourproject_2stim_asymm_v5,2020.2.10,Win32,60,60e52e7cfedb1dae636df45f,,,,,,,,,3247,-32,-61.5,1,0,0,response5disk,,3,-3,-9.5,1,0,0,rectangle,-3,-9.5,1,0,0,-3,-9.5,1,0,0,0,84,84,10,1,,,,,,,,
,,,,,,,,,,,,,FF,,,,,,,,2.0506,,,,,,,,,,,,,,,,,,,,,,60e435add197abec7bebe435,60e565ada326ed4b6c94435e,2021-07-07_10h57.04.938,Simcolourproject_2stim_asymm_v5,2020.2.10,Win32,60,60e52e7cfedb1dae636df45f,,,,,,,,,3977,49,22.5,1,0,0,response1disk,,6,10,-7.5,1,0,0,rectangle,10,-7.5,1,0,0,10,-7.5,1,0,0,0,85,85,44,1,,,,,,,,
,,,,,,,,,,,,,FF,,,,,,,,0.7156,,,,,,,,,,,,,,,,,,,,,,60e435add197abec7bebe435,60e565ada326ed4b6c94435e,2021-07-07_10h57.04.938,Simcolourproject_2stim_asymm_v5,2020.2.10,Win32,60,60e52e7cfedb1dae636df45f,,,,,,,,,1024,31,-40.5,1,0,0,response3disk,,4,27,-7.5,1,0,0,rectangle,31,-66.5,1,0,0,16,-6.5,1,0,0,0,86,86,59,1,,response3disk_3,TRUE,4,4,"[215,25,45,87,260,279,61,207,200,192,130,317,138,106,31,246,62,111,61,165]",1.6998,rectangle
,,,,,,,,,,,,,FF,,,,,,,,0.8175,,,,,,,,,,,,,,,,,,,,,,60e435add197abec7bebe435,60e565ada326ed4b6c94435e,2021-07-07_10h57.04.938,Simcolourproject_2stim_asymm_v5,2020.2.10,Win32,60,60e52e7cfedb1dae636df45f,,,,,,,,,3283,47,-23.5,1,0,0,response3disk,,5,18,-1.5,1,0,0,rectangle,18,-1.5,1,0,0,18,-1.5,1,0,0,0,87,87,31,1,,,,,,,,
,,,,,,,,,,,,,FF,,,,,,,,12.3809,,,,,,,,,,,,,,,,,,,,,,60e435add197abec7bebe435,60e565ada326ed4b6c94435e,2021-07-07_10h57.04.938,Simcolourproject_2stim_asymm_v5,2020.2.10,Win32,60,60e52e7cfedb1dae636df45f,,,,,,,,,1510,53,-37.5,1,0,0,response3disk,,5,1,-6.5,1,0,0,rectangle,1,-6.5,1,0,0,1,-6.5,1,0,0,0,88,88,83,1,,,,,,,,
,,,,,,,,,,,,,FF,,,,,,,,1.8848,,,,,,,,,,,,,,,,,,,,,,60e435add197abec7bebe435,60e565ada326ed4b6c94435e,2021-07-07_10h57.04.938,Simcolourproject_2stim_asymm_v5,2020.2.10,Win32,60,60e52e7cfedb1dae636df45f,,,,,,,,,152,46,-59.5,1,0,0,response3disk,,4,5,-2.5,1,0,0,rectangle,5,-2.5,1,0,0,5,-2.5,1,0,0,0,89,89,156,1,,,,,,,,
,,,,,,,,,,,,,FF,,,,,,,,0.9006,,,,,,,,,,,,,,,,,,,,,,60e435add197abec7bebe435,60e565ada326ed4b6c94435e,2021-07-07_10h57.04.938,Simcolourproject_2stim_asymm_v5,2020.2.10,Win32,60,60e52e7cfedb1dae636df45f,,,,,,,,,1830,22,37.5,0,0,1,response1disk,,7,-4,2.5,1,0,1,rectangle,-4,2.5,1,0,1,-4,2.5,1,0,1,0,90,90,106,1,,,,,,,,
,,,,,,,,,,,,,FF,,,,,,,,1.3802,,,,,,,,,,,,,,,,,,,,,,60e435add197abec7bebe435,60e565ada326ed4b6c94435e,2021-07-07_10h57.04.938,Simcolourproject_2stim_asymm_v5,2020.2.10,Win32,60,60e52e7cfedb1dae636df45f,,,,,,,,,3327,57,79.5,1,0,1,response1disk,,7,27,5.5,1,0,1,rectangle,27,5.5,1,0,1,27,5.5,1,0,1,0,91,91,60,1,,,,,,,,
,,,,,,,,,,,,,FF,,,,,,,,0.4967,,,,,,,,,,,,,,,,,,,,,,60e435add197abec7bebe435,60e565ada326ed4b6c94435e,2021-07-07_10h57.04.938,Simcolourproject_2stim_asymm_v5,2020.2.10,Win32,60,60e52e7cfedb1dae636df45f,,,,,,,,,2736,59,-22.5,1,0,1,response3disk,,5,19,-5.5,1,0,1,rectangle,19,-5.5,1,0,1,19,-5.5,1,0,1,0,92,92,76,1,,,,,,,,
,,,,,,,,,,,,,FF,,,,,,,,0.7301,,,,,,,,,,,,,,,,,,,,,,60e435add197abec7bebe435,60e565ada326ed4b6c94435e,2021-07-07_10h57.04.938,Simcolourproject_2stim_asymm_v5,2020.2.10,Win32,60,60e52e7cfedb1dae636df45f,,,,,,,,,808,-45,-16.5,1,0,1,response5disk,,2,1,-5.5,1,0,1,rectangle,1,-5.5,1,0,1,1,-5.5,1,0,1,0,93,93,68,1,,,,,,,,
,,,,,,,,,,,,,FF,,,,,,,,0.6971,,,,,,,,,,,,,,,,,,,,,,60e435add197abec7bebe435,60e565ada326ed4b6c94435e,2021-07-07_10h57.04.938,Simcolourproject_2stim_asymm_v5,2020.2.10,Win32,60,60e52e7cfedb1dae636df45f,,,,,,,,,2172,43,-23.5,1,0,1,response3disk,,5,-5,3.5,1,0,1,rectangle,-5,3.5,1,0,1,-5,3.5,1,0,1,0,94,94,78,1,,,,,,,,
,,,,,,,,,,,,,FF,,,,,,,,1.2331,,,,,,,,,,,,,,,,,,,,,,60e435add197abec7bebe435,60e565ada326ed4b6c94435e,2021-07-07_10h57.04.938,Simcolourproject_2stim_asymm_v5,2020.2.10,Win32,60,60e52e7cfedb1dae636df45f,,,,,,,,,3388,-30,39.5,1,0,1,response7disk,,0,17,-12.5,1,0,1,rectangle,17,-12.5,1,0,1,17,-12.5,1,0,1,0,95,95,25,1,,,,,,,,
,,,,,,,,,,,,,FF,,,,,,,,0.8498,,,,,,,,,,,,,,,,,,,,,,60e435add197abec7bebe435,60e565ada326ed4b6c94435e,2021-07-07_10h57.04.938,Simcolourproject_2stim_asymm_v5,2020.2.10,Win32,60,60e52e7cfedb1dae636df45f,,,,,,,,,3454,44,-38.5,1,0,1,response3disk,,5,13,-9.5,1,0,1,rectangle,13,-9.5,1,0,1,13,-9.5,1,0,1,0,96,96,36,1,,,,,,,,
,,,,,,,,,,,,,FF,,,,,,,,0.9165,,,,,,,,,,,,,,,,,,,,,,60e435add197abec7bebe435,60e565ada326ed4b6c94435e,2021-07-07_10h57.04.938,Simcolourproject_2stim_asymm_v5,2020.2.10,Win32,60,60e52e7cfedb1dae636df45f,,,,,,,,,1610,-24,39.5,1,0,1,response7disk,,0,-3,-2.5,1,0,1,rectangle,-3,-2.5,1,0,1,-3,-2.5,1,0,1,0,97,97,74,1,,,,,,,,
,,,,,,,,,,,,,FF,,,,,,,,0.8384,,,,,,,,,,,,,,,,,,,,,,60e435add197abec7bebe435,60e565ada326ed4b6c94435e,2021-07-07_10h57.04.938,Simcolourproject_2stim_asymm_v5,2020.2.10,Win32,60,60e52e7cfedb1dae636df45f,,,,,,,,,2976,31,-38.5,1,0,1,response3disk,,4,5,-1.5,1,0,1,rectangle,5,-1.5,1,0,1,5,-1.5,1,0,1,0,98,98,129,1,,,,,,,,
,,,,,,,,,,,,,FF,,,,,,,,1.1631,,,,,,,,,,,,,,,,,,,,,,60e435add197abec7bebe435,60e565ada326ed4b6c94435e,2021-07-07_10h57.04.938,Simcolourproject_2stim_asymm_v5,2020.2.10,Win32,60,60e52e7cfedb1dae636df45f,,,,,,,,,3328,-41,33.5,1,0,1,response7disk,,1,11,1.5,1,0,1,rectangle,11,1.5,1,0,1,11,1.5,1,0,1,0,99,99,43,1,,,,,,,,
,,,,,,,,,,,,,FF,,,,,,,,0.7974,,,,,,,,,,,,,,,,,,,,,,60e435add197abec7bebe435,60e565ada326ed4b6c94435e,2021-07-07_10h57.04.938,Simcolourproject_2stim_asymm_v5,2020.2.10,Win32,60,60e52e7cfedb1dae636df45f,,,,,,,,,1558,52,17.5,1,0,1,response1disk,,6,20,9.5,1,0,1,rectangle,20,9.5,1,0,1,20,9.5,1,0,1,0,100,100,14,1,,,,,,,,
,,,,,,,,,,,,,FF,,,,,,,,1.3308,,,,,,,,,,,,,,,,,,,,,,60e435add197abec7bebe435,60e565ada326ed4b6c94435e,2021-07-07_10h57.04.938,Simcolourproject_2stim_asymm_v5,2020.2.10,Win32,60,60e52e7cfedb1dae636df45f,,,,,,,,,4128,-44,30.5,1,0,1,response7disk,,1,3,7.5,1,0,1,rectangle,3,7.5,1,0,1,3,7.5,1,0,1,0,101,101,141,1,,,,,,,,
,,,,,,,,,,,,,FF,,,,,,,,0.8016,,,,,,,,,,,,,,,,,,,,,,60e435add197abec7bebe435,60e565ada326ed4b6c94435e,2021-07-07_10h57.04.938,Simcolourproject_2stim_asymm_v5,2020.2.10,Win32,60,60e52e7cfedb1dae636df45f,,,,,,,,,3954,33,-48.5,1,0,1,response3disk,,4,-2,-8.5,1,0,1,rectangle,-2,-8.5,1,0,1,-2,-8.5,1,0,1,0,102,102,137,1,,,,,,,,
,,,,,,,,,,,,,FF,,,,,,,,0.7651,,,,,,,,,,,,,,,,,,,,,,60e435add197abec7bebe435,60e565ada326ed4b6c94435e,2021-07-07_10h57.04.938,Simcolourproject_2stim_asymm_v5,2020.2.10,Win32,60,60e52e7cfedb1dae636df45f,,,,,,,,,2154,38,-25.5,1,0,1,response3disk,,5,12,-10.5,1,0,1,rectangle,12,-10.5,1,0,1,12,-10.5,1,0,1,0,103,103,32,1,,,,,,,,
,,,,,,,,,,,,,FF,,,,,,,,1.0976,,,,,,,,,,,,,,,,,,,,,,60e435add197abec7bebe435,60e565ada326ed4b6c94435e,2021-07-07_10h57.04.938,Simcolourproject_2stim_asymm_v5,2020.2.10,Win32,60,60e52e7cfedb1dae636df45f,,,,,,,,,1385,-43,21.5,1,0,1,response7disk,,1,-11,-12.5,1,0,1,rectangle,-11,-12.5,1,0,1,-11,-12.5,1,0,1,0,104,104,89,1,,,,,,,,
,,,,,,,,,,,,,FF,,,,,,,,0.8347,,,,,,,,,,,,,,,,,,,,,,60e435add197abec7bebe435,60e565ada326ed4b6c94435e,2021-07-07_10h57.04.938,Simcolourproject_2stim_asymm_v5,2020.2.10,Win32,60,60e52e7cfedb1dae636df45f,,,,,,,,,2657,-34,-52.5,1,0,1,response5disk,,3,-22,-12.5,1,0,1,rectangle,-24,-59.5,1,0,1,3,0.5,1,0,1,0,105,105,33,1,,response5disk_3,TRUE,3,3,"[215,25,45,87,260,279,61,207,200,192,130,317,138,106,31,246,62,111,61,165]",1.8349,rectangle
,,,,,,,,,,,,,FF,,,,,,,,0.8504,,,,,,,,,,,,,,,,,,,,,,60e435add197abec7bebe435,60e565ada326ed4b6c94435e,2021-07-07_10h57.04.938,Simcolourproject_2stim_asymm_v5,2020.2.10,Win32,60,60e52e7cfedb1dae636df45f,,,,,,,,,3064,-40,-32.5,1,0,1,response5disk,,2,-15,-4.5,1,0,1,rectangle,-15,-4.5,1,0,1,-15,-4.5,1,0,1,0,106,106,55,1,,,,,,,,
,,,,,,,,,,,,,FF,,,,,,,,0.5478,,,,,,,,,,,,,,,,,,,,,,60e435add197abec7bebe435,60e565ada326ed4b6c94435e,2021-07-07_10h57.04.938,Simcolourproject_2stim_asymm_v5,2020.2.10,Win32,60,60e52e7cfedb1dae636df45f,,,,,,,,,4042,34,-44.5,1,0,1,response3disk,,4,-5,-0.5,1,0,1,rectangle,-5,-0.5,1,0,1,-5,-0.5,1,0,1,0,107,107,56,1,,,,,,,,
,,,,,,,,,,,,,FF,,,,,,,,0.7667,,,,,,,,,,,,,,,,,,,,,,60e435add197abec7bebe435,60e565ada326ed4b6c94435e,2021-07-07_10h57.04.938,Simcolourproject_2stim_asymm_v5,2020.2.10,Win32,60,60e52e7cfedb1dae636df45f,,,,,,,,,2555,-52,-22.5,1,0,1,response5disk,,2,-20,7.5,1,0,1,rectangle,-20,7.5,1,0,1,-20,7.5,1,0,1,0,108,108,58,1,,,,,,,,
,,,,,,,,,,,,,FF,,,,,,,,0.7505,,,,,,,,,,,,,,,,,,,,,,60e435add197abec7bebe435,60e565ada326ed4b6c94435e,2021-07-07_10h57.04.938,Simcolourproject_2stim_asymm_v5,2020.2.10,Win32,60,60e52e7cfedb1dae636df45f,,,,,,,,,541,-40,24.5,1,0,1,response7disk,,1,-1,-4.5,1,0,1,rectangle,-1,-4.5,1,0,1,-1,-4.5,1,0,1,0,109,109,71,1,,,,,,,,
,,,,,,,,,,,,,FF,,,,,,,,0.7001,,,,,,,,,,,,,,,,,,,,,,60e435add197abec7bebe435,60e565ada326ed4b6c94435e,2021-07-07_10h57.04.938,Simcolourproject_2stim_asymm_v5,2020.2.10,Win32,60,60e52e7cfedb1dae636df45f,,,,,,,,,1383,29,-48.5,1,0,1,response3disk,,4,11,-6.5,1,0,1,rectangle,-53,22.5,1,0,1,5,-16.5,1,0,1,0,110,110,27,1,,response7disk_3,TRUE,1,1,"[215,25,45,87,260,279,61,207,200,192,130,317,138,106,31,246,62,111,61,165]",1.6489,rectangle
,,,,,,,,,,,,,FF,,,,,,,,0.8009,,,,,,,,,,,,,,,,,,,,,,60e435add197abec7bebe435,60e565ada326ed4b6c94435e,2021-07-07_10h57.04.938,Simcolourproject_2stim_asymm_v5,2020.2.10,Win32,60,60e52e7cfedb1dae636df45f,,,,,,,,,2981,-46,-27.5,1,0,1,response5disk,,2,-11,-10.5,1,0,1,rectangle,-11,-10.5,1,0,1,-11,-10.5,1,0,1,0,111,111,52,1,,,,,,,,
,,,,,,,,,,,,,FF,,,,,,,,1.8998,,,,,,,,,,,,,,,,,,,,,,60e435add197abec7bebe435,60e565ada326ed4b6c94435e,2021-07-07_10h57.04.938,Simcolourproject_2stim_asymm_v5,2020.2.10,Win32,60,60e52e7cfedb1dae636df45f,,,,,,,,,477,43,-25.5,1,0,1,response3disk,,5,-1,6.5,1,0,1,rectangle,-1,6.5,1,0,1,-1,6.5,1,0,1,0,112,112,90,1,,,,,,,,
,,,,,,,,,,,,,FF,,,,,,,,0.8502,,,,,,,,,,,,,,,,,,,,,,60e435add197abec7bebe435,60e565ada326ed4b6c94435e,2021-07-07_10h57.04.938,Simcolourproject_2stim_asymm_v5,2020.2.10,Win32,60,60e52e7cfedb1dae636df45f,,,,,,,,,380,-33,-39.5,1,0,1,response5disk,,3,-10,-11.5,1,0,1,rectangle,-10,-11.5,1,0,1,-10,-11.5,1,0,1,0,113,113,41,1,,,,,,,,
,,,,,,,,,,,,,FF,,,,,,,,0.9174,,,,,,,,,,,,,,,,,,,,,,60e435add197abec7bebe435,60e565ada326ed4b6c94435e,2021-07-07_10h57.04.938,Simcolourproject_2stim_asymm_v5,2020.2.10,Win32,60,60e52e7cfedb1dae636df45f,,,,,,,,,3986,37,-27.5,1,0,1,response3disk,,5,20,-9.5,1,0,1,rectangle,20,-9.5,1,0,1,20,-9.5,1,0,1,0,114,114,50,1,,,,,,,,
,,,,,,,,,,,,,FF,,,,,,,,0.7666,,,,,,,,,,,,,,,,,,,,,,60e435add197abec7bebe435,60e565ada326ed4b6c94435e,2021-07-07_10h57.04.938,Simcolourproject_2stim_asymm_v5,2020.2.10,Win32,60,60e52e7cfedb1dae636df45f,,,,,,,,,3612,-53,-22.5,1,0,1,response5disk,,2,11,-5.5,1,0,1,rectangle,11,-5.5,1,0,1,11,-5.5,1,0,1,0,115,115,109,1,,,,,,,,
,,,,,,,,,,,,,FF,,,,,,,,1.0339,,,,,,,,,,,,,,,,,,,,,,60e435add197abec7bebe435,60e565ada326ed4b6c94435e,2021-07-07_10h57.04.938,Simcolourproject_2stim_asymm_v5,2020.2.10,Win32,60,60e52e7cfedb1dae636df45f,,,,,,,,,1661,63,22.5,1,0,1,response1disk,,6,28,-0.5,1,0,1,rectangle,28,-0.5,1,0,1,28,-0.5,1,0,1,0,116,116,66,1,,,,,,,,
,,,,,,,,,,,,,FF,,,,,,,,0.6678,,,,,,,,,,,,,,,,,,,,,,60e435add197abec7bebe435,60e565ada326ed4b6c94435e,2021-07-07_10h57.04.938,Simcolourproject_2stim_asymm_v5,2020.2.10,Win32,60,60e52e7cfedb1dae636df45f,,,,,,,,,296,41,-50.5,1,0,1,response3disk,,4,22,-2.5,1,0,1,rectangle,22,-2.5,1,0,1,22,-2.5,1,0,1,0,117,117,91,1,,,,,,,,
,,,,,,,,,,,,,FF,,,,,,,,0.9162,,,,,,,,,,,,,,,,,,,,,,60e435add197abec7bebe435,60e565ada326ed4b6c94435e,2021-07-07_10h57.04.938,Simcolourproject_2stim_asymm_v5,2020.2.10,Win32,60,60e52e7cfedb1dae636df45f,,,,,,,,,3030,63,-25.5,1,0,1,response3disk,,5,16,-9.5,1,0,1,rectangle,16,-9.5,1,0,1,16,-9.5,1,0,1,0,118,118,114,1,,,,,,,,
,,,,,,,,,,,,,FF,,,,,,,,0.8844,,,,,,,,,,,,,,,,,,,,,,60e435add197abec7bebe435,60e565ada326ed4b6c94435e,2021-07-07_10h57.04.938,Simcolourproject_2stim_asymm_v5,2020.2.10,Win32,60,60e52e7cfedb1dae636df45f,,,,,,,,,1543,-69,26.5,1,0,1,response7disk,,1,-17,-6.5,1,0,1,rectangle,-17,-6.5,1,0,1,-17,-6.5,1,0,1,0,119,119,112,1,,,,,,,,
,,,,,,,,,,,,,FF,,,,,,,,1.483,,,,,,,,,,,,,,,,,,,,,,60e435add197abec7bebe435,60e565ada326ed4b6c94435e,2021-07-07_10h57.04.938,Simcolourproject_2stim_asymm_v5,2020.2.10,Win32,60,60e52e7cfedb1dae636df45f,,,,,,,,,1212,-54,68.5,1,0,1,response7disk,,0,5,-0.5,1,0,1,rectangle,5,-0.5,1,0,1,5,-0.5,1,0,1,0,120,120,88,1,,,,,,,,
,,,,,,,,,,,,,FF,,,,,,,,0.6156,,,,,,,,,,,,,,,,,,,,,,60e435add197abec7bebe435,60e565ada326ed4b6c94435e,2021-07-07_10h57.04.938,Simcolourproject_2stim_asymm_v5,2020.2.10,Win32,60,60e52e7cfedb1dae636df45f,,,,,,,,,1539,-54,-30.5,1,0,1,response5disk,,2,-18,-7.5,1,0,1,rectangle,-18,-7.5,1,0,1,-18,-7.5,1,0,1,0,121,121,47,1,,,,,,,,
,,,,,,,,,,,,,FF,,,,,,,,0.5663,,,,,,,,,,,,,,,,,,,,,,60e435add197abec7bebe435,60e565ada326ed4b6c94435e,2021-07-07_10h57.04.938,Simcolourproject_2stim_asymm_v5,2020.2.10,Win32,60,60e52e7cfedb1dae636df45f,,,,,,,,,2189,36,-45.5,1,0,1,response3disk,,4,19,-11.5,1,0,1,rectangle,19,-11.5,1,0,1,19,-11.5,1,0,1,0,122,122,123,1,,,,,,,,
,,,,,,,,,,,,,FF,,,,,,,,0.8,,,,,,,,,,,,,,,,,,,,,,60e435add197abec7bebe435,60e565ada326ed4b6c94435e,2021-07-07_10h57.04.938,Simcolourproject_2stim_asymm_v5,2020.2.10,Win32,60,60e52e7cfedb1dae636df45f,,,,,,,,,1178,48,24.5,1,0,1,response1disk,,6,11,10.5,1,0,1,rectangle,11,10.5,1,0,1,11,10.5,1,0,1,0,123,123,7,1,,,,,,,,
,,,,,,,,,,,,,FF,,,,,,,,0.5005,,,,,,,,,,,,,,,,,,,,,,60e435add197abec7bebe435,60e565ada326ed4b6c94435e,2021-07-07_10h57.04.938,Simcolourproject_2stim_asymm_v5,2020.2.10,Win32,60,60e52e7cfedb1dae636df45f,,,,,,,,,1560,-69,-23.5,1,0,1,response5disk,,2,1,-3.5,1,0,1,rectangle,1,-3.5,1,0,1,1,-3.5,1,0,1,0,124,124,1,1,,,,,,,,
,,,,,,,,,,,,,FF,,,,,,,,0.9151,,,,,,,,,,,,,,,,,,,,,,60e435add197abec7bebe435,60e565ada326ed4b6c94435e,2021-07-07_10h57.04.938,Simcolourproject_2stim_asymm_v5,2020.2.10,Win32,60,60e52e7cfedb1dae636df45f,,,,,,,,,1714,51,-44.5,1,0,1,response3disk,,5,24,-14.5,1,0,1,rectangle,24,-14.5,1,0,1,24,-14.5,1,0,1,0,125,125,46,1,,,,,,,,
,,,,,,,,,,,,,FF,,,,,,,,0.8171,,,,,,,,,,,,,,,,,,,,,,60e435add197abec7bebe435,60e565ada326ed4b6c94435e,2021-07-07_10h57.04.938,Simcolourproject_2stim_asymm_v5,2020.2.10,Win32,60,60e52e7cfedb1dae636df45f,,,,,,,,,2524,-36,-45.5,1,0,1,response5disk,,3,-10,-6.5,1,0,1,rectangle,-10,-6.5,1,0,1,-10,-6.5,1,0,1,0,126,126,100,1,,,,,,,,
,,,,,,,,,,,,,FF,,,,,,,,1.0177,,,,,,,,,,,,,,,,,,,,,,60e435add197abec7bebe435,60e565ada326ed4b6c94435e,2021-07-07_10h57.04.938,Simcolourproject_2stim_asymm_v5,2020.2.10,Win32,60,60e52e7cfedb1dae636df45f,,,,,,,,,2055,-28,56.5,1,0,1,response7disk,,0,-2,6.5,1,0,1,rectangle,-2,6.5,1,0,1,-2,6.5,1,0,1,0,127,127,136,1,,,,,,,,
,,,,,,,,,,,,,FF,,,,,,,,0.6501,,,,,,,,,,,,,,,,,,,,,,60e435add197abec7bebe435,60e565ada326ed4b6c94435e,2021-07-07_10h57.04.938,Simcolourproject_2stim_asymm_v5,2020.2.10,Win32,60,60e52e7cfedb1dae636df45f,,,,,,,,,524,50,-24.5,1,0,1,response3disk,,5,26,-3.5,1,0,1,rectangle,26,-3.5,1,0,1,26,-3.5,1,0,1,0,128,128,124,1,,,,,,,,
,,,,,,,,,,,,,FF,,,,,,,,0.5665,,,,,,,,,,,,,,,,,,,,,,60e435add197abec7bebe435,60e565ada326ed4b6c94435e,2021-07-07_10h57.04.938,Simcolourproject_2stim_asymm_v5,2020.2.10,Win32,60,60e52e7cfedb1dae636df45f,,,,,,,,,461,-43,-25.5,1,0,1,response5disk,,2,3,-4.5,1,0,1,rectangle,53,-24.5,1,0,1,12,-8.5,1,0,1,0,129,129,154,1,,response3disk_3,TRUE,5,5,"[215,25,45,87,260,279,61,207,200,192,130,317,138,106,31,246,62,111,61,165]",1.25,rectangle
,,,,,,,,,,,,,FF,,,,,,,,0.7673,,,,,,,,,,,,,,,,,,,,,,60e435add197abec7bebe435,60e565ada326ed4b6c94435e,2021-07-07_10h57.04.938,Simcolourproject_2stim_asymm_v5,2020.2.10,Win32,60,60e52e7cfedb1dae636df45f,,,,,,,,,2862,48,-39.5,1,0,1,response3disk,,5,9,-5.5,1,0,1,rectangle,9,-5.5,1,0,1,9,-5.5,1,0,1,0,130,130,143,1,,,,,,,,
,,,,,,,,,,,,,FF,,,,,,,,1.8645,,,,,,,,,,,,,,,,,,,,,,60e435add197abec7bebe435,60e565ada326ed4b6c94435e,2021-07-07_10h57.04.938,Simcolourproject_2stim_asymm_v5,2020.2.10,Win32,60,60e52e7cfedb1dae636df45f,,,,,,,,,3446,-68,-18.5,1,0,1,response5disk,,2,-3,-4.5,1,0,1,rectangle,-3,-4.5,1,0,1,-3,-4.5,1,0,1,0,131,131,39,1,,,,,,,,
,,,,,,,,,,,,,FF,,,,,,,,0.9999,,,,,,,,,,,,,,,,,,,,,,60e435add197abec7bebe435,60e565ada326ed4b6c94435e,2021-07-07_10h57.04.938,Simcolourproject_2stim_asymm_v5,2020.2.10,Win32,60,60e52e7cfedb1dae636df45f,,,,,,,,,170,41,-50.5,1,0,1,response3disk,,4,-11,-8.5,1,0,1,rectangle,-11,-8.5,1,0,1,-11,-8.5,1,0,1,0,132,132,92,1,,,,,,,,
,,,,,,,,,,,,,FF,,,,,,,,1.0508,,,,,,,,,,,,,,,,,,,,,,60e435add197abec7bebe435,60e565ada326ed4b6c94435e,2021-07-07_10h57.04.938,Simcolourproject_2stim_asymm_v5,2020.2.10,Win32,60,60e52e7cfedb1dae636df45f,,,,,,,,,3866,26,33.5,1,0,1,response1disk,,7,12,8.5,1,0,1,rectangle,12,8.5,1,0,1,12,8.5,1,0,1,0,133,133,94,1,,,,,,,,
,,,,,,,,,,,,,FF,,,,,,,,1.183,,,,,,,,,,,,,,,,,,,,,,60e435add197abec7bebe435,60e565ada326ed4b6c94435e,2021-07-07_10h57.04.938,Simcolourproject_2stim_asymm_v5,2020.2.10,Win32,60,60e52e7cfedb1dae636df45f,,,,,,,,,2882,-37,-41.5,1,0,1,response5disk,,3,-17,-6.5,1,0,1,rectangle,-17,-6.5,1,0,1,-17,-6.5,1,0,1,0,134,134,22,1,,,,,,,,
,,,,,,,,,,,,,FF,,,,,,,,0.7345,,,,,,,,,,,,,,,,,,,,,,60e435add197abec7bebe435,60e565ada326ed4b6c94435e,2021-07-07_10h57.04.938,Simcolourproject_2stim_asymm_v5,2020.2.10,Win32,60,60e52e7cfedb1dae636df45f,,,,,,,,,547,48,-19.5,1,0,1,response3disk,,5,5,-9.5,1,0,1,rectangle,5,-9.5,1,0,1,5,-9.5,1,0,1,0,135,135,139,1,,,,,,,,
,,,,,,,,,,,,,FF,,,,,,,,0.9665,,,,,,,,,,,,,,,,,,,,,,60e435add197abec7bebe435,60e565ada326ed4b6c94435e,2021-07-07_10h57.04.938,Simcolourproject_2stim_asymm_v5,2020.2.10,Win32,60,60e52e7cfedb1dae636df45f,,,,,,,,,3518,-54,35.5,1,0,1,response7disk,,1,13,0.5,1,0,1,rectangle,13,0.5,1,0,1,13,0.5,1,0,1,0,136,136,116,1,,,,,,,,
,,,,,,,,,,,,,FF,,,,,,,,0.7342,,,,,,,,,,,,,,,,,,,,,,60e435add197abec7bebe435,60e565ada326ed4b6c94435e,2021-07-07_10h57.04.938,Simcolourproject_2stim_asymm_v5,2020.2.10,Win32,60,60e52e7cfedb1dae636df45f,,,,,,,,,1008,-33,-29.5,1,0,1,response5disk,,2,-6,-7.5,1,0,1,rectangle,58,-46.5,1,0,1,12,-2.5,1,0,1,0,137,137,151,1,,response3disk_3,TRUE,5,5,"[215,25,45,87,260,279,61,207,200,192,130,317,138,106,31,246,62,111,61,165]",1.1657,rectangle
,,,,,,,,,,,,,FF,,,,,,,,0.7825,,,,,,,,,,,,,,,,,,,,,,60e435add197abec7bebe435,60e565ada326ed4b6c94435e,2021-07-07_10h57.04.938,Simcolourproject_2stim_asymm_v5,2020.2.10,Win32,60,60e52e7cfedb1dae636df45f,,,,,,,,,58,61,-28.5,1,0,1,response3disk,,5,27,-5.5,1,0,1,rectangle,27,-5.5,1,0,1,27,-5.5,1,0,1,0,138,138,118,1,,,,,,,,
,,,,,,,,,,,,,FF,,,,,,,,1.1497,,,,,,,,,,,,,,,,,,,,,,60e435add197abec7bebe435,60e565ada326ed4b6c94435e,2021-07-07_10h57.04.938,Simcolourproject_2stim_asymm_v5,2020.2.10,Win32,60,60e52e7cfedb1dae636df45f,,,,,,,,,987,-30,44.5,1,0,1,response7disk,,0,-14,13.5,1,0,1,rectangle,-14,13.5,1,0,1,-14,13.5,1,0,1,0,139,139,155,1,,,,,,,,
,,,,,,,,,,,,,FF,,,,,,,,0.8171,,,,,,,,,,,,,,,,,,,,,,60e435add197abec7bebe435,60e565ada326ed4b6c94435e,2021-07-07_10h57.04.938,Simcolourproject_2stim_asymm_v5,2020.2.10,Win32,60,60e52e7cfedb1dae636df45f,,,,,,,,,573,-42,-70.5,1,0,1,response5disk,,3,-22,-6.5,1,0,1,rectangle,-22,-6.5,1,0,1,-22,-6.5,1,0,1,0,140,140,70,1,,,,,,,,
,,,,,,,,,,,,,FF,,,,,,,,1.6679,,,,,,,,,,,,,,,,,,,,,,60e435add197abec7bebe435,60e565ada326ed4b6c94435e,2021-07-07_10h57.04.938,Simcolourproject_2stim_asymm_v5,2020.2.10,Win32,60,60e52e7cfedb1dae636df45f,,,,,,,,,4363,-39,52.5,1,0,1,response7disk,,0,1,0.5,1,0,1,rectangle,1,0.5,1,0,1,1,0.5,1,0,1,0,141,141,157,1,,,,,,,,
,,,,,,,,,,,,,FF,,,,,,,,0.7339,,,,,,,,,,,,,,,,,,,,,,60e435add197abec7bebe435,60e565ada326ed4b6c94435e,2021-07-07_10h57.04.938,Simcolourproject_2stim_asymm_v5,2020.2.10,Win32,60,60e52e7cfedb1dae636df45f,,,,,,,,,605,41,-23.5,1,0,1,response3disk,,5,25,-13.5,1,0,1,rectangle,25,-13.5,1,0,1,25,-13.5,1,0,1,0,142,142,72,1,,,,,,,,
,,,,,,,,,,,,,FF,,,,,,,,0.5834,,,,,,,,,,,,,,,,,,,,,,60e435add197abec7bebe435,60e565ada326ed4b6c94435e,2021-07-07_10h57.04.938,Simcolourproject_2stim_asymm_v5,2020.2.10,Win32,60,60e52e7cfedb1dae636df45f,,,,,,,,,2749,-33,-37.5,1,0,1,response5disk,,3,-27,-2.5,1,0,1,rectangle,-27,-2.5,1,0,1,-27,-2.5,1,0,1,0,143,143,77,1,,,,,,,,
,,,,,,,,,,,,,FF,,,,,,,,0.6817,,,,,,,,,,,,,,,,,,,,,,60e435add197abec7bebe435,60e565ada326ed4b6c94435e,2021-07-07_10h57.04.938,Simcolourproject_2stim_asymm_v5,2020.2.10,Win32,60,60e52e7cfedb1dae636df45f,,,,,,,,,3344,40,-24.5,1,0,1,response3disk,,5,11,-3.5,1,0,1,rectangle,11,-3.5,1,0,1,11,-3.5,1,0,1,0,144,144,113,1,,,,,,,,
,,,,,,,,,,,,,FF,,,,,,,,0.4996,,,,,,,,,,,,,,,,,,,,,,60e435add197abec7bebe435,60e565ada326ed4b6c94435e,2021-07-07_10h57.04.938,Simcolourproject_2stim_asymm_v5,2020.2.10,Win32,60,60e52e7cfedb1dae636df45f,,,,,,,,,4103,-40,-16.5,1,0,1,response5disk,,2,3,-10.5,1,0,1,rectangle,3,-10.5,1,0,1,3,-10.5,1,0,1,0,145,145,17,1,,,,,,,,
,,,,,,,,,,,,,FF,,,,,,,,0.7666,,,,,,,,,,,,,,,,,,,,,,60e435add197abec7bebe435,60e565ada326ed4b6c94435e,2021-07-07_10h57.04.938,Simcolourproject_2stim_asymm_v5,2020.2.10,Win32,60,60e52e7cfedb1dae636df45f,,,,,,,,,3791,60,-16.5,1,0,1,response3disk,,5,24,-8.5,1,0,1,rectangle,24,-8.5,1,0,1,24,-8.5,1,0,1,0,146,146,158,1,,,,,,,,
,,,,,,,,,,,,,FF,,,,,,,,0.4505,,,,,,,,,,,,,,,,,,,,,,60e435add197abec7bebe435,60e565ada326ed4b6c94435e,2021-07-07_10h57.04.938,Simcolourproject_2stim_asymm_v5,2020.2.10,Win32,60,60e52e7cfedb1dae636df45f,,,,,,,,,1390,-40,-25.5,1,0,1,response5disk,,2,11,-8.5,1,0,1,rectangle,11,-8.5,1,0,1,11,-8.5,1,0,1,0,147,147,135,1,,,,,,,,
,,,,,,,,,,,,,FF,,,,,,,,0.4996,,,,,,,,,,,,,,,,,,,,,,60e435add197abec7bebe435,60e565ada326ed4b6c94435e,2021-07-07_10h57.04.938,Simcolourproject_2stim_asymm_v5,2020.2.10,Win32,60,60e52e7cfedb1dae636df45f,,,,,,,,,1316,44,-27.5,1,0,1,response3disk,,5,4,-8.5,1,0,1,rectangle,4,-8.5,1,0,1,4,-8.5,1,0,1,0,148,148,34,1,,,,,,,,
,,,,,,,,,,,,,FF,,,,,,,,0.45,,,,,,,,,,,,,,,,,,,,,,60e435add197abec7bebe435,60e565ada326ed4b6c94435e,2021-07-07_10h57.04.938,Simcolourproject_2stim_asymm_v5,2020.2.10,Win32,60,60e52e7cfedb1dae636df45f,,,,,,,,,2779,-38,-14.5,1,0,1,response5disk,,2,-3,-7.5,1,0,1,rectangle,-3,-7.5,1,0,1,-3,-7.5,1,0,1,0,149,149,18,1,,,,,,,,
,,,,,,,,,,,,,FF,,,,,,,,0.6995,,,,,,,,,,,,,,,,,,,,,,60e435add197abec7bebe435,60e565ada326ed4b6c94435e,2021-07-07_10h57.04.938,Simcolourproject_2stim_asymm_v5,2020.2.10,Win32,60,60e52e7cfedb1dae636df45f,,,,,,,,,1626,46,22.5,1,0,1,response1disk,,6,10,12.5,1,0,1,rectangle,10,12.5,1,0,1,10,12.5,1,0,1,0,150,150,148,1,,,,,,,,
,,,,,,,,,,,,,FF,,,,,,,,0.6494,,,,,,,,,,,,,,,,,,,,,,60e435add197abec7bebe435,60e565ada326ed4b6c94435e,2021-07-07_10h57.04.938,Simcolourproject_2stim_asymm_v5,2020.2.10,Win32,60,60e52e7cfedb1dae636df45f,,,,,,,,,2247,31,-48.5,1,0,1,response3disk,,4,20,-12.5,1,0,1,rectangle,20,-12.5,1,0,1,20,-12.5,1,0,1,0,151,151,11,1,,,,,,,,
,,,,,,,,,,,,,FF,,,,,,,,0.7012,,,,,,,,,,,,,,,,,,,,,,60e435add197abec7bebe435,60e565ada326ed4b6c94435e,2021-07-07_10h57.04.938,Simcolourproject_2stim_asymm_v5,2020.2.10,Win32,60,60e52e7cfedb1dae636df45f,,,,,,,,,1169,44,-18.5,1,0,1,response3disk,,5,5,5.5,1,0,1,rectangle,5,5.5,1,0,1,5,5.5,1,0,1,0,152,152,98,1,,,,,,,,
,,,,,,,,,,,,,FF,,,,,,,,0.8998,,,,,,,,,,,,,,,,,,,,,,60e435add197abec7bebe435,60e565ada326ed4b6c94435e,2021-07-07_10h57.04.938,Simcolourproject_2stim_asymm_v5,2020.2.10,Win32,60,60e52e7cfedb1dae636df45f,,,,,,,,,80,24,48.5,1,0,1,response1disk,,7,11,9.5,1,0,1,rectangle,11,9.5,1,0,1,11,9.5,1,0,1,0,153,153,23,1,,,,,,,,
,,,,,,,,,,,,,FF,,,,,,,,0.6335,,,,,,,,,,,,,,,,,,,,,,60e435add197abec7bebe435,60e565ada326ed4b6c94435e,2021-07-07_10h57.04.938,Simcolourproject_2stim_asymm_v5,2020.2.10,Win32,60,60e52e7cfedb1dae636df45f,,,,,,,,,3273,45,-19.5,1,0,1,response3disk,,5,19,-2.5,1,0,1,rectangle,19,-2.5,1,0,1,19,-2.5,1,0,1,0,154,154,111,1,,,,,,,,
,,,,,,,,,,,,,FF,,,,,,,,0.6991,,,,,,,,,,,,,,,,,,,,,,60e435add197abec7bebe435,60e565ada326ed4b6c94435e,2021-07-07_10h57.04.938,Simcolourproject_2stim_asymm_v5,2020.2.10,Win32,60,60e52e7cfedb1dae636df45f,,,,,,,,,247,32,-58.5,1,0,1,response3disk,,4,15,-17.5,1,0,1,rectangle,15,-17.5,1,0,1,15,-17.5,1,0,1,0,155,155,19,1,,,,,,,,
,,,,,,,,,,,,,FF,,,,,,,,0.6846,,,,,,,,,,,,,,,,,,,,,,60e435add197abec7bebe435,60e565ada326ed4b6c94435e,2021-07-07_10h57.04.938,Simcolourproject_2stim_asymm_v5,2020.2.10,Win32,60,60e52e7cfedb1dae636df45f,,,,,,,,,1731,50,-24.5,1,0,1,response3disk,,5,19,-6.5,1,0,1,rectangle,19,-6.5,1,0,1,19,-6.5,1,0,1,0,156,156,146,1,,,,,,,,
,,,,,,,,,,,,,FF,,,,,,,,0.7166,,,,,,,,,,,,,,,,,,,,,,60e435add197abec7bebe435,60e565ada326ed4b6c94435e,2021-07-07_10h57.04.938,Simcolourproject_2stim_asymm_v5,2020.2.10,Win32,60,60e52e7cfedb1dae636df45f,,,,,,,,,470,-37,-34.5,1,0,1,response5disk,,2,-4,-11.5,1,0,1,rectangle,-4,-11.5,1,0,1,-4,-11.5,1,0,1,0,157,157,95,1,,,,,,,,
,,,,,,,,,,,,,FF,,,,,,,,0.534,,,,,,,,,,,,,,,,,,,,,,60e435add197abec7bebe435,60e565ada326ed4b6c94435e,2021-07-07_10h57.04.938,Simcolourproject_2stim_asymm_v5,2020.2.10,Win32,60,60e52e7cfedb1dae636df45f,,,,,,,,,2855,47,-30.5,1,0,1,response3disk,,5,25,-10.5,1,0,1,rectangle,25,-10.5,1,0,1,25,-10.5,1,0,1,0,158,158,86,1,,,,,,,,
,,,,,,,,,,,,,FF,,,,,,,,0.7329,,,,,,,,,,,,,,,,,,,,,,60e435add197abec7bebe435,60e565ada326ed4b6c94435e,2021-07-07_10h57.04.938,Simcolourproject_2stim_asymm_v5,2020.2.10,Win32,60,60e52e7cfedb1dae636df45f,,,,,,,,,2802,39,-45.5,1,0,1,response3disk,,4,24,-11.5,1,0,1,rectangle,24,-11.5,1,0,1,24,-11.5,1,0,1,0,159,159,147,1,,,,,,,,
,,,,,,,,,,,,,FF,,,,,,,,0.584,,,,,,,,,,,,,,,,,,,,,,60e435add197abec7bebe435,60e565ada326ed4b6c94435e,2021-07-07_10h57.04.938,Simcolourproject_2stim_asymm_v5,2020.2.10,Win32,60,60e52e7cfedb1dae636df45f,,,,,,,,,2937,48,-32.5,1,0,1,response3disk,,5,27,-13.5,1,0,1,rectangle,27,-13.5,1,0,1,27,-13.5,1,0,1,1,0,160,83,1,,,,,,,,
,,,,,,,,,,,,,FF,,,,,,,,0.8665,,,,,,,,,,,,,,,,,,,,,,60e435add197abec7bebe435,60e565ada326ed4b6c94435e,2021-07-07_10h57.04.938,Simcolourproject_2stim_asymm_v5,2020.2.10,Win32,60,60e52e7cfedb1dae636df45f,,,,,,,,,2741,-22,-52.5,1,0,1,response5disk,,3,23,-14.5,1,0,1,rectangle,23,-14.5,1,0,1,23,-14.5,1,0,1,1,1,161,14,1,,,,,,,,
,,,,,,,,,,,,,FF,,,,,,,,0.6837,,,,,,,,,,,,,,,,,,,,,,60e435add197abec7bebe435,60e565ada326ed4b6c94435e,2021-07-07_10h57.04.938,Simcolourproject_2stim_asymm_v5,2020.2.10,Win32,60,60e52e7cfedb1dae636df45f,,,,,,,,,774,49,-31.5,1,0,1,response3disk,,5,16,-7.5,1,0,1,rectangle,16,-7.5,1,0,1,16,-7.5,1,0,1,1,2,162,99,1,,,,,,,,
,,,,,,,,,,,,,FF,,,,,,,,0.8663,,,,,,,,,,,,,,,,,,,,,,60e435add197abec7bebe435,60e565ada326ed4b6c94435e,2021-07-07_10h57.04.938,Simcolourproject_2stim_asymm_v5,2020.2.10,Win32,60,60e52e7cfedb1dae636df45f,,,,,,,,,2564,-17,31.5,1,0,1,response7disk,,0,3,2.5,1,0,1,rectangle,3,2.5,1,0,1,3,2.5,1,0,1,1,3,163,129,1,,,,,,,,
,,,,,,,,,,,,,FF,,,,,,,,0.6822,,,,,,,,,,,,,,,,,,,,,,60e435add197abec7bebe435,60e565ada326ed4b6c94435e,2021-07-07_10h57.04.938,Simcolourproject_2stim_asymm_v5,2020.2.10,Win32,60,60e52e7cfedb1dae636df45f,,,,,,,,,3926,39,-50.5,1,0,1,response3disk,,4,26,-5.5,1,0,1,rectangle,43,18.5,1,0,1,15,3.5,1,0,1,1,4,164,61,1,,response1disk_3,TRUE,6,6,"[215,25,45,87,260,279,61,207,200,192,130,317,138,106,31,246,62,111,61,165]",1.5004,rectangle
,,,,,,,,,,,,,FF,,,,,,,,0.7843,,,,,,,,,,,,,,,,,,,,,,60e435add197abec7bebe435,60e565ada326ed4b6c94435e,2021-07-07_10h57.04.938,Simcolourproject_2stim_asymm_v5,2020.2.10,Win32,60,60e52e7cfedb1dae636df45f,,,,,,,,,1261,34,-49.5,1,0,1,response3disk,,4,21,-8.5,1,0,1,rectangle,21,-8.5,1,0,1,21,-8.5,1,0,1,1,5,165,13,1,,,,,,,,
,,,,,,,,,,,,,FF,,,,,,,,0.6995,,,,,,,,,,,,,,,,,,,,,,60e435add197abec7bebe435,60e565ada326ed4b6c94435e,2021-07-07_10h57.04.938,Simcolourproject_2stim_asymm_v5,2020.2.10,Win32,60,60e52e7cfedb1dae636df45f,,,,,,,,,1119,-27,-49.5,1,0,1,response5disk,,3,-7,-1.5,1,0,1,rectangle,-7,-1.5,1,0,1,-7,-1.5,1,0,1,1,6,166,111,1,,,,,,,,
,,,,,,,,,,,,,FF,,,,,,,,1.2338,,,,,,,,,,,,,,,,,,,,,,60e435add197abec7bebe435,60e565ada326ed4b6c94435e,2021-07-07_10h57.04.938,Simcolourproject_2stim_asymm_v5,2020.2.10,Win32,60,60e52e7cfedb1dae636df45f,,,,,,,,,1794,40,-21.5,1,0,1,response3disk,,5,21,-6.5,1,0,1,rectangle,21,-6.5,1,0,1,21,-6.5,1,0,1,1,7,167,133,1,,,,,,,,
,,,,,,,,,,,,,FF,,,,,,,,1.1668,,,,,,,,,,,,,,,,,,,,,,60e435add197abec7bebe435,60e565ada326ed4b6c94435e,2021-07-07_10h57.04.938,Simcolourproject_2stim_asymm_v5,2020.2.10,Win32,60,60e52e7cfedb1dae636df45f,,,,,,,,,4270,51,-40.5,1,0,1,response3disk,,5,12,-12.5,1,0,1,rectangle,12,-12.5,1,0,1,12,-12.5,1,0,1,1,8,168,123,1,,,,,,,,
,,,,,,,,,,,,,FF,,,,,,,,1.6153,,,,,,,,,,,,,,,,,,,,,,60e435add197abec7bebe435,60e565ada326ed4b6c94435e,2021-07-07_10h57.04.938,Simcolourproject_2stim_asymm_v5,2020.2.10,Win32,60,60e52e7cfedb1dae636df45f,,,,,,,,,3112,-25,-52.5,1,0,1,response5disk,,3,-4,-6.5,1,0,1,rectangle,-4,-6.5,1,0,1,-4,-6.5,1,0,1,1,9,169,97,1,,,,,,,,
,,,,,,,,,,,,,FF,,,,,,,,0.9157,,,,,,,,,,,,,,,,,,,,,,60e435add197abec7bebe435,60e565ada326ed4b6c94435e,2021-07-07_10h57.04.938,Simcolourproject_2stim_asymm_v5,2020.2.10,Win32,60,60e52e7cfedb1dae636df45f,,,,,,,,,973,41,-57.5,1,0,1,response3disk,,4,16,-7.5,1,0,1,rectangle,16,-7.5,1,0,1,16,-7.5,1,0,1,1,10,170,62,1,,,,,,,,
,,,,,,,,,,,,,FF,,,,,,,,0.5671,,,,,,,,,,,,,,,,,,,,,,60e435add197abec7bebe435,60e565ada326ed4b6c94435e,2021-07-07_10h57.04.938,Simcolourproject_2stim_asymm_v5,2020.2.10,Win32,60,60e52e7cfedb1dae636df45f,,,,,,,,,4110,-49,-27.5,1,0,1,response5disk,,2,-1,-14.5,1,0,1,rectangle,-1,-14.5,1,0,1,-1,-14.5,1,0,1,1,11,171,76,1,,,,,,,,
,,,,,,,,,,,,,FF,,,,,,,,0.4822,,,,,,,,,,,,,,,,,,,,,,60e435add197abec7bebe435,60e565ada326ed4b6c94435e,2021-07-07_10h57.04.938,Simcolourproject_2stim_asymm_v5,2020.2.10,Win32,60,60e52e7cfedb1dae636df45f,,,,,,,,,3753,27,-64.5,1,0,1,response3disk,,4,0,-11.5,1,0,1,rectangle,0,-11.5,1,0,1,0,-11.5,1,0,1,1,12,172,114,1,,,,,,,,
,,,,,,,,,,,,,FF,,,,,,,,0.6838,,,,,,,,,,,,,,,,,,,,,,60e435add197abec7bebe435,60e565ada326ed4b6c94435e,2021-07-07_10h57.04.938,Simcolourproject_2stim_asymm_v5,2020.2.10,Win32,60,60e52e7cfedb1dae636df45f,,,,,,,,,3895,-40,-44.5,1,0,1,response5disk,,3,-4,-8.5,1,0,1,rectangle,-4,-8.5,1,0,1,-4,-8.5,1,0,1,1,13,173,124,1,,,,,,,,
,,,,,,,,,,,,,FF,,,,,,,,1.1805,,,,,,,,,,,,,,,,,,,,,,60e435add197abec7bebe435,60e565ada326ed4b6c94435e,2021-07-07_10h57.04.938,Simcolourproject_2stim_asymm_v5,2020.2.10,Win32,60,60e52e7cfedb1dae636df45f,,,,,,,,,970,46,-41.5,1,0,1,response3disk,,5,7,-17.5,1,0,1,rectangle,7,-17.5,1,0,1,7,-17.5,1,0,1,1,14,174,51,1,,,,,,,,
,,,,,,,,,,,,,FF,,,,,,,,0.6853,,,,,,,,,,,,,,,,,,,,,,60e435add197abec7bebe435,60e565ada326ed4b6c94435e,2021-07-07_10h57.04.938,Simcolourproject_2stim_asymm_v5,2020.2.10,Win32,60,60e52e7cfedb1dae636df45f,,,,,,,,,3831,-48,-38.5,1,0,1,response5disk,,2,-3,-6.5,1,0,1,rectangle,-3,-6.5,1,0,1,-3,-6.5,1,0,1,1,15,175,16,1,,,,,,,,
,,,,,,,,,,,,,FF,,,,,,,,0.6126,,,,,,,,,,,,,,,,,,,,,,60e435add197abec7bebe435,60e565ada326ed4b6c94435e,2021-07-07_10h57.04.938,Simcolourproject_2stim_asymm_v5,2020.2.10,Win32,60,60e52e7cfedb1dae636df45f,,,,,,,,,917,33,-53.5,1,0,1,response3disk,,4,12,-9.5,1,0,1,rectangle,12,-9.5,1,0,1,12,-9.5,1,0,1,1,16,176,153,1,,,,,,,,
,,,,,,,,,,,,,FF,,,,,,,,0.8141,,,,,,,,,,,,,,,,,,,,,,60e435add197abec7bebe435,60e565ada326ed4b6c94435e,2021-07-07_10h57.04.938,Simcolourproject_2stim_asymm_v5,2020.2.10,Win32,60,60e52e7cfedb1dae636df45f,,,,,,,,,2805,-33,36.5,1,0,1,response7disk,,0,-16,4.5,1,0,1,rectangle,-16,4.5,1,0,1,-16,4.5,1,0,1,1,17,177,118,1,,,,,,,,
,,,,,,,,,,,,,FF,,,,,,,,1.1349,,,,,,,,,,,,,,,,,,,,,,60e435add197abec7bebe435,60e565ada326ed4b6c94435e,2021-07-07_10h57.04.938,Simcolourproject_2stim_asymm_v5,2020.2.10,Win32,60,60e52e7cfedb1dae636df45f,,,,,,,,,2380,-41,-21.5,1,0,1,response5disk,,2,-24,-7.5,1,0,0,rectangle,-24,-7.5,1,0,0,-24,-7.5,1,0,0,1,18,178,143,1,,,,,,,,
,,,,,,,,,,,,,FF,,,,,,,,0.8954,,,,,,,,,,,,,,,,,,,,,,60e435add197abec7bebe435,60e565ada326ed4b6c94435e,2021-07-07_10h57.04.938,Simcolourproject_2stim_asymm_v5,2020.2.10,Win32,60,60e52e7cfedb1dae636df45f,,,,,,,,,2932,-34,-70.5,1,0,0,response5disk,,3,-4,-12.5,1,0,0,rectangle,-4,-12.5,1,0,0,-4,-12.5,1,0,0,1,19,179,134,1,,,,,,,,
,,,,,,,,,,,,,FF,,,,,,,,0.8833,,,,,,,,,,,,,,,,,,,,,,60e435add197abec7bebe435,60e565ada326ed4b6c94435e,2021-07-07_10h57.04.938,Simcolourproject_2stim_asymm_v5,2020.2.10,Win32,60,60e52e7cfedb1dae636df45f,,,,,,,,,2530,53,-43.5,1,0,0,response3disk,,5,19,-17.5,1,0,0,rectangle,19,-17.5,1,0,0,19,-17.5,1,0,0,1,20,180,141,1,,,,,,,,
,,,,,,,,,,,,,FF,,,,,,,,0.6644,,,,,,,,,,,,,,,,,,,,,,60e435add197abec7bebe435,60e565ada326ed4b6c94435e,2021-07-07_10h57.04.938,Simcolourproject_2stim_asymm_v5,2020.2.10,Win32,60,60e52e7cfedb1dae636df45f,,,,,,,,,1230,-32,-40.5,1,0,0,response5disk,,3,-19,-4.5,1,0,0,rectangle,-19,-4.5,1,0,0,-19,-4.5,1,0,0,1,21,181,39,1,,,,,,,,
,,,,,,,,,,,,,FF,,,,,,,,1.0157,,,,,,,,,,,,,,,,,,,,,,60e435add197abec7bebe435,60e565ada326ed4b6c94435e,2021-07-07_10h57.04.938,Simcolourproject_2stim_asymm_v5,2020.2.10,Win32,60,60e52e7cfedb1dae636df45f,,,,,,,,,2881,38,-61.5,1,0,0,response3disk,,4,23,-8.5,1,0,0,rectangle,23,-8.5,1,0,0,23,-8.5,1,0,0,1,22,182,81,1,,,,,,,,
,,,,,,,,,,,,,FF,,,,,,,,0.7,,,,,,,,,,,,,,,,,,,,,,60e435add197abec7bebe435,60e565ada326ed4b6c94435e,2021-07-07_10h57.04.938,Simcolourproject_2stim_asymm_v5,2020.2.10,Win32,60,60e52e7cfedb1dae636df45f,,,,,,,,,3066,-45,-46.5,1,0,0,response5disk,,3,-19,-4.5,1,0,0,rectangle,-19,-4.5,1,0,0,-19,-4.5,1,0,0,1,23,183,127,1,,,,,,,,
,,,,,,,,,,,,,FF,,,,,,,,0.8638,,,,,,,,,,,,,,,,,,,,,,60e435add197abec7bebe435,60e565ada326ed4b6c94435e,2021-07-07_10h57.04.938,Simcolourproject_2stim_asymm_v5,2020.2.10,Win32,60,60e52e7cfedb1dae636df45f,,,,,,,,,4346,40,20.5,1,0,0,response1disk,,6,15,1.5,1,0,0,rectangle,15,1.5,1,0,0,15,1.5,1,0,0,1,24,184,144,1,,,,,,,,
,,,,,,,,,,,,,FF,,,,,,,,0.5483,,,,,,,,,,,,,,,,,,,,,,60e435add197abec7bebe435,60e565ada326ed4b6c94435e,2021-07-07_10h57.04.938,Simcolourproject_2stim_asymm_v5,2020.2.10,Win32,60,60e52e7cfedb1dae636df45f,,,,,,,,,3350,42,-55.5,1,0,0,response3disk,,4,19,-7.5,1,0,0,rectangle,19,-7.5,1,0,0,19,-7.5,1,0,0,1,25,185,43,1,,,,,,,,
,,,,,,,,,,,,,FF,,,,,,,,1.1664,,,,,,,,,,,,,,,,,,,,,,60e435add197abec7bebe435,60e565ada326ed4b6c94435e,2021-07-07_10h57.04.938,Simcolourproject_2stim_asymm_v5,2020.2.10,Win32,60,60e52e7cfedb1dae636df45f,,,,,,,,,2300,-31,47.5,1,0,0,response7disk,,0,-15,1.5,1,0,0,rectangle,-15,1.5,1,0,0,-15,1.5,1,0,0,1,26,186,36,1,,,,,,,,
,,,,,,,,,,,,,FF,,,,,,,,0.4156,,,,,,,,,,,,,,,,,,,,,,60e435add197abec7bebe435,60e565ada326ed4b6c94435e,2021-07-07_10h57.04.938,Simcolourproject_2stim_asymm_v5,2020.2.10,Win32,60,60e52e7cfedb1dae636df45f,,,,,,,,,1834,-30,-52.5,1,0,0,response5disk,,3,-6,-9.5,1,0,0,rectangle,-6,-9.5,1,0,0,-6,-9.5,1,0,0,1,27,187,121,1,,,,,,,,
,,,,,,,,,,,,,FF,,,,,,,,0.7835,,,,,,,,,,,,,,,,,,,,,,60e435add197abec7bebe435,60e565ada326ed4b6c94435e,2021-07-07_10h57.04.938,Simcolourproject_2stim_asymm_v5,2020.2.10,Win32,60,60e52e7cfedb1dae636df45f,,,,,,,,,807,41,-31.5,1,0,0,response3disk,,5,14,-3.5,1,0,0,rectangle,14,-3.5,1,0,0,14,-3.5,1,0,0,1,28,188,75,1,,,,,,,,
,,,,,,,,,,,,,FF,,,,,,,,0.7491,,,,,,,,,,,,,,,,,,,,,,60e435add197abec7bebe435,60e565ada326ed4b6c94435e,2021-07-07_10h57.04.938,Simcolourproject_2stim_asymm_v5,2020.2.10,Win32,60,60e52e7cfedb1dae636df45f,,,,,,,,,1802,37,25.5,1,0,0,response1disk,,6,8,11.5,1,0,0,rectangle,8,11.5,1,0,0,8,11.5,1,0,0,1,29,189,159,1,,,,,,,,
,,,,,,,,,,,,,FF,,,,,,,,0.7323,,,,,,,,,,,,,,,,,,,,,,60e435add197abec7bebe435,60e565ada326ed4b6c94435e,2021-07-07_10h57.04.938,Simcolourproject_2stim_asymm_v5,2020.2.10,Win32,60,60e52e7cfedb1dae636df45f,,,,,,,,,2939,-27,-41.5,1,0,0,response5disk,,3,-4,6.5,1,0,0,rectangle,-4,6.5,1,0,0,-4,6.5,1,0,0,1,30,190,94,1,,,,,,,,
,,,,,,,,,,,,,FF,,,,,,,,0.5338,,,,,,,,,,,,,,,,,,,,,,60e435add197abec7bebe435,60e565ada326ed4b6c94435e,2021-07-07_10h57.04.938,Simcolourproject_2stim_asymm_v5,2020.2.10,Win32,60,60e52e7cfedb1dae636df45f,,,,,,,,,2625,49,-34.5,1,0,0,response3disk,,5,17,-8.5,1,0,0,rectangle,-46,28.5,1,0,0,-14,-1.5,1,0,0,1,31,191,90,1,,response7disk_3,TRUE,1,1,"[215,25,45,87,260,279,61,207,200,192,130,317,138,106,31,246,62,111,61,165]",1.3667,rectangle
,,,,,,,,,,,,,FF,,,,,,,,0.6652,,,,,,,,,,,,,,,,,,,,,,60e435add197abec7bebe435,60e565ada326ed4b6c94435e,2021-07-07_10h57.04.938,Simcolourproject_2stim_asymm_v5,2020.2.10,Win32,60,60e52e7cfedb1dae636df45f,,,,,,,,,521,30,-53.5,1,0,0,response3disk,,4,1,-6.5,1,0,0,rectangle,1,-6.5,1,0,0,1,-6.5,1,0,0,1,32,192,64,1,,,,,,,,
,,,,,,,,,,,,,FF,,,,,,,,0.8674,,,,,,,,,,,,,,,,,,,,,,60e435add197abec7bebe435,60e565ada326ed4b6c94435e,2021-07-07_10h57.04.938,Simcolourproject_2stim_asymm_v5,2020.2.10,Win32,60,60e52e7cfedb1dae636df45f,,,,,,,,,1718,37,-29.5,1,0,0,response3disk,,5,8,-9.5,1,0,0,rectangle,8,-9.5,1,0,0,8,-9.5,1,0,0,1,33,193,149,1,,,,,,,,
,,,,,,,,,,,,,FF,,,,,,,,1.4509,,,,,,,,,,,,,,,,,,,,,,60e435add197abec7bebe435,60e565ada326ed4b6c94435e,2021-07-07_10h57.04.938,Simcolourproject_2stim_asymm_v5,2020.2.10,Win32,60,60e52e7cfedb1dae636df45f,,,,,,,,,2444,39,-68.5,1,0,0,response3disk,,4,-21,-2.5,1,0,0,rectangle,-21,-2.5,1,0,0,-21,-2.5,1,0,0,1,34,194,126,1,,,,,,,,
,,,,,,,,,,,,,FF,,,,,,,,0.6322,,,,,,,,,,,,,,,,,,,,,,60e435add197abec7bebe435,60e565ada326ed4b6c94435e,2021-07-07_10h57.04.938,Simcolourproject_2stim_asymm_v5,2020.2.10,Win32,60,60e52e7cfedb1dae636df45f,,,,,,,,,1524,-50,-25.5,1,0,0,response5disk,,2,-7,-6.5,1,0,0,rectangle,-7,-6.5,1,0,0,-7,-6.5,1,0,0,1,35,195,60,1,,,,,,,,
,,,,,,,,,,,,,FF,,,,,,,,1.05,,,,,,,,,,,,,,,,,,,,,,60e435add197abec7bebe435,60e565ada326ed4b6c94435e,2021-07-07_10h57.04.938,Simcolourproject_2stim_asymm_v5,2020.2.10,Win32,60,60e52e7cfedb1dae636df45f,,,,,,,,,3975,42,-16.5,1,0,0,response3disk,,5,14,-9.5,1,0,0,rectangle,14,-9.5,1,0,0,14,-9.5,1,0,0,1,36,196,71,1,,,,,,,,
,,,,,,,,,,,,,FF,,,,,,,,0.5852,,,,,,,,,,,,,,,,,,,,,,60e435add197abec7bebe435,60e565ada326ed4b6c94435e,2021-07-07_10h57.04.938,Simcolourproject_2stim_asymm_v5,2020.2.10,Win32,60,60e52e7cfedb1dae636df45f,,,,,,,,,585,-29,-41.5,1,0,0,response5disk,,3,-16,-11.5,1,0,0,rectangle,-16,-11.5,1,0,0,-16,-11.5,1,0,0,1,37,197,32,1,,,,,,,,
,,,,,,,,,,,,,FF,,,,,,,,3.1165,,,,,,,,,,,,,,,,,,,,,,60e435add197abec7bebe435,60e565ada326ed4b6c94435e,2021-07-07_10h57.04.938,Simcolourproject_2stim_asymm_v5,2020.2.10,Win32,60,60e52e7cfedb1dae636df45f,,,,,,,,,2826,41,-46.5,1,0,0,response3disk,,4,30,7.5,1,0,0,rectangle,30,7.5,1,0,0,30,7.5,1,0,0,1,38,198,89,1,,,,,,,,
,,,,,,,,,,,,,FF,,,,,,,,16.196,,,,,,,,,,,,,,,,,,,,,,60e435add197abec7bebe435,60e565ada326ed4b6c94435e,2021-07-07_10h57.04.938,Simcolourproject_2stim_asymm_v5,2020.2.10,Win32,60,60e52e7cfedb1dae636df45f,,,,,,,,,2099,-25,-38.5,1,0,0,response5disk,,3,3,-14.5,1,0,0,rectangle,68,-49.5,1,0,0,8,5.5,1,0,0,1,39,199,70,1,,response3disk_3,TRUE,5,5,"[215,25,45,87,260,279,61,207,200,192,130,317,138,106,31,246,62,111,61,165]",3.898,rectangle
,,,,,,,,,,,,,FF,,,,,,,,0.984,,,,,,,,,,,,,,,,,,,,,,60e435add197abec7bebe435,60e565ada326ed4b6c94435e,2021-07-07_10h57.04.938,Simcolourproject_2stim_asymm_v5,2020.2.10,Win32,60,60e52e7cfedb1dae636df45f,,,,,,,,,405,49,-35.5,1,0,0,response3disk,,5,-5,-4.5,1,0,0,rectangle,-5,-4.5,1,0,0,-5,-4.5,1,0,0,1,40,200,38,1,,,,,,,,
,,,,,,,,,,,,,FF,,,,,,,,0.8543,,,,,,,,,,,,,,,,,,,,,,60e435add197abec7bebe435,60e565ada326ed4b6c94435e,2021-07-07_10h57.04.938,Simcolourproject_2stim_asymm_v5,2020.2.10,Win32,60,60e52e7cfedb1dae636df45f,,,,,,,,,687,-46,-55.5,1,0,0,response5disk,,3,-14,-11.5,1,0,0,rectangle,-14,-11.5,1,0,0,-14,-11.5,1,0,0,1,41,201,109,1,,,,,,,,
,,,,,,,,,,,,,FF,,,,,,,,0.9703,,,,,,,,,,,,,,,,,,,,,,60e435add197abec7bebe435,60e565ada326ed4b6c94435e,2021-07-07_10h57.04.938,Simcolourproject_2stim_asymm_v5,2020.2.10,Win32,60,60e52e7cfedb1dae636df45f,,,,,,,,,2556,50,-20.5,1,0,0,response3disk,,5,11,-3.5,1,0,0,rectangle,11,-3.5,1,0,0,11,-3.5,1,0,0,1,42,202,67,1,,,,,,,,
,,,,,,,,,,,,,FF,,,,,,,,1.085,,,,,,,,,,,,,,,,,,,,,,60e435add197abec7bebe435,60e565ada326ed4b6c94435e,2021-07-07_10h57.04.938,Simcolourproject_2stim_asymm_v5,2020.2.10,Win32,60,60e52e7cfedb1dae636df45f,,,,,,,,,4090,-30,46.5,1,0,0,response7disk,,0,-5,3.5,1,0,0,rectangle,-5,3.5,1,0,0,-5,3.5,1,0,0,1,43,203,73,1,,,,,,,,
,,,,,,,,,,,,,FF,,,,,,,,1.0803,,,,,,,,,,,,,,,,,,,,,,60e435add197abec7bebe435,60e565ada326ed4b6c94435e,2021-07-07_10h57.04.938,Simcolourproject_2stim_asymm_v5,2020.2.10,Win32,60,60e52e7cfedb1dae636df45f,,,,,,,,,3989,-57,-33.5,1,0,0,response5disk,,2,-11,-3.5,1,0,0,rectangle,-11,-3.5,1,0,0,-11,-3.5,1,0,0,1,44,204,95,1,,,,,,,,
,,,,,,,,,,,,,FF,,,,,,,,1.3,,,,,,,,,,,,,,,,,,,,,,60e435add197abec7bebe435,60e565ada326ed4b6c94435e,2021-07-07_10h57.04.938,Simcolourproject_2stim_asymm_v5,2020.2.10,Win32,60,60e52e7cfedb1dae636df45f,,,,,,,,,657,36,-60.5,1,0,0,response3disk,,4,10,-8.5,1,0,0,rectangle,10,-8.5,1,0,0,10,-8.5,1,0,0,1,45,205,115,1,,,,,,,,
,,,,,,,,,,,,,FF,,,,,,,,0.966,,,,,,,,,,,,,,,,,,,,,,60e435add197abec7bebe435,60e565ada326ed4b6c94435e,2021-07-07_10h57.04.938,Simcolourproject_2stim_asymm_v5,2020.2.10,Win32,60,60e52e7cfedb1dae636df45f,,,,,,,,,2445,44,27.5,1,0,0,response1disk,,6,13,0.5,1,0,0,rectangle,-34,-52.5,1,0,0,-1,-2.5,1,0,0,1,46,206,6,1,,response5disk_3,TRUE,3,2,"[215,25,45,87,260,279,61,207,200,192,130,317,138,106,31,246,62,111,61,165]",1.3171,rectangle
,,,,,,,,,,,,,FF,,,,,,,,0.7328,,,,,,,,,,,,,,,,,,,,,,60e435add197abec7bebe435,60e565ada326ed4b6c94435e,2021-07-07_10h57.04.938,Simcolourproject_2stim_asymm_v5,2020.2.10,Win32,60,60e52e7cfedb1dae636df45f,,,,,,,,,4088,37,-45.5,1,0,0,response3disk,,4,17,2.5,1,0,0,rectangle,17,2.5,1,0,0,17,2.5,1,0,0,1,47,207,138,1,,,,,,,,
,,,,,,,,,,,,,FF,,,,,,,,0.8012,,,,,,,,,,,,,,,,,,,,,,60e435add197abec7bebe435,60e565ada326ed4b6c94435e,2021-07-07_10h57.04.938,Simcolourproject_2stim_asymm_v5,2020.2.10,Win32,60,60e52e7cfedb1dae636df45f,,,,,,,,,3371,48,-22.5,1,0,0,response3disk,,5,-18,1.5,1,0,0,rectangle,-18,1.5,1,0,0,-18,1.5,1,0,0,1,48,208,45,1,,,,,,,,
,,,,,,,,,,,,,FF,,,,,,,,1.1537,,,,,,,,,,,,,,,,,,,,,,60e435add197abec7bebe435,60e565ada326ed4b6c94435e,2021-07-07_10h57.04.938,Simcolourproject_2stim_asymm_v5,2020.2.10,Win32,60,60e52e7cfedb1dae636df45f,,,,,,,,,4357,-37,44.5,1,0,0,response7disk,,0,-10,12.5,1,0,0,rectangle,-10,12.5,1,0,0,-10,12.5,1,0,0,1,49,209,78,1,,,,,,,,
,,,,,,,,,,,,,FF,,,,,,,,0.6488,,,,,,,,,,,,,,,,,,,,,,60e435add197abec7bebe435,60e565ada326ed4b6c94435e,2021-07-07_10h57.04.938,Simcolourproject_2stim_asymm_v5,2020.2.10,Win32,60,60e52e7cfedb1dae636df45f,,,,,,,,,3579,-41,-32.5,1,0,0,response5disk,,2,-10,-5.5,1,0,0,rectangle,-10,-5.5,1,0,0,-10,-5.5,1,0,0,1,50,210,135,1,,,,,,,,
,,,,,,,,,,,,,FF,,,,,,,,0.5657,,,,,,,,,,,,,,,,,,,,,,60e435add197abec7bebe435,60e565ada326ed4b6c94435e,2021-07-07_10h57.04.938,Simcolourproject_2stim_asymm_v5,2020.2.10,Win32,60,60e52e7cfedb1dae636df45f,,,,,,,,,253,35,-28.5,1,0,0,response3disk,,5,14,-6.5,1,0,0,rectangle,14,-6.5,1,0,0,14,-6.5,1,0,0,1,51,211,104,1,,,,,,,,
,,,,,,,,,,,,,FF,,,,,,,,0.5513,,,,,,,,,,,,,,,,,,,,,,60e435add197abec7bebe435,60e565ada326ed4b6c94435e,2021-07-07_10h57.04.938,Simcolourproject_2stim_asymm_v5,2020.2.10,Win32,60,60e52e7cfedb1dae636df45f,,,,,,,,,831,-43,-48.5,1,0,0,response5disk,,3,-18,-8.5,1,0,0,rectangle,-18,-8.5,1,0,0,-18,-8.5,1,0,0,1,52,212,122,1,,,,,,,,
,,,,,,,,,,,,,FF,,,,,,,,0.7797,,,,,,,,,,,,,,,,,,,,,,60e435add197abec7bebe435,60e565ada326ed4b6c94435e,2021-07-07_10h57.04.938,Simcolourproject_2stim_asymm_v5,2020.2.10,Win32,60,60e52e7cfedb1dae636df45f,,,,,,,,,519,38,-23.5,1,0,0,response3disk,,5,23,-7.5,1,0,0,rectangle,23,-7.5,1,0,0,23,-7.5,1,0,0,1,53,213,128,1,,,,,,,,
,,,,,,,,,,,,,FF,,,,,,,,0.9323,,,,,,,,,,,,,,,,,,,,,,60e435add197abec7bebe435,60e565ada326ed4b6c94435e,2021-07-07_10h57.04.938,Simcolourproject_2stim_asymm_v5,2020.2.10,Win32,60,60e52e7cfedb1dae636df45f,,,,,,,,,2360,-38,-25.5,1,0,0,response5disk,,2,-6,-5.5,1,0,0,rectangle,-45,25.5,1,0,0,-4,1.5,1,0,0,1,54,214,21,1,,response7disk_3,TRUE,1,1,"[215,25,45,87,260,279,61,207,200,192,130,317,138,106,31,246,62,111,61,165]",1.1856,rectangle
,,,,,,,,,,,,,FF,,,,,,,,0.5659,,,,,,,,,,,,,,,,,,,,,,60e435add197abec7bebe435,60e565ada326ed4b6c94435e,2021-07-07_10h57.04.938,Simcolourproject_2stim_asymm_v5,2020.2.10,Win32,60,60e52e7cfedb1dae636df45f,,,,,,,,,3648,45,-27.5,1,0,0,response3disk,,5,7,-4.5,1,0,0,rectangle,7,-4.5,1,0,0,7,-4.5,1,0,0,1,55,215,82,1,,,,,,,,
,,,,,,,,,,,,,FF,,,,,,,,0.7481,,,,,,,,,,,,,,,,,,,,,,60e435add197abec7bebe435,60e565ada326ed4b6c94435e,2021-07-07_10h57.04.938,Simcolourproject_2stim_asymm_v5,2020.2.10,Win32,60,60e52e7cfedb1dae636df45f,,,,,,,,,3276,-26,-15.5,1,0,0,response5disk,,2,-5,2.5,1,0,0,rectangle,-5,2.5,1,0,0,-5,2.5,1,0,0,1,56,216,131,1,,,,,,,,
,,,,,,,,,,,,,FF,,,,,,,,0.6013,,,,,,,,,,,,,,,,,,,,,,60e435add197abec7bebe435,60e565ada326ed4b6c94435e,2021-07-07_10h57.04.938,Simcolourproject_2stim_asymm_v5,2020.2.10,Win32,60,60e52e7cfedb1dae636df45f,,,,,,,,,1509,29,-49.5,1,0,0,response3disk,,4,17,-8.5,1,0,0,rectangle,17,-8.5,1,0,0,17,-8.5,1,0,0,1,57,217,3,1,,,,,,,,
,,,,,,,,,,,,,FF,,,,,,,,1.0669,,,,,,,,,,,,,,,,,,,,,,60e435add197abec7bebe435,60e565ada326ed4b6c94435e,2021-07-07_10h57.04.938,Simcolourproject_2stim_asymm_v5,2020.2.10,Win32,60,60e52e7cfedb1dae636df45f,,,,,,,,,882,-31,49.5,1,0,0,response7disk,,0,-10,-2.5,1,0,0,rectangle,-10,-2.5,1,0,0,-10,-2.5,1,0,0,1,58,218,15,1,,,,,,,,
,,,,,,,,,,,,,FF,,,,,,,,0.4667,,,,,,,,,,,,,,,,,,,,,,60e435add197abec7bebe435,60e565ada326ed4b6c94435e,2021-07-07_10h57.04.938,Simcolourproject_2stim_asymm_v5,2020.2.10,Win32,60,60e52e7cfedb1dae636df45f,,,,,,,,,2187,-21,-55.5,1,0,0,response5disk,,3,2,3.5,1,0,0,rectangle,2,3.5,1,0,0,2,3.5,1,0,0,1,59,219,41,1,,,,,,,,
,,,,,,,,,,,,,FF,,,,,,,,0.4841,,,,,,,,,,,,,,,,,,,,,,60e435add197abec7bebe435,60e565ada326ed4b6c94435e,2021-07-07_10h57.04.938,Simcolourproject_2stim_asymm_v5,2020.2.10,Win32,60,60e52e7cfedb1dae636df45f,,,,,,,,,528,37,-38.5,1,0,0,response3disk,,4,21,-6.5,1,0,0,rectangle,21,-6.5,1,0,0,21,-6.5,1,0,0,1,60,220,12,1,,,,,,,,
,,,,,,,,,,,,,FF,,,,,,,,0.7322,,,,,,,,,,,,,,,,,,,,,,60e435add197abec7bebe435,60e565ada326ed4b6c94435e,2021-07-07_10h57.04.938,Simcolourproject_2stim_asymm_v5,2020.2.10,Win32,60,60e52e7cfedb1dae636df45f,,,,,,,,,3188,45,22.5,1,0,0,response1disk,,6,0,13.5,1,0,0,rectangle,0,13.5,1,0,0,0,13.5,1,0,0,1,61,221,137,1,,,,,,,,
,,,,,,,,,,,,,FF,,,,,,,,0.8001,,,,,,,,,,,,,,,,,,,,,,60e435add197abec7bebe435,60e565ada326ed4b6c94435e,2021-07-07_10h57.04.938,Simcolourproject_2stim_asymm_v5,2020.2.10,Win32,60,60e52e7cfedb1dae636df45f,,,,,,,,,3599,-51,-20.5,1,0,0,response5disk,,2,-19,11.5,1,0,0,rectangle,-19,11.5,1,0,0,-19,11.5,1,0,0,1,62,222,24,1,,,,,,,,
,,,,,,,,,,,,,FF,,,,,,,,0.7658,,,,,,,,,,,,,,,,,,,,,,60e435add197abec7bebe435,60e565ada326ed4b6c94435e,2021-07-07_10h57.04.938,Simcolourproject_2stim_asymm_v5,2020.2.10,Win32,60,60e52e7cfedb1dae636df45f,,,,,,,,,3349,38,-32.5,1,0,0,response3disk,,5,10,-12.5,1,0,0,rectangle,10,-12.5,1,0,0,10,-12.5,1,0,0,1,63,223,52,1,,,,,,,,
,,,,,,,,,,,,,FF,,,,,,,,0.4851,,,,,,,,,,,,,,,,,,,,,,60e435add197abec7bebe435,60e565ada326ed4b6c94435e,2021-07-07_10h57.04.938,Simcolourproject_2stim_asymm_v5,2020.2.10,Win32,60,60e52e7cfedb1dae636df45f,,,,,,,,,3568,-32,-42.5,1,0,0,response5disk,,3,-15,-3.5,1,0,0,rectangle,-15,-3.5,1,0,0,-15,-3.5,1,0,0,1,64,224,49,1,,,,,,,,
,,,,,,,,,,,,,FF,,,,,,,,0.75,,,,,,,,,,,,,,,,,,,,,,60e435add197abec7bebe435,60e565ada326ed4b6c94435e,2021-07-07_10h57.04.938,Simcolourproject_2stim_asymm_v5,2020.2.10,Win32,60,60e52e7cfedb1dae636df45f,,,,,,,,,1228,41,17.5,1,0,0,response1disk,,6,20,9.5,1,0,0,rectangle,20,9.5,1,0,0,20,9.5,1,0,0,1,65,225,86,1,,,,,,,,
,,,,,,,,,,,,,FF,,,,,,,,0.4498,,,,,,,,,,,,,,,,,,,,,,60e435add197abec7bebe435,60e565ada326ed4b6c94435e,2021-07-07_10h57.04.938,Simcolourproject_2stim_asymm_v5,2020.2.10,Win32,60,60e52e7cfedb1dae636df45f,,,,,,,,,3679,42,-29.5,1,0,0,response3disk,,5,12,-10.5,1,0,0,rectangle,12,-10.5,1,0,0,12,-10.5,1,0,0,1,66,226,147,1,,,,,,,,
,,,,,,,,,,,,,FF,,,,,,,,0.7488,,,,,,,,,,,,,,,,,,,,,,60e435add197abec7bebe435,60e565ada326ed4b6c94435e,2021-07-07_10h57.04.938,Simcolourproject_2stim_asymm_v5,2020.2.10,Win32,60,60e52e7cfedb1dae636df45f,,,,,,,,,1575,-36,28.5,1,0,0,response7disk,,1,-4,4.5,1,0,0,rectangle,-4,4.5,1,0,0,-4,4.5,1,0,0,1,67,227,145,1,,,,,,,,
,,,,,,,,,,,,,FF,,,,,,,,0.8489,,,,,,,,,,,,,,,,,,,,,,60e435add197abec7bebe435,60e565ada326ed4b6c94435e,2021-07-07_10h57.04.938,Simcolourproject_2stim_asymm_v5,2020.2.10,Win32,60,60e52e7cfedb1dae636df45f,,,,,,,,,2345,46,-19.5,1,0,0,response3disk,,5,20,0.5,1,0,0,rectangle,20,0.5,1,0,0,20,0.5,1,0,0,1,68,228,151,1,,,,,,,,
,,,,,,,,,,,,,FF,,,,,,,,0.7167,,,,,,,,,,,,,,,,,,,,,,60e435add197abec7bebe435,60e565ada326ed4b6c94435e,2021-07-07_10h57.04.938,Simcolourproject_2stim_asymm_v5,2020.2.10,Win32,60,60e52e7cfedb1dae636df45f,,,,,,,,,74,42,26.5,1,0,0,response1disk,,6,-13,-1.5,1,0,0,rectangle,-13,-1.5,1,0,0,-13,-1.5,1,0,0,1,69,229,106,1,,,,,,,,
,,,,,,,,,,,,,FF,,,,,,,,0.6663,,,,,,,,,,,,,,,,,,,,,,60e435add197abec7bebe435,60e565ada326ed4b6c94435e,2021-07-07_10h57.04.938,Simcolourproject_2stim_asymm_v5,2020.2.10,Win32,60,60e52e7cfedb1dae636df45f,,,,,,,,,2464,-28,-47.5,1,0,0,response5disk,,3,-18,-11.5,1,0,0,rectangle,-18,-11.5,1,0,0,-18,-11.5,1,0,0,1,70,230,1,1,,,,,,,,
,,,,,,,,,,,,,FF,,,,,,,,0.9156,,,,,,,,,,,,,,,,,,,,,,60e435add197abec7bebe435,60e565ada326ed4b6c94435e,2021-07-07_10h57.04.938,Simcolourproject_2stim_asymm_v5,2020.2.10,Win32,60,60e52e7cfedb1dae636df45f,,,,,,,,,157,51,-25.5,1,0,0,response3disk,,5,10,-0.5,1,0,0,rectangle,10,-0.5,1,0,0,10,-0.5,1,0,0,1,71,231,72,1,,,,,,,,
,,,,,,,,,,,,,FF,,,,,,,,1.5003,,,,,,,,,,,,,,,,,,,,,,60e435add197abec7bebe435,60e565ada326ed4b6c94435e,2021-07-07_10h57.04.938,Simcolourproject_2stim_asymm_v5,2020.2.10,Win32,60,60e52e7cfedb1dae636df45f,,,,,,,,,349,-31,51.5,1,0,0,response7disk,,0,0,10.5,1,0,0,rectangle,0,10.5,1,0,0,0,10.5,1,0,0,1,72,232,107,1,,,,,,,,
,,,,,,,,,,,,,FF,,,,,,,,0.6933,,,,,,,,,,,,,,,,,,,,,,60e435add197abec7bebe435,60e565ada326ed4b6c94435e,2021-07-07_10h57.04.938,Simcolourproject_2stim_asymm_v5,2020.2.10,Win32,60,60e52e7cfedb1dae636df45f,,,,,,,,,3120,-32,-21.5,1,0,0,response5disk,,2,-8,2.5,1,0,0,rectangle,-8,2.5,1,0,0,-8,2.5,1,0,0,1,73,233,8,1,,,,,,,,
,,,,,,,,,,,,,FF,,,,,,,,0.8491,,,,,,,,,,,,,,,,,,,,,,60e435add197abec7bebe435,60e565ada326ed4b6c94435e,2021-07-07_10h57.04.938,Simcolourproject_2stim_asymm_v5,2020.2.10,Win32,60,60e52e7cfedb1dae636df45f,,,,,,,,,3799,30,59.5,1,0,0,response1disk,,7,11,4.5,1,0,0,rectangle,11,4.5,1,0,0,11,4.5,1,0,0,1,74,234,91,1,,,,,,,,
,,,,,,,,,,,,,FF,,,,,,,,0.6162,,,,,,,,,,,,,,,,,,,,,,60e435add197abec7bebe435,60e565ada326ed4b6c94435e,2021-07-07_10h57.04.938,Simcolourproject_2stim_asymm_v5,2020.2.10,Win32,60,60e52e7cfedb1dae636df45f,,,,,,,,,951,37,29.5,1,0,0,response1disk,,6,13,10.5,1,0,0,rectangle,13,10.5,1,0,0,13,10.5,1,0,0,1,75,235,53,1,,,,,,,,
,,,,,,,,,,,,,FF,,,,,,,,0.8338,,,,,,,,,,,,,,,,,,,,,,60e435add197abec7bebe435,60e565ada326ed4b6c94435e,2021-07-07_10h57.04.938,Simcolourproject_2stim_asymm_v5,2020.2.10,Win32,60,60e52e7cfedb1dae636df45f,,,,,,,,,3896,-24,-51.5,1,0,0,response5disk,,3,-3,-7.5,1,0,0,rectangle,-3,-7.5,1,0,0,-3,-7.5,1,0,0,1,76,236,85,1,,,,,,,,
,,,,,,,,,,,,,FF,,,,,,,,0.7673,,,,,,,,,,,,,,,,,,,,,,60e435add197abec7bebe435,60e565ada326ed4b6c94435e,2021-07-07_10h57.04.938,Simcolourproject_2stim_asymm_v5,2020.2.10,Win32,60,60e52e7cfedb1dae636df45f,,,,,,,,,75,36,-27.5,1,0,0,response3disk,,5,6,-11.5,1,0,0,rectangle,6,-11.5,1,0,0,6,-11.5,1,0,0,1,77,237,156,1,,,,,,,,
,,,,,,,,,,,,,FF,,,,,,,,1.0173,,,,,,,,,,,,,,,,,,,,,,60e435add197abec7bebe435,60e565ada326ed4b6c94435e,2021-07-07_10h57.04.938,Simcolourproject_2stim_asymm_v5,2020.2.10,Win32,60,60e52e7cfedb1dae636df45f,,,,,,,,,2432,35,35.5,1,0,0,response1disk,,7,5,14.5,1,0,0,rectangle,5,14.5,1,0,0,5,14.5,1,0,0,1,78,238,37,1,,,,,,,,
,,,,,,,,,,,,,FF,,,,,,,,0.699,,,,,,,,,,,,,,,,,,,,,,60e435add197abec7bebe435,60e565ada326ed4b6c94435e,2021-07-07_10h57.04.938,Simcolourproject_2stim_asymm_v5,2020.2.10,Win32,60,60e52e7cfedb1dae636df45f,,,,,,,,,2995,-50,-23.5,1,0,0,response5disk,,2,-14,-3.5,1,0,0,rectangle,-14,-3.5,1,0,0,-14,-3.5,1,0,0,1,79,239,84,1,,,,,,,,
,,,,,,,,,,,,,FF,,,,,,,,1.0825,,,,,,,,,,,,,,,,,,,,,,60e435add197abec7bebe435,60e565ada326ed4b6c94435e,2021-07-07_10h57.04.938,Simcolourproject_2stim_asymm_v5,2020.2.10,Win32,60,60e52e7cfedb1dae636df45f,,,,,,,,,1753,-31,46.5,1,0,0,response7disk,,0,-14,1.5,1,0,0,rectangle,-14,1.5,1,0,0,-14,1.5,1,0,0,1,80,240,55,1,,,,,,,,
,,,,,,,,,,,,,FF,,,,,,,,0.6676,,,,,,,,,,,,,,,,,,,,,,60e435add197abec7bebe435,60e565ada326ed4b6c94435e,2021-07-07_10h57.04.938,Simcolourproject_2stim_asymm_v5,2020.2.10,Win32,60,60e52e7cfedb1dae636df45f,,,,,,,,,2107,-43,31.5,1,0,0,response7disk,,1,-6,2.5,1,0,0,rectangle,-6,2.5,1,0,0,-6,2.5,1,0,0,1,81,241,26,1,,,,,,,,
,,,,,,,,,,,,,FF,,,,,,,,0.7664,,,,,,,,,,,,,,,,,,,,,,60e435add197abec7bebe435,60e565ada326ed4b6c94435e,2021-07-07_10h57.04.938,Simcolourproject_2stim_asymm_v5,2020.2.10,Win32,60,60e52e7cfedb1dae636df45f,,,,,,,,,3445,-39,-26.5,1,0,0,response5disk,,2,-3,-8.5,1,0,0,rectangle,-3,-8.5,1,0,0,-3,-8.5,1,0,0,1,82,242,139,1,,,,,,,,
,,,,,,,,,,,,,FF,,,,,,,,0.5989,,,,,,,,,,,,,,,,,,,,,,60e435add197abec7bebe435,60e565ada326ed4b6c94435e,2021-07-07_10h57.04.938,Simcolourproject_2stim_asymm_v5,2020.2.10,Win32,60,60e52e7cfedb1dae636df45f,,,,,,,,,873,36,-25.5,1,0,0,response3disk,,5,14,-2.5,1,0,0,rectangle,14,-2.5,1,0,0,14,-2.5,1,0,0,1,83,243,125,1,,,,,,,,
,,,,,,,,,,,,,FF,,,,,,,,0.5145,,,,,,,,,,,,,,,,,,,,,,60e435add197abec7bebe435,60e565ada326ed4b6c94435e,2021-07-07_10h57.04.938,Simcolourproject_2stim_asymm_v5,2020.2.10,Win32,60,60e52e7cfedb1dae636df45f,,,,,,,,,3247,29,-24.5,1,0,0,response3disk,,5,16,-1.5,1,0,0,rectangle,16,-1.5,1,0,0,16,-1.5,1,0,0,1,84,244,33,1,,,,,,,,
,,,,,,,,,,,,,FF,,,,,,,,0.7487,,,,,,,,,,,,,,,,,,,,,,60e435add197abec7bebe435,60e565ada326ed4b6c94435e,2021-07-07_10h57.04.938,Simcolourproject_2stim_asymm_v5,2020.2.10,Win32,60,60e52e7cfedb1dae636df45f,,,,,,,,,3977,-28,-57.5,1,0,0,response5disk,,3,-2,-8.5,1,0,0,rectangle,49,-18.5,1,0,0,19,-1.5,1,0,0,1,85,245,27,1,,response3disk_3,TRUE,5,5,"[215,25,45,87,260,279,61,207,200,192,130,317,138,106,31,246,62,111,61,165]",1.6151,rectangle
,,,,,,,,,,,,,FF,,,,,,,,0.5508,,,,,,,,,,,,,,,,,,,,,,60e435add197abec7bebe435,60e565ada326ed4b6c94435e,2021-07-07_10h57.04.938,Simcolourproject_2stim_asymm_v5,2020.2.10,Win32,60,60e52e7cfedb1dae636df45f,,,,,,,,,1024,38,-26.5,1,0,0,response3disk,,5,15,-0.5,1,0,0,rectangle,15,-0.5,1,0,0,15,-0.5,1,0,0,1,86,246,146,1,,,,,,,,
,,,,,,,,,,,,,FF,,,,,,,,0.9825,,,,,,,,,,,,,,,,,,,,,,60e435add197abec7bebe435,60e565ada326ed4b6c94435e,2021-07-07_10h57.04.938,Simcolourproject_2stim_asymm_v5,2020.2.10,Win32,60,60e52e7cfedb1dae636df45f,,,,,,,,,3283,-38,-20.5,1,0,0,response5disk,,2,5,-9.5,1,0,0,rectangle,5,-9.5,1,0,0,5,-9.5,1,0,0,1,87,247,98,1,,,,,,,,
,,,,,,,,,,,,,FF,,,,,,,,0.601,,,,,,,,,,,,,,,,,,,,,,60e435add197abec7bebe435,60e565ada326ed4b6c94435e,2021-07-07_10h57.04.938,Simcolourproject_2stim_asymm_v5,2020.2.10,Win32,60,60e52e7cfedb1dae636df45f,,,,,,,,,1510,41,-25.5,1,0,0,response3disk,,5,20,-3.5,1,0,0,rectangle,20,-3.5,1,0,0,20,-3.5,1,0,0,1,88,248,96,1,,,,,,,,
,,,,,,,,,,,,,FF,,,,,,,,0.5001,,,,,,,,,,,,,,,,,,,,,,60e435add197abec7bebe435,60e565ada326ed4b6c94435e,2021-07-07_10h57.04.938,Simcolourproject_2stim_asymm_v5,2020.2.10,Win32,60,60e52e7cfedb1dae636df45f,,,,,,,,,152,24,-43.5,1,0,0,response3disk,,4,14,-9.5,1,0,0,rectangle,14,-9.5,1,0,0,14,-9.5,1,0,0,1,89,249,116,1,,,,,,,,
,,,,,,,,,,,,,FF,,,,,,,,0.6499,,,,,,,,,,,,,,,,,,,,,,60e435add197abec7bebe435,60e565ada326ed4b6c94435e,2021-07-07_10h57.04.938,Simcolourproject_2stim_asymm_v5,2020.2.10,Win32,60,60e52e7cfedb1dae636df45f,,,,,,,,,1830,50,26.5,1,0,0,response1disk,,6,14,4.5,1,0,0,rectangle,14,4.5,1,0,0,14,4.5,1,0,0,1,90,250,22,1,,,,,,,,
,,,,,,,,,,,,,FF,,,,,,,,0.9841,,,,,,,,,,,,,,,,,,,,,,60e435add197abec7bebe435,60e565ada326ed4b6c94435e,2021-07-07_10h57.04.938,Simcolourproject_2stim_asymm_v5,2020.2.10,Win32,60,60e52e7cfedb1dae636df45f,,,,,,,,,3327,40,54.5,1,0,0,response1disk,,7,24,6.5,1,0,0,rectangle,24,6.5,1,0,0,24,6.5,1,0,0,1,91,251,150,1,,,,,,,,
,,,,,,,,,,,,,FF,,,,,,,,0.5342,,,,,,,,,,,,,,,,,,,,,,60e435add197abec7bebe435,60e565ada326ed4b6c94435e,2021-07-07_10h57.04.938,Simcolourproject_2stim_asymm_v5,2020.2.10,Win32,60,60e52e7cfedb1dae636df45f,,,,,,,,,2736,33,-38.5,1,0,0,response3disk,,4,25,-4.5,1,0,0,rectangle,25,-4.5,1,0,0,25,-4.5,1,0,0,1,92,252,17,1,,,,,,,,
,,,,,,,,,,,,,FF,,,,,,,,0.4995,,,,,,,,,,,,,,,,,,,,,,60e435add197abec7bebe435,60e565ada326ed4b6c94435e,2021-07-07_10h57.04.938,Simcolourproject_2stim_asymm_v5,2020.2.10,Win32,60,60e52e7cfedb1dae636df45f,,,,,,,,,808,-31,-37.5,1,0,0,response5disk,,3,3,3.5,1,0,0,rectangle,3,3.5,1,0,0,3,3.5,1,0,0,1,93,253,113,1,,,,,,,,
,,,,,,,,,,,,,FF,,,,,,,,0.4659,,,,,,,,,,,,,,,,,,,,,,60e435add197abec7bebe435,60e565ada326ed4b6c94435e,2021-07-07_10h57.04.938,Simcolourproject_2stim_asymm_v5,2020.2.10,Win32,60,60e52e7cfedb1dae636df45f,,,,,,,,,2172,47,-24.5,1,0,0,response3disk,,5,10,-4.5,1,0,0,rectangle,10,-4.5,1,0,0,10,-4.5,1,0,0,1,94,254,42,1,,,,,,,,
,,,,,,,,,,,,,FF,,,,,,,,0.8317,,,,,,,,,,,,,,,,,,,,,,60e435add197abec7bebe435,60e565ada326ed4b6c94435e,2021-07-07_10h57.04.938,Simcolourproject_2stim_asymm_v5,2020.2.10,Win32,60,60e52e7cfedb1dae636df45f,,,,,,,,,3388,-37,60.5,1,0,0,response7disk,,0,-5,0.5,1,0,0,rectangle,-5,0.5,1,0,0,-5,0.5,1,0,0,1,95,255,63,1,,,,,,,,
,,,,,,,,,,,,,FF,,,,,,,,1.0488,,,,,,,,,,,,,,,,,,,,,,60e435add197abec7bebe435,60e565ada326ed4b6c94435e,2021-07-07_10h57.04.938,Simcolourproject_2stim_asymm_v5,2020.2.10,Win32,60,60e52e7cfedb1dae636df45f,,,,,,,,,3454,16,-38.5,1,0,0,response3disk,,4,10,-10.5,1,0,0,rectangle,10,-10.5,1,0,0,10,-10.5,1,0,0,1,96,256,65,1,,,,,,,,
,,,,,,,,,,,,,FF,,,,,,,,1.0333,,,,,,,,,,,,,,,,,,,,,,60e435add197abec7bebe435,60e565ada326ed4b6c94435e,2021-07-07_10h57.04.938,Simcolourproject_2stim_asymm_v5,2020.2.10,Win32,60,60e52e7cfedb1dae636df45f,,,,,,,,,1610,-43,53.5,1,0,0,response7disk,,0,-13,3.5,1,0,0,rectangle,-13,3.5,1,0,0,-13,3.5,1,0,0,1,97,257,20,1,,,,,,,,
,,,,,,,,,,,,,FF,,,,,,,,0.6327,,,,,,,,,,,,,,,,,,,,,,60e435add197abec7bebe435,60e565ada326ed4b6c94435e,2021-07-07_10h57.04.938,Simcolourproject_2stim_asymm_v5,2020.2.10,Win32,60,60e52e7cfedb1dae636df45f,,,,,,,,,2976,-42,35.5,1,0,0,response7disk,,1,8,5.5,1,0,0,rectangle,8,5.5,1,0,0,8,5.5,1,0,0,1,98,258,101,1,,,,,,,,
,,,,,,,,,,,,,FF,,,,,,,,0.6163,,,,,,,,,,,,,,,,,,,,,,60e435add197abec7bebe435,60e565ada326ed4b6c94435e,2021-07-07_10h57.04.938,Simcolourproject_2stim_asymm_v5,2020.2.10,Win32,60,60e52e7cfedb1dae636df45f,,,,,,,,,3328,-27,-34.5,1,0,0,response5disk,,3,10,9.5,1,0,0,rectangle,18,-53.5,1,0,0,4,-6.5,1,0,0,1,99,259,79,1,,response3disk_3,TRUE,4,4,"[215,25,45,87,260,279,61,207,200,192,130,317,138,106,31,246,62,111,61,165]",1.4342,rectangle
,,,,,,,,,,,,,FF,,,,,,,,0.6497,,,,,,,,,,,,,,,,,,,,,,60e435add197abec7bebe435,60e565ada326ed4b6c94435e,2021-07-07_10h57.04.938,Simcolourproject_2stim_asymm_v5,2020.2.10,Win32,60,60e52e7cfedb1dae636df45f,,,,,,,,,1558,48,-22.5,1,0,0,response3disk,,5,18,2.5,1,0,0,rectangle,18,2.5,1,0,0,18,2.5,1,0,0,1,100,260,74,1,,,,,,,,
,,,,,,,,,,,,,FF,,,,,,,,0.5671,,,,,,,,,,,,,,,,,,,,,,60e435add197abec7bebe435,60e565ada326ed4b6c94435e,2021-07-07_10h57.04.938,Simcolourproject_2stim_asymm_v5,2020.2.10,Win32,60,60e52e7cfedb1dae636df45f,,,,,,,,,4128,-42,-24.5,1,0,0,response5disk,,2,-3,-5.5,1,0,0,rectangle,-3,-5.5,1,0,0,-3,-5.5,1,0,0,1,101,261,136,1,,,,,,,,
,,,,,,,,,,,,,FF,,,,,,,,1.0486,,,,,,,,,,,,,,,,,,,,,,60e435add197abec7bebe435,60e565ada326ed4b6c94435e,2021-07-07_10h57.04.938,Simcolourproject_2stim_asymm_v5,2020.2.10,Win32,60,60e52e7cfedb1dae636df45f,,,,,,,,,3954,-26,43.5,1,0,0,response7disk,,0,1,-6.5,1,0,0,rectangle,1,-6.5,1,0,0,1,-6.5,1,0,0,1,102,262,100,1,,,,,,,,
,,,,,,,,,,,,,FF,,,,,,,,0.7337,,,,,,,,,,,,,,,,,,,,,,60e435add197abec7bebe435,60e565ada326ed4b6c94435e,2021-07-07_10h57.04.938,Simcolourproject_2stim_asymm_v5,2020.2.10,Win32,60,60e52e7cfedb1dae636df45f,,,,,,,,,2154,28,-33.5,1,0,0,response3disk,,4,13,3.5,1,0,0,rectangle,13,3.5,1,0,0,13,3.5,1,0,0,1,103,263,29,1,,,,,,,,
,,,,,,,,,,,,,FF,,,,,,,,0.6849,,,,,,,,,,,,,,,,,,,,,,60e435add197abec7bebe435,60e565ada326ed4b6c94435e,2021-07-07_10h57.04.938,Simcolourproject_2stim_asymm_v5,2020.2.10,Win32,60,60e52e7cfedb1dae636df45f,,,,,,,,,1385,46,23.5,1,0,0,response1disk,,6,-4,3.5,1,0,0,rectangle,-4,3.5,1,0,0,-4,3.5,1,0,0,1,104,264,7,1,,,,,,,,
,,,,,,,,,,,,,FF,,,,,,,,0.6505,,,,,,,,,,,,,,,,,,,,,,60e435add197abec7bebe435,60e565ada326ed4b6c94435e,2021-07-07_10h57.04.938,Simcolourproject_2stim_asymm_v5,2020.2.10,Win32,60,60e52e7cfedb1dae636df45f,,,,,,,,,2657,-30,-25.5,1,0,0,response5disk,,2,3,-1.5,1,0,0,rectangle,3,-1.5,1,0,0,3,-1.5,1,0,0,1,105,265,25,1,,,,,,,,
,,,,,,,,,,,,,FF,,,,,,,,0.6167,,,,,,,,,,,,,,,,,,,,,,60e435add197abec7bebe435,60e565ada326ed4b6c94435e,2021-07-07_10h57.04.938,Simcolourproject_2stim_asymm_v5,2020.2.10,Win32,60,60e52e7cfedb1dae636df45f,,,,,,,,,3064,41,-23.5,1,0,0,response3disk,,5,16,0.5,1,0,0,rectangle,16,0.5,1,0,0,16,0.5,1,0,0,1,106,266,56,1,,,,,,,,
,,,,,,,,,,,,,FF,,,,,,,,0.5837,,,,,,,,,,,,,,,,,,,,,,60e435add197abec7bebe435,60e565ada326ed4b6c94435e,2021-07-07_10h57.04.938,Simcolourproject_2stim_asymm_v5,2020.2.10,Win32,60,60e52e7cfedb1dae636df45f,,,,,,,,,4042,-21,-37.5,1,0,0,response5disk,,3,1,-15.5,1,0,0,rectangle,1,-15.5,1,0,0,1,-15.5,1,0,0,1,107,267,68,1,,,,,,,,
,,,,,,,,,,,,,FF,,,,,,,,0.5668,,,,,,,,,,,,,,,,,,,,,,60e435add197abec7bebe435,60e565ada326ed4b6c94435e,2021-07-07_10h57.04.938,Simcolourproject_2stim_asymm_v5,2020.2.10,Win32,60,60e52e7cfedb1dae636df45f,,,,,,,,,2555,34,19.5,1,0,0,response1disk,,6,-7,11.5,1,0,0,rectangle,-7,11.5,1,0,0,-7,11.5,1,0,0,1,108,268,92,1,,,,,,,,
,,,,,,,,,,,,,FF,,,,,,,,0.7011,,,,,,,,,,,,,,,,,,,,,,60e435add197abec7bebe435,60e565ada326ed4b6c94435e,2021-07-07_10h57.04.938,Simcolourproject_2stim_asymm_v5,2020.2.10,Win32,60,60e52e7cfedb1dae636df45f,,,,,,,,,541,-46,-17.5,1,0,0,response5disk,,2,-25,0.5,1,0,0,rectangle,-25,0.5,1,0,0,-25,0.5,1,0,0,1,109,269,103,1,,,,,,,,
,,,,,,,,,,,,,FF,,,,,,,,0.5831,,,,,,,,,,,,,,,,,,,,,,60e435add197abec7bebe435,60e565ada326ed4b6c94435e,2021-07-07_10h57.04.938,Simcolourproject_2stim_asymm_v5,2020.2.10,Win32,60,60e52e7cfedb1dae636df45f,,,,,,,,,1383,17,-36.5,1,0,0,response3disk,,4,9,-4.5,1,0,0,rectangle,9,-4.5,1,0,0,9,-4.5,1,0,0,1,110,270,88,1,,,,,,,,
,,,,,,,,,,,,,FF,,,,,,,,0.6503,,,,,,,,,,,,,,,,,,,,,,60e435add197abec7bebe435,60e565ada326ed4b6c94435e,2021-07-07_10h57.04.938,Simcolourproject_2stim_asymm_v5,2020.2.10,Win32,60,60e52e7cfedb1dae636df45f,,,,,,,,,2981,31,-24.5,1,0,0,response3disk,,5,2,-9.5,1,0,0,rectangle,2,-9.5,1,0,0,2,-9.5,1,0,0,1,111,271,9,1,,,,,,,,
,,,,,,,,,,,,,FF,,,,,,,,0.6488,,,,,,,,,,,,,,,,,,,,,,60e435add197abec7bebe435,60e565ada326ed4b6c94435e,2021-07-07_10h57.04.938,Simcolourproject_2stim_asymm_v5,2020.2.10,Win32,60,60e52e7cfedb1dae636df45f,,,,,,,,,477,-39,-49.5,1,0,0,response5disk,,3,-17,-5.5,1,0,0,rectangle,-17,-5.5,1,0,0,-17,-5.5,1,0,0,1,112,272,102,1,,,,,,,,
,,,,,,,,,,,,,FF,,,,,,,,1.1321,,,,,,,,,,,,,,,,,,,,,,60e435add197abec7bebe435,60e565ada326ed4b6c94435e,2021-07-07_10h57.04.938,Simcolourproject_2stim_asymm_v5,2020.2.10,Win32,60,60e52e7cfedb1dae636df45f,,,,,,,,,380,34,-20.5,1,0,0,response3disk,,5,11,-2.5,1,0,0,rectangle,11,-2.5,1,0,0,11,-2.5,1,0,0,1,113,273,23,1,,,,,,,,
,,,,,,,,,,,,,FF,,,,,,,,0.5487,,,,,,,,,,,,,,,,,,,,,,60e435add197abec7bebe435,60e565ada326ed4b6c94435e,2021-07-07_10h57.04.938,Simcolourproject_2stim_asymm_v5,2020.2.10,Win32,60,60e52e7cfedb1dae636df45f,,,,,,,,,3986,-41,-27.5,1,0,0,response5disk,,2,-8,-10.5,1,0,0,rectangle,-8,-10.5,1,0,0,-8,-10.5,1,0,0,1,114,274,112,1,,,,,,,,
,,,,,,,,,,,,,FF,,,,,,,,0.5841,,,,,,,,,,,,,,,,,,,,,,60e435add197abec7bebe435,60e565ada326ed4b6c94435e,2021-07-07_10h57.04.938,Simcolourproject_2stim_asymm_v5,2020.2.10,Win32,60,60e52e7cfedb1dae636df45f,,,,,,,,,3612,-19,-53.5,1,0,0,response5disk,,3,5,-7.5,1,0,0,rectangle,5,-7.5,1,0,0,5,-7.5,1,0,0,1,115,275,57,1,,,,,,,,
,,,,,,,,,,,,,FF,,,,,,,,0.734,,,,,,,,,,,,,,,,,,,,,,60e435add197abec7bebe435,60e565ada326ed4b6c94435e,2021-07-07_10h57.04.938,Simcolourproject_2stim_asymm_v5,2020.2.10,Win32,60,60e52e7cfedb1dae636df45f,,,,,,,,,1661,29,49.5,1,0,0,response1disk,,7,13,8.5,1,0,0,rectangle,13,8.5,1,0,0,13,8.5,1,0,0,1,116,276,59,1,,,,,,,,
,,,,,,,,,,,,,FF,,,,,,,,0.5987,,,,,,,,,,,,,,,,,,,,,,60e435add197abec7bebe435,60e565ada326ed4b6c94435e,2021-07-07_10h57.04.938,Simcolourproject_2stim_asymm_v5,2020.2.10,Win32,60,60e52e7cfedb1dae636df45f,,,,,,,,,296,-31,-38.5,1,0,0,response5disk,,3,-28,-2.5,1,0,0,rectangle,-28,-2.5,1,0,0,-28,-2.5,1,0,0,1,117,277,152,1,,,,,,,,
,,,,,,,,,,,,,FF,,,,,,,,0.7661,,,,,,,,,,,,,,,,,,,,,,60e435add197abec7bebe435,60e565ada326ed4b6c94435e,2021-07-07_10h57.04.938,Simcolourproject_2stim_asymm_v5,2020.2.10,Win32,60,60e52e7cfedb1dae636df45f,,,,,,,,,3030,35,-19.5,1,0,0,response3disk,,5,17,-10.5,1,0,0,rectangle,32,-55.5,1,0,0,10,-6.5,1,0,0,1,118,278,50,1,,response3disk_3,TRUE,4,4,"[215,25,45,87,260,279,61,207,200,192,130,317,138,106,31,246,62,111,61,165]",1.3175,rectangle
,,,,,,,,,,,,,FF,,,,,,,,0.5328,,,,,,,,,,,,,,,,,,,,,,60e435add197abec7bebe435,60e565ada326ed4b6c94435e,2021-07-07_10h57.04.938,Simcolourproject_2stim_asymm_v5,2020.2.10,Win32,60,60e52e7cfedb1dae636df45f,,,,,,,,,1543,-24,-49.5,1,0,0,response5disk,,3,11,-4.5,1,0,0,rectangle,11,-4.5,1,0,0,11,-4.5,1,0,0,1,119,279,158,1,,,,,,,,
,,,,,,,,,,,,,FF,,,,,,,,0.7826,,,,,,,,,,,,,,,,,,,,,,60e435add197abec7bebe435,60e565ada326ed4b6c94435e,2021-07-07_10h57.04.938,Simcolourproject_2stim_asymm_v5,2020.2.10,Win32,60,60e52e7cfedb1dae636df45f,,,,,,,,,1212,35,-21.5,1,0,0,response3disk,,5,17,0.5,1,0,0,rectangle,17,0.5,1,0,0,17,0.5,1,0,0,1,120,280,108,1,,,,,,,,
,,,,,,,,,,,,,FF,,,,,,,,0.5497,,,,,,,,,,,,,,,,,,,,,,60e435add197abec7bebe435,60e565ada326ed4b6c94435e,2021-07-07_10h57.04.938,Simcolourproject_2stim_asymm_v5,2020.2.10,Win32,60,60e52e7cfedb1dae636df45f,,,,,,,,,1539,-22,-45.5,1,0,0,response5disk,,3,0,2.5,1,0,0,rectangle,0,2.5,1,0,0,0,2.5,1,0,0,1,121,281,11,1,,,,,,,,
,,,,,,,,,,,,,FF,,,,,,,,0.6666,,,,,,,,,,,,,,,,,,,,,,60e435add197abec7bebe435,60e565ada326ed4b6c94435e,2021-07-07_10h57.04.938,Simcolourproject_2stim_asymm_v5,2020.2.10,Win32,60,60e52e7cfedb1dae636df45f,,,,,,,,,2189,49,-21.5,1,0,0,response3disk,,5,25,1.5,1,0,0,rectangle,25,1.5,1,0,0,25,1.5,1,0,0,1,122,282,0,1,,,,,,,,
,,,,,,,,,,,,,FF,,,,,,,,0.6678,,,,,,,,,,,,,,,,,,,,,,60e435add197abec7bebe435,60e565ada326ed4b6c94435e,2021-07-07_10h57.04.938,Simcolourproject_2stim_asymm_v5,2020.2.10,Win32,60,60e52e7cfedb1dae636df45f,,,,,,,,,1178,-22,-32.5,1,0,0,response5disk,,3,-1,4.5,1,0,0,rectangle,-1,4.5,1,0,0,-1,4.5,1,0,0,1,123,283,140,1,,,,,,,,
,,,,,,,,,,,,,FF,,,,,,,,0.6996,,,,,,,,,,,,,,,,,,,,,,60e435add197abec7bebe435,60e565ada326ed4b6c94435e,2021-07-07_10h57.04.938,Simcolourproject_2stim_asymm_v5,2020.2.10,Win32,60,60e52e7cfedb1dae636df45f,,,,,,,,,1560,55,18.5,1,0,0,response1disk,,6,-4,4.5,1,0,0,rectangle,-4,4.5,1,0,0,-4,4.5,1,0,0,1,124,284,48,1,,,,,,,,
,,,,,,,,,,,,,FF,,,,,,,,0.4503,,,,,,,,,,,,,,,,,,,,,,60e435add197abec7bebe435,60e565ada326ed4b6c94435e,2021-07-07_10h57.04.938,Simcolourproject_2stim_asymm_v5,2020.2.10,Win32,60,60e52e7cfedb1dae636df45f,,,,,,,,,1714,46,-39.5,1,0,0,response3disk,,5,-3,-8.5,1,0,0,rectangle,-3,-8.5,1,0,0,-3,-8.5,1,0,0,1,125,285,130,1,,,,,,,,
,,,,,,,,,,,,,FF,,,,,,,,0.8506,,,,,,,,,,,,,,,,,,,,,,60e435add197abec7bebe435,60e565ada326ed4b6c94435e,2021-07-07_10h57.04.938,Simcolourproject_2stim_asymm_v5,2020.2.10,Win32,60,60e52e7cfedb1dae636df45f,,,,,,,,,2524,-21,-38.5,1,0,0,response5disk,,3,-5,-9.5,1,0,0,rectangle,-5,-9.5,1,0,0,-5,-9.5,1,0,0,1,126,286,117,1,,,,,,,,
,,,,,,,,,,,,,FF,,,,,,,,0.6335,,,,,,,,,,,,,,,,,,,,,,60e435add197abec7bebe435,60e565ada326ed4b6c94435e,2021-07-07_10h57.04.938,Simcolourproject_2stim_asymm_v5,2020.2.10,Win32,60,60e52e7cfedb1dae636df45f,,,,,,,,,2055,-32,-17.5,1,0,0,response5disk,,2,-18,4.5,1,0,0,rectangle,-18,4.5,1,0,0,-18,4.5,1,0,0,1,127,287,132,1,,,,,,,,
,,,,,,,,,,,,,FF,,,,,,,,0.8835,,,,,,,,,,,,,,,,,,,,,,60e435add197abec7bebe435,60e565ada326ed4b6c94435e,2021-07-07_10h57.04.938,Simcolourproject_2stim_asymm_v5,2020.2.10,Win32,60,60e52e7cfedb1dae636df45f,,,,,,,,,524,53,20.5,1,0,0,response1disk,,6,-4,5.5,1,0,0,rectangle,-4,5.5,1,0,0,-4,5.5,1,0,0,1,128,288,4,1,,,,,,,,
,,,,,,,,,,,,,FF,,,,,,,,0.5335,,,,,,,,,,,,,,,,,,,,,,60e435add197abec7bebe435,60e565ada326ed4b6c94435e,2021-07-07_10h57.04.938,Simcolourproject_2stim_asymm_v5,2020.2.10,Win32,60,60e52e7cfedb1dae636df45f,,,,,,,,,461,34,-36.5,1,0,0,response3disk,,4,9,-2.5,1,0,0,rectangle,9,-2.5,1,0,0,9,-2.5,1,0,0,1,129,289,44,1,,,,,,,,
,,,,,,,,,,,,,FF,,,,,,,,0.6331,,,,,,,,,,,,,,,,,,,,,,60e435add197abec7bebe435,60e565ada326ed4b6c94435e,2021-07-07_10h57.04.938,Simcolourproject_2stim_asymm_v5,2020.2.10,Win32,60,60e52e7cfedb1dae636df45f,,,,,,,,,2862,-39,-20.5,1,0,0,response5disk,,2,-19,-1.5,1,0,0,rectangle,-19,-1.5,1,0,0,-19,-1.5,1,0,0,1,130,290,142,1,,,,,,,,
,,,,,,,,,,,,,FF,,,,,,,,0.5152,,,,,,,,,,,,,,,,,,,,,,60e435add197abec7bebe435,60e565ada326ed4b6c94435e,2021-07-07_10h57.04.938,Simcolourproject_2stim_asymm_v5,2020.2.10,Win32,60,60e52e7cfedb1dae636df45f,,,,,,,,,3446,47,-21.5,1,0,0,response3disk,,5,3,0.5,1,0,0,rectangle,3,0.5,1,0,0,3,0.5,1,0,0,1,131,291,77,1,,,,,,,,
,,,,,,,,,,,,,FF,,,,,,,,1.5176,,,,,,,,,,,,,,,,,,,,,,60e435add197abec7bebe435,60e565ada326ed4b6c94435e,2021-07-07_10h57.04.938,Simcolourproject_2stim_asymm_v5,2020.2.10,Win32,60,60e52e7cfedb1dae636df45f,,,,,,,,,170,-28,43.5,1,0,0,response7disk,,0,-6,0.5,1,0,0,rectangle,-6,0.5,1,0,0,-6,0.5,1,0,0,1,132,292,34,1,,,,,,,,
,,,,,,,,,,,,,FF,,,,,,,,0.8846,,,,,,,,,,,,,,,,,,,,,,60e435add197abec7bebe435,60e565ada326ed4b6c94435e,2021-07-07_10h57.04.938,Simcolourproject_2stim_asymm_v5,2020.2.10,Win32,60,60e52e7cfedb1dae636df45f,,,,,,,,,3866,42,57.5,1,0,0,response1disk,,7,13,6.5,1,0,0,rectangle,13,6.5,1,0,0,13,6.5,1,0,0,1,133,293,58,1,,,,,,,,
