key_resp.keys,key_resp.rt,key_resp_14.keys,key_resp_14.rt,key_resp_15.keys,key_resp_15.rt,key_resp_17.keys,key_resp_17.rt,key_resp_9.keys,key_resp_9.rt,key_resp_10.keys,key_resp_10.rt,practice_comparison,Ecc,mouse_5.x,mouse_5.y,mouse_5.leftButton,mouse_5.midButton,mouse_5.rightButton,mouse_5.clicked_name,pracsimilarity,response_time,mouse_10.x,mouse_10.y,mouse_10.leftButton,mouse_10.midButton,mouse_10.rightButton,mouse_10.clicked_name,mouse_7.x,mouse_7.y,mouse_7.leftButton,mouse_7.midButton,mouse_7.rightButton,mouse_6.x,mouse_6.y,mouse_6.leftButton,mouse_6.midButton,mouse_6.rightButton,duringprac.thisRepN,duringprac.thisTrialN,duringprac.thisN,duringprac.thisIndex,duringprac.ran,participant,session,date,expName,psychopyVersion,OS,frameRate,study_id,mouse_7.clicked_name,catchpracsimilarity,catch_response_time,catchnumberprac,catchtrialorderprac,mouse_6.clicked_name,key_resp_22.keys,key_resp_22.rt,realcomparison,mouse.x,mouse.y,mouse.leftButton,mouse.midButton,mouse.rightButton,mouse.clicked_name,Colour2,similarity,mouse_2.x,mouse_2.y,mouse_2.leftButton,mouse_2.midButton,mouse_2.rightButton,mouse_2.clicked_name,mouse_3.x,mouse_3.y,mouse_3.leftButton,mouse_3.midButton,mouse_3.rightButton,mouse_11.x,mouse_11.y,mouse_11.leftButton,mouse_11.midButton,mouse_11.rightButton,trials_2.thisRepN,trials_2.thisTrialN,trials_2.thisN,trials_2.thisIndex,trials_2.ran,Colour1,mouse_3.clicked_name,catchornah,catchsimilarity,catchnumber,catchtrialorder,catchRT,mouse_11.clicked_name
space,1.70099,space,35.687725,space,24.573165,space,20.832915,space,11.605465,space,4.01937,42,PF,98.40001291,-67.20000744,1,0,0,response3disk_5,5,7.55596,-7.199988663,3.19999361,1,0,0,rectangle_8,-7.199988663,3.19999361,1,0,0,-7.199988663,3.19999361,1,0,0,0,0,0,2,1,60e4c5c835abaf843a61d5c9,60e564e770530c586f59d3cd,2021-07-07_10h30.59.528,Simcolourproject_2stim_asymm_v5,2020.2.10,Win32,60,60e52e7cfedb1dae636df45f,,,,,,,,,,,,,,,,,,,,,,,,,,,,,,,,,,,,,,,,,,,,,,
,,,,,,,,,,,,76,PF,30.4000119,-87.20000774,1,0,0,response3disk_5,4,1.872805,-11.99998873,4.799993634,1,0,0,rectangle_8,-97.59999001,40.79999417,1,0,0,-12.79998875,-6.400006533,1,0,0,0,1,1,6,1,60e4c5c835abaf843a61d5c9,60e564e770530c586f59d3cd,2021-07-07_10h30.59.528,Simcolourproject_2stim_asymm_v5,2020.2.10,Win32,60,60e52e7cfedb1dae636df45f,response7disk_7,1,2.221405,1,"[2,5]",rectangle_4,,,,,,,,,,,,,,,,,,,,,,,,,,,,,,,,,,,,,,,,
,,,,,,,,,,,,51,PF,-39.19998914,-83.20000768,1,0,0,response5disk_5,3,4.61633,-6.399939823,1.599993587,1,0,0,rectangle_8,-6.399939823,1.599993587,1,0,0,-6.399939823,1.599993587,1,0,0,0,2,2,1,1,60e4c5c835abaf843a61d5c9,60e564e770530c586f59d3cd,2021-07-07_10h30.59.528,Simcolourproject_2stim_asymm_v5,2020.2.10,Win32,60,60e52e7cfedb1dae636df45f,,,,,,,,,,,,,,,,,,,,,,,,,,,,,,,,,,,,,,,,,,,,,,
,,,,,,,,,,,,122,FF,-45.59998924,-88.00000775,1,0,0,response5disk_5,3,2.628445,-6.399939823,-3.200006485,1,0,0,rectangle_8,-6.399939823,-3.200006485,1,0,0,-6.399939823,-3.200006485,1,0,0,0,3,3,3,1,60e4c5c835abaf843a61d5c9,60e564e770530c586f59d3cd,2021-07-07_10h30.59.528,Simcolourproject_2stim_asymm_v5,2020.2.10,Win32,60,60e52e7cfedb1dae636df45f,,,,,,,,,,,,,,,,,,,,,,,,,,,,,,,,,,,,,,,,,,,,,,
,,,,,,,,,,,,131,FF,-38.3999403,99.99999505,1,0,0,response7disk_5,0,2.27055,4.800011516,-0.800006449,1,0,0,rectangle_8,-89.59998989,34.39999408,1,0,0,3.200011492,-1.600006461,1,0,0,0,4,4,5,1,60e4c5c835abaf843a61d5c9,60e564e770530c586f59d3cd,2021-07-07_10h30.59.528,Simcolourproject_2stim_asymm_v5,2020.2.10,Win32,60,60e52e7cfedb1dae636df45f,response7disk_7,1,1.94678,1,"[2,5]",rectangle_4,,,,,,,,,,,,,,,,,,,,,,,,,,,,,,,,,,,,,,,,
,,,,,,,,,,,,113,PF,-59.19998944,26.39999396,1,0,0,response7disk_5,1,1.655105,-4.799988627,-4.000006497,1,0,0,rectangle_8,-4.799988627,-4.000006497,1,0,0,-4.799988627,-4.000006497,1,0,0,0,5,5,4,1,60e4c5c835abaf843a61d5c9,60e564e770530c586f59d3cd,2021-07-07_10h30.59.528,Simcolourproject_2stim_asymm_v5,2020.2.10,Win32,60,60e52e7cfedb1dae636df45f,,,,,,,,,,,,,,,,,,,,,,,,,,,,,,,,,,,,,,,,,,,,,,
,,,,,,,,,,,,37,FF,-34.39994024,-93.60005666,1,0,0,response5disk_5,3,1.21497,-7.199988663,1.599993587,1,0,0,rectangle_8,-7.199988663,1.599993587,1,0,0,-7.199988663,1.599993587,1,0,0,0,6,6,0,1,60e4c5c835abaf843a61d5c9,60e564e770530c586f59d3cd,2021-07-07_10h30.59.528,Simcolourproject_2stim_asymm_v5,2020.2.10,Win32,60,60e52e7cfedb1dae636df45f,,,,,,,,,,,,,,,,,,,,,,,,,,,,,,,,,,,,,,,,,,,,,,
,,,,,,,,,,,,,FF,,,,,,,,5.914315,,,,,,,,,,,,,,,,,,,,,,60e4c5c835abaf843a61d5c9,60e564e770530c586f59d3cd,2021-07-07_10h30.59.528,Simcolourproject_2stim_asymm_v5,2020.2.10,Win32,60,60e52e7cfedb1dae636df45f,,,,,,,space,5.350495,624,46.40001214,-83.20000768,1,0,0,response3disk,,4,-3.999988616,-3.200006485,1,0,0,rectangle,-3.999988616,-3.200006485,1,0,0,-3.999988616,-3.200006485,1,0,0,0,0,0,85,1,,,,,,,,
,,,,,,,,,,,,,FF,,,,,,,,1.18131,,,,,,,,,,,,,,,,,,,,,,60e4c5c835abaf843a61d5c9,60e564e770530c586f59d3cd,2021-07-07_10h30.59.528,Simcolourproject_2stim_asymm_v5,2020.2.10,Win32,60,60e52e7cfedb1dae636df45f,,,,,,,,,1786,-36.7999891,-92.00000781,1,0,0,response5disk,,3,-4.799988627,-3.200006485,1,0,0,rectangle,-4.799988627,-3.200006485,1,0,0,-4.799988627,-3.200006485,1,0,0,0,1,1,67,1,,,,,,,,
,,,,,,,,,,,,,FF,,,,,,,,3.22752,,,,,,,,,,,,,,,,,,,,,,60e4c5c835abaf843a61d5c9,60e564e770530c586f59d3cd,2021-07-07_10h30.59.528,Simcolourproject_2stim_asymm_v5,2020.2.10,Win32,60,60e52e7cfedb1dae636df45f,,,,,,,,,4214,-47.19998926,-92.80000782,1,0,0,response5disk,,3,-11.99998873,1.599993587,1,0,0,rectangle,-11.99998873,1.599993587,1,0,0,-11.99998873,1.599993587,1,0,0,0,2,2,23,1,,,,,,,,
,,,,,,,,,,,,,FF,,,,,,,,3.15205,,,,,,,,,,,,,,,,,,,,,,60e4c5c835abaf843a61d5c9,60e564e770530c586f59d3cd,2021-07-07_10h30.59.528,Simcolourproject_2stim_asymm_v5,2020.2.10,Win32,60,60e52e7cfedb1dae636df45f,,,,,,,,,3095,47.20001215,-85.60005654,1,0,0,response3disk,,4,-7.999988675,-6.400006533,1,0,0,rectangle,43.20001209,-97.60005672,1,0,0,-4.799988627,-0.800006449,1,0,0,0,3,3,46,1,,response3disk_3,TRUE,4,4,"[61,71,162,81,74,138,69,267,168,181,101,48,100,4,108,227,190,38,223,39]",3.17898,rectangle
,,,,,,,,,,,,,FF,,,,,,,,1.605335,,,,,,,,,,,,,,,,,,,,,,60e4c5c835abaf843a61d5c9,60e564e770530c586f59d3cd,2021-07-07_10h30.59.528,Simcolourproject_2stim_asymm_v5,2020.2.10,Win32,60,60e52e7cfedb1dae636df45f,,,,,,,,,3904,-91.99998993,-56.80000728,1,0,0,response5disk,,2,-12.79998875,-6.4373E-06,1,0,0,rectangle,-12.79998875,-6.4373E-06,1,0,0,-12.79998875,-6.4373E-06,1,0,0,0,4,4,71,1,,,,,,,,
,,,,,,,,,,,,,FF,,,,,,,,1.288635,,,,,,,,,,,,,,,,,,,,,,60e4c5c835abaf843a61d5c9,60e564e770530c586f59d3cd,2021-07-07_10h30.59.528,Simcolourproject_2stim_asymm_v5,2020.2.10,Win32,60,60e52e7cfedb1dae636df45f,,,,,,,,,4029,-91.99998993,-57.6000073,1,0,0,response5disk,,2,-15.99998879,-11.2000066,1,0,0,rectangle,-15.99998879,-11.2000066,1,0,0,-15.99998879,-11.2000066,1,0,0,0,5,5,15,1,,,,,,,,
,,,,,,,,,,,,,FF,,,,,,,,2.45439,,,,,,,,,,,,,,,,,,,,,,60e4c5c835abaf843a61d5c9,60e564e770530c586f59d3cd,2021-07-07_10h30.59.528,Simcolourproject_2stim_asymm_v5,2020.2.10,Win32,60,60e52e7cfedb1dae636df45f,,,,,,,,,147,37.60006083,-88.00000775,1,0,0,response3disk,,4,-5.599988639,-4.000006497,1,0,0,rectangle,-5.599988639,-4.000006497,1,0,0,-5.599988639,-4.000006497,1,0,0,0,6,6,124,1,,,,,,,,
,,,,,,,,,,,,,FF,,,,,,,,2.637455,,,,,,,,,,,,,,,,,,,,,,60e4c5c835abaf843a61d5c9,60e564e770530c586f59d3cd,2021-07-07_10h30.59.528,Simcolourproject_2stim_asymm_v5,2020.2.10,Win32,60,60e52e7cfedb1dae636df45f,,,,,,,,,468,-43.99998921,-84.00000769,1,0,0,response5disk,,3,-26.39994012,-5.600006521,1,0,0,rectangle,-26.39994012,-5.600006521,1,0,0,-26.39994012,-5.600006521,1,0,0,0,7,7,41,1,,,,,,,,
,,,,,,,,,,,,,FF,,,,,,,,1.68854,,,,,,,,,,,,,,,,,,,,,,60e4c5c835abaf843a61d5c9,60e564e770530c586f59d3cd,2021-07-07_10h30.59.528,Simcolourproject_2stim_asymm_v5,2020.2.10,Win32,60,60e52e7cfedb1dae636df45f,,,,,,,,,4003,-60.79998946,-93.60005666,1,0,0,response5disk,,3,-13.59998876,-1.600006461,1,0,0,rectangle,-13.59998876,-1.600006461,1,0,0,-13.59998876,-1.600006461,1,0,0,0,8,8,149,1,,,,,,,,
,,,,,,,,,,,,,FF,,,,,,,,6.022415,,,,,,,,,,,,,,,,,,,,,,60e4c5c835abaf843a61d5c9,60e564e770530c586f59d3cd,2021-07-07_10h30.59.528,Simcolourproject_2stim_asymm_v5,2020.2.10,Win32,60,60e52e7cfedb1dae636df45f,,,,,,,,,1885,-37.59998912,-91.2000078,1,0,0,response5disk,,3,-19.19998884,-6.4373E-06,1,0,0,rectangle,-19.19998884,-6.4373E-06,1,0,0,-19.19998884,-6.4373E-06,1,0,0,0,9,9,110,1,,,,,,,,
,,,,,,,,,,,,,FF,,,,,,,,2.145995,,,,,,,,,,,,,,,,,,,,,,60e4c5c835abaf843a61d5c9,60e564e770530c586f59d3cd,2021-07-07_10h30.59.528,Simcolourproject_2stim_asymm_v5,2020.2.10,Win32,60,60e52e7cfedb1dae636df45f,,,,,,,,,450,-53.59998935,-96.00000787,1,0,0,response5disk,,3,-15.19998878,-0.800006449,1,0,0,rectangle,-15.19998878,-0.800006449,1,0,0,-15.19998878,-0.800006449,1,0,0,0,10,10,66,1,,,,,,,,
,,,,,,,,,,,,,FF,,,,,,,,10.02349,,,,,,,,,,,,,,,,,,,,,,60e4c5c835abaf843a61d5c9,60e564e770530c586f59d3cd,2021-07-07_10h30.59.528,Simcolourproject_2stim_asymm_v5,2020.2.10,Win32,60,60e52e7cfedb1dae636df45f,,,,,,,,,2391,66.40001243,-112.8000081,1,0,0,response3disk,,4,-15.99998879,8.799993694,1,0,0,rectangle,-15.99998879,8.799993694,1,0,0,-15.99998879,8.799993694,1,0,0,0,11,11,12,1,,,,,,,,
,,,,,,,,,,,,,FF,,,,,,,,1.74651,,,,,,,,,,,,,,,,,,,,,,60e4c5c835abaf843a61d5c9,60e564e770530c586f59d3cd,2021-07-07_10h30.59.528,Simcolourproject_2stim_asymm_v5,2020.2.10,Win32,60,60e52e7cfedb1dae636df45f,,,,,,,,,158,-81.59998977,-50.40000719,1,0,0,response5disk,,2,12.80001163,10.39999372,1,0,0,rectangle,12.80001163,10.39999372,1,0,0,12.80001163,10.39999372,1,0,0,0,12,12,53,1,,,,,,,,
,,,,,,,,,,,,,FF,,,,,,,,2.0714,,,,,,,,,,,,,,,,,,,,,,60e4c5c835abaf843a61d5c9,60e564e770530c586f59d3cd,2021-07-07_10h30.59.528,Simcolourproject_2stim_asymm_v5,2020.2.10,Win32,60,60e52e7cfedb1dae636df45f,,,,,,,,,2131,37.60006083,-91.2000078,1,0,0,response3disk,,4,-0.799988568,-9.60000658,1,0,0,rectangle,-0.799988568,-9.60000658,1,0,0,-0.799988568,-9.60000658,1,0,0,0,13,13,127,1,,,,,,,,
,,,,,,,,,,,,,FF,,,,,,,,1.90458,,,,,,,,,,,,,,,,,,,,,,60e4c5c835abaf843a61d5c9,60e564e770530c586f59d3cd,2021-07-07_10h30.59.528,Simcolourproject_2stim_asymm_v5,2020.2.10,Win32,60,60e52e7cfedb1dae636df45f,,,,,,,,,2916,-42.39994036,-94.40000784,1,0,0,response5disk,,3,2.40001148,-0.800006449,1,0,0,rectangle,2.40001148,-0.800006449,1,0,0,2.40001148,-0.800006449,1,0,0,0,14,14,87,1,,,,,,,,
,,,,,,,,,,,,,FF,,,,,,,,2.55373,,,,,,,,,,,,,,,,,,,,,,60e4c5c835abaf843a61d5c9,60e564e770530c586f59d3cd,2021-07-07_10h30.59.528,Simcolourproject_2stim_asymm_v5,2020.2.10,Win32,60,60e52e7cfedb1dae636df45f,,,,,,,,,3137,126.4000133,-57.6000073,1,0,0,response3disk,,5,-10.39993988,5.599993646,1,0,0,rectangle,-10.39993988,5.599993646,1,0,0,-10.39993988,5.599993646,1,0,0,0,15,15,8,1,,,,,,,,
,,,,,,,,,,,,,FF,,,,,,,,4.283335,,,,,,,,,,,,,,,,,,,,,,60e4c5c835abaf843a61d5c9,60e564e770530c586f59d3cd,2021-07-07_10h30.59.528,Simcolourproject_2stim_asymm_v5,2020.2.10,Win32,60,60e52e7cfedb1dae636df45f,,,,,,,,,1116,-91.19998991,-32.00000691,1,0,0,response5disk,,2,8.000011563,9.599993706,1,0,0,rectangle,8.000011563,9.599993706,1,0,0,8.000011563,9.599993706,1,0,0,0,16,16,145,1,,,,,,,,
,,,,,,,,,,,,,FF,,,,,,,,1.704835,,,,,,,,,,,,,,,,,,,,,,60e4c5c835abaf843a61d5c9,60e564e770530c586f59d3cd,2021-07-07_10h30.59.528,Simcolourproject_2stim_asymm_v5,2020.2.10,Win32,60,60e52e7cfedb1dae636df45f,,,,,,,,,2475,40.00001204,-81.60005648,1,0,0,response3disk,,4,-19.99998885,12.79999375,1,0,0,rectangle,-19.99998885,12.79999375,1,0,0,-19.99998885,12.79999375,1,0,0,0,17,17,37,1,,,,,,,,
,,,,,,,,,,,,,FF,,,,,,,,2.545405,,,,,,,,,,,,,,,,,,,,,,60e4c5c835abaf843a61d5c9,60e564e770530c586f59d3cd,2021-07-07_10h30.59.528,Simcolourproject_2stim_asymm_v5,2020.2.10,Win32,60,60e52e7cfedb1dae636df45f,,,,,,,,,1016,105.600013,23.99999392,1,0,0,response1disk,,6,-21.59998888,-2.400006473,1,0,0,rectangle,-21.59998888,-2.400006473,1,0,0,-21.59998888,-2.400006473,1,0,0,0,18,18,96,1,,,,,,,,
,,,,,,,,,,,,,FF,,,,,,,,1.88854,,,,,,,,,,,,,,,,,,,,,,60e4c5c835abaf843a61d5c9,60e564e770530c586f59d3cd,2021-07-07_10h30.59.528,Simcolourproject_2stim_asymm_v5,2020.2.10,Win32,60,60e52e7cfedb1dae636df45f,,,,,,,,,3157,-75.99998969,37.59999412,1,0,0,response7disk,,1,2.40001148,8.799993694,1,0,0,rectangle,2.40001148,8.799993694,1,0,0,2.40001148,8.799993694,1,0,0,0,19,19,117,1,,,,,,,,
,,,,,,,,,,,,,FF,,,,,,,,6.48865,,,,,,,,,,,,,,,,,,,,,,60e4c5c835abaf843a61d5c9,60e564e770530c586f59d3cd,2021-07-07_10h30.59.528,Simcolourproject_2stim_asymm_v5,2020.2.10,Win32,60,60e52e7cfedb1dae636df45f,,,,,,,,,136,99.20001292,-55.20000726,1,0,0,response3disk,,5,-11.99998873,-4.800006509,1,0,0,rectangle,-11.99998873,-4.800006509,1,0,0,-11.99998873,-4.800006509,1,0,0,0,20,20,99,1,,,,,,,,
,,,,,,,,,,,,,FF,,,,,,,,1.1401,,,,,,,,,,,,,,,,,,,,,,60e4c5c835abaf843a61d5c9,60e564e770530c586f59d3cd,2021-07-07_10h30.59.528,Simcolourproject_2stim_asymm_v5,2020.2.10,Win32,60,60e52e7cfedb1dae636df45f,,,,,,,,,0,-41.59998918,75.19997027,1,0,0,response7disk,,0,-2.399939764,-4.000006497,1,0,0,rectangle,-2.399939764,-4.000006497,1,0,0,-2.399939764,-4.000006497,1,0,0,0,21,21,7,1,,,,,,,,
,,,,,,,,,,,,,FF,,,,,,,,5.348755,,,,,,,,,,,,,,,,,,,,,,60e4c5c835abaf843a61d5c9,60e564e770530c586f59d3cd,2021-07-07_10h30.59.528,Simcolourproject_2stim_asymm_v5,2020.2.10,Win32,60,60e52e7cfedb1dae636df45f,,,,,,,,,1512,62.40001237,83.99999481,1,0,0,response1disk,,7,-7.999988675,-3.200006485,1,0,0,rectangle,-7.999988675,-3.200006485,1,0,0,-7.999988675,-3.200006485,1,0,0,0,22,22,6,1,,,,,,,,
,,,,,,,,,,,,,FF,,,,,,,,4.19277,,,,,,,,,,,,,,,,,,,,,,60e4c5c835abaf843a61d5c9,60e564e770530c586f59d3cd,2021-07-07_10h30.59.528,Simcolourproject_2stim_asymm_v5,2020.2.10,Win32,60,60e52e7cfedb1dae636df45f,,,,,,,,,1775,-42.39994036,-96.00000787,1,0,0,response5disk,,3,-9.599988699,3.19999361,1,0,0,rectangle,-9.599988699,3.19999361,1,0,0,-9.599988699,3.19999361,1,0,0,0,23,23,152,1,,,,,,,,
,,,,,,,,,,,,,FF,,,,,,,,0.947795,,,,,,,,,,,,,,,,,,,,,,60e4c5c835abaf843a61d5c9,60e564e770530c586f59d3cd,2021-07-07_10h30.59.528,Simcolourproject_2stim_asymm_v5,2020.2.10,Win32,60,60e52e7cfedb1dae636df45f,,,,,,,,,2715,-42.39994036,-87.20000774,1,0,0,response5disk,,3,-3.199988604,4.799993634,1,0,0,rectangle,-3.199988604,4.799993634,1,0,0,-3.199988604,4.799993634,1,0,0,0,24,24,113,1,,,,,,,,
,,,,,,,,,,,,,FF,,,,,,,,2.054485,,,,,,,,,,,,,,,,,,,,,,60e4c5c835abaf843a61d5c9,60e564e770530c586f59d3cd,2021-07-07_10h30.59.528,Simcolourproject_2stim_asymm_v5,2020.2.10,Win32,60,60e52e7cfedb1dae636df45f,,,,,,,,,1180,-71.19998962,-42.40000707,1,0,0,response5disk,,2,-14.39993994,4.799993634,1,0,0,rectangle,-14.39993994,4.799993634,1,0,0,-14.39993994,4.799993634,1,0,0,0,25,25,150,1,,,,,,,,
,,,,,,,,,,,,,FF,,,,,,,,2.5039,,,,,,,,,,,,,,,,,,,,,,60e4c5c835abaf843a61d5c9,60e564e770530c586f59d3cd,2021-07-07_10h30.59.528,Simcolourproject_2stim_asymm_v5,2020.2.10,Win32,60,60e52e7cfedb1dae636df45f,,,,,,,,,3254,-78.3999409,-51.2000072,1,0,0,response5disk,,2,4.800011516,-4.800006509,1,0,0,rectangle,4.800011516,-4.800006509,1,0,0,4.800011516,-4.800006509,1,0,0,0,26,26,18,1,,,,,,,,
,,,,,,,,,,,,,FF,,,,,,,,0.94829,,,,,,,,,,,,,,,,,,,,,,60e4c5c835abaf843a61d5c9,60e564e770530c586f59d3cd,2021-07-07_10h30.59.528,Simcolourproject_2stim_asymm_v5,2020.2.10,Win32,60,60e52e7cfedb1dae636df45f,,,,,,,,,4206,-91.19998991,36.79999411,1,0,0,response7disk,,1,1.14441E-05,-6.4373E-06,1,0,0,rectangle,1.14441E-05,-6.4373E-06,1,0,0,1.14441E-05,-6.4373E-06,1,0,0,0,27,27,13,1,,,,,,,,
,,,,,,,,,,,,,FF,,,,,,,,1.33011,,,,,,,,,,,,,,,,,,,,,,60e4c5c835abaf843a61d5c9,60e564e770530c586f59d3cd,2021-07-07_10h30.59.528,Simcolourproject_2stim_asymm_v5,2020.2.10,Win32,60,60e52e7cfedb1dae636df45f,,,,,,,,,4016,52.80001223,-76.80000758,1,0,0,response3disk,,4,-11.99998873,7.999993682,1,0,0,rectangle,-11.99998873,7.999993682,1,0,0,-11.99998873,7.999993682,1,0,0,0,28,28,43,1,,,,,,,,
,,,,,,,,,,,,,FF,,,,,,,,4.66688,,,,,,,,,,,,,,,,,,,,,,60e4c5c835abaf843a61d5c9,60e564e770530c586f59d3cd,2021-07-07_10h30.59.528,Simcolourproject_2stim_asymm_v5,2020.2.10,Win32,60,60e52e7cfedb1dae636df45f,,,,,,,,,750,-25.59998894,-88.00000775,1,0,0,response5disk,,3,-0.799988568,-5.600006521,1,0,0,rectangle,-0.799988568,-5.600006521,1,0,0,-0.799988568,-5.600006521,1,0,0,0,29,29,42,1,,,,,,,,
,,,,,,,,,,,,,FF,,,,,,,,2.353805,,,,,,,,,,,,,,,,,,,,,,60e4c5c835abaf843a61d5c9,60e564e770530c586f59d3cd,2021-07-07_10h30.59.528,Simcolourproject_2stim_asymm_v5,2020.2.10,Win32,60,60e52e7cfedb1dae636df45f,,,,,,,,,2580,78.40001261,-36.00000697,1,0,0,response3disk,,5,8.800011575,10.39999372,1,0,0,rectangle,8.800011575,10.39999372,1,0,0,8.800011575,10.39999372,1,0,0,0,30,30,102,1,,,,,,,,
,,,,,,,,,,,,,FF,,,,,,,,1.090085,,,,,,,,,,,,,,,,,,,,,,60e4c5c835abaf843a61d5c9,60e564e770530c586f59d3cd,2021-07-07_10h30.59.528,Simcolourproject_2stim_asymm_v5,2020.2.10,Win32,60,60e52e7cfedb1dae636df45f,,,,,,,,,891,-86.39994102,32.79999405,1,0,0,response7disk,,1,12.00001162,-8.800006568,1,0,0,rectangle,12.00001162,-8.800006568,1,0,0,12.00001162,-8.800006568,1,0,0,0,31,31,5,1,,,,,,,,
,,,,,,,,,,,,,FF,,,,,,,,2.436985,,,,,,,,,,,,,,,,,,,,,,60e4c5c835abaf843a61d5c9,60e564e770530c586f59d3cd,2021-07-07_10h30.59.528,Simcolourproject_2stim_asymm_v5,2020.2.10,Win32,60,60e52e7cfedb1dae636df45f,,,,,,,,,39,104.800013,26.39999396,1,0,0,response1disk,,6,-35.99998909,-16.80000669,1,0,0,rectangle,-35.99998909,-16.80000669,1,0,0,-35.99998909,-16.80000669,1,0,0,0,32,32,4,1,,,,,,,,
,,,,,,,,,,,,,FF,,,,,,,,2.578635,,,,,,,,,,,,,,,,,,,,,,60e4c5c835abaf843a61d5c9,60e564e770530c586f59d3cd,2021-07-07_10h30.59.528,Simcolourproject_2stim_asymm_v5,2020.2.10,Win32,60,60e52e7cfedb1dae636df45f,,,,,,,,,4323,36.80001199,-95.20000786,1,0,0,response3disk,,4,-4.799988627,-5.600006521,1,0,0,rectangle,-4.799988627,-5.600006521,1,0,0,-4.799988627,-5.600006521,1,0,0,0,33,33,119,1,,,,,,,,
,,,,,,,,,,,,,FF,,,,,,,,1.357495,,,,,,,,,,,,,,,,,,,,,,60e4c5c835abaf843a61d5c9,60e564e770530c586f59d3cd,2021-07-07_10h30.59.528,Simcolourproject_2stim_asymm_v5,2020.2.10,Win32,60,60e52e7cfedb1dae636df45f,,,,,,,,,1100,-49.5999893,-96.80000788,1,0,0,response5disk,,3,1.600060296,-4.000006497,1,0,0,rectangle,1.600060296,-4.000006497,1,0,0,1.600060296,-4.000006497,1,0,0,0,34,34,64,1,,,,,,,,
,,,,,,,,,,,,,FF,,,,,,,,1.42447,,,,,,,,,,,,,,,,,,,,,,60e4c5c835abaf843a61d5c9,60e564e770530c586f59d3cd,2021-07-07_10h30.59.528,Simcolourproject_2stim_asymm_v5,2020.2.10,Win32,60,60e52e7cfedb1dae636df45f,,,,,,,,,4224,-95.19998997,-60.80000734,1,0,0,response5disk,,2,-6.399939823,-4.800006509,1,0,0,rectangle,-6.399939823,-4.800006509,1,0,0,-6.399939823,-4.800006509,1,0,0,0,35,35,3,1,,,,,,,,
,,,,,,,,,,,,,FF,,,,,,,,1.297605,,,,,,,,,,,,,,,,,,,,,,60e4c5c835abaf843a61d5c9,60e564e770530c586f59d3cd,2021-07-07_10h30.59.528,Simcolourproject_2stim_asymm_v5,2020.2.10,Win32,60,60e52e7cfedb1dae636df45f,,,,,,,,,1720,52.00001222,-94.40000784,1,0,0,response3disk,,4,-11.19998872,9.599993706,1,0,0,rectangle,-11.19998872,9.599993706,1,0,0,-11.19998872,9.599993706,1,0,0,0,36,36,26,1,,,,,,,,
,,,,,,,,,,,,,FF,,,,,,,,7.154445,,,,,,,,,,,,,,,,,,,,,,60e4c5c835abaf843a61d5c9,60e564e770530c586f59d3cd,2021-07-07_10h30.59.528,Simcolourproject_2stim_asymm_v5,2020.2.10,Win32,60,60e52e7cfedb1dae636df45f,,,,,,,,,2799,-21.59998888,-78.40000761,1,0,0,response5disk,,3,8.800011575,-6.4373E-06,1,0,0,rectangle,-45.59998924,-109.6000569,1,0,0,1.600060296,3.999993622,1,0,0,0,37,37,40,1,,response5disk_3,TRUE,3,3,"[61,71,162,81,74,138,69,267,168,181,101,48,100,4,108,227,190,38,223,39]",14.26597,rectangle
,,,,,,,,,,,,,FF,,,,,,,,2.829425,,,,,,,,,,,,,,,,,,,,,,60e4c5c835abaf843a61d5c9,60e564e770530c586f59d3cd,2021-07-07_10h30.59.528,Simcolourproject_2stim_asymm_v5,2020.2.10,Win32,60,60e52e7cfedb1dae636df45f,,,,,,,,,225,71.20001251,-103.200008,1,0,0,response3disk,,4,6.400011539,0.799993575,1,0,0,rectangle,-104.7999901,-22.40000677,1,0,0,21.60006059,-8.000006557,1,0,0,0,38,38,60,1,,response5disk_3,TRUE,2,2,"[61,71,162,81,74,138,69,267,168,181,101,48,100,4,108,227,190,38,223,39]",2.047735,rectangle
,,,,,,,,,,,,,FF,,,,,,,,0.92522,,,,,,,,,,,,,,,,,,,,,,60e4c5c835abaf843a61d5c9,60e564e770530c586f59d3cd,2021-07-07_10h30.59.528,Simcolourproject_2stim_asymm_v5,2020.2.10,Win32,60,60e52e7cfedb1dae636df45f,,,,,,,,,260,-74.39994084,37.59999412,1,0,0,response7disk,,1,2.40001148,-7.200006545,1,0,0,rectangle,2.40001148,-7.200006545,1,0,0,2.40001148,-7.200006545,1,0,0,0,39,39,19,1,,,,,,,,
,,,,,,,,,,,,,FF,,,,,,,,1.46585,,,,,,,,,,,,,,,,,,,,,,60e4c5c835abaf843a61d5c9,60e564e770530c586f59d3cd,2021-07-07_10h30.59.528,Simcolourproject_2stim_asymm_v5,2020.2.10,Win32,60,60e52e7cfedb1dae636df45f,,,,,,,,,3149,-88.79998988,34.39999408,1,0,0,response7disk,,1,-13.59998876,-6.400006533,1,0,0,rectangle,-13.59998876,-6.400006533,1,0,0,-13.59998876,-6.400006533,1,0,0,0,40,40,146,1,,,,,,,,
,,,,,,,,,,,,,FF,,,,,,,,1.35629,,,,,,,,,,,,,,,,,,,,,,60e4c5c835abaf843a61d5c9,60e564e770530c586f59d3cd,2021-07-07_10h30.59.528,Simcolourproject_2stim_asymm_v5,2020.2.10,Win32,60,60e52e7cfedb1dae636df45f,,,,,,,,,2917,-28.79998899,-87.20000774,1,0,0,response5disk,,3,-7.999988675,1.599993587,1,0,0,rectangle,-7.999988675,1.599993587,1,0,0,-7.999988675,1.599993587,1,0,0,0,41,41,74,1,,,,,,,,
,,,,,,,,,,,,,FF,,,,,,,,1.630225,,,,,,,,,,,,,,,,,,,,,,60e4c5c835abaf843a61d5c9,60e564e770530c586f59d3cd,2021-07-07_10h30.59.528,Simcolourproject_2stim_asymm_v5,2020.2.10,Win32,60,60e52e7cfedb1dae636df45f,,,,,,,,,2537,21.60006059,-103.200008,1,0,0,response3disk,,4,1.14441E-05,-4.000006497,1,0,0,rectangle,1.14441E-05,-4.000006497,1,0,0,1.14441E-05,-4.000006497,1,0,0,0,42,42,81,1,,,,,,,,
,,,,,,,,,,,,,FF,,,,,,,,1.52188,,,,,,,,,,,,,,,,,,,,,,60e4c5c835abaf843a61d5c9,60e564e770530c586f59d3cd,2021-07-07_10h30.59.528,Simcolourproject_2stim_asymm_v5,2020.2.10,Win32,60,60e52e7cfedb1dae636df45f,,,,,,,,,442,-71.19998962,-28.00000685,1,0,0,response5disk,,2,-3.999988616,-6.400006533,1,0,0,rectangle,-3.999988616,-6.400006533,1,0,0,-3.999988616,-6.400006533,1,0,0,0,43,43,20,1,,,,,,,,
,,,,,,,,,,,,,FF,,,,,,,,1.76349,,,,,,,,,,,,,,,,,,,,,,60e4c5c835abaf843a61d5c9,60e564e770530c586f59d3cd,2021-07-07_10h30.59.528,Simcolourproject_2stim_asymm_v5,2020.2.10,Win32,60,60e52e7cfedb1dae636df45f,,,,,,,,,691,102.400013,-40.80000705,1,0,0,response3disk,,5,6.400011539,3.19999361,1,0,0,rectangle,6.400011539,3.19999361,1,0,0,6.400011539,3.19999361,1,0,0,0,44,44,158,1,,,,,,,,
,,,,,,,,,,,,,FF,,,,,,,,2.38868,,,,,,,,,,,,,,,,,,,,,,60e4c5c835abaf843a61d5c9,60e564e770530c586f59d3cd,2021-07-07_10h30.59.528,Simcolourproject_2stim_asymm_v5,2020.2.10,Win32,60,60e52e7cfedb1dae636df45f,,,,,,,,,4130,-71.19998962,-40.00000703,1,0,0,response5disk,,2,16.80001169,-9.60000658,1,0,0,rectangle,16.80001169,-9.60000658,1,0,0,16.80001169,-9.60000658,1,0,0,0,45,45,122,1,,,,,,,,
,,,,,,,,,,,,,FF,,,,,,,,1.51398,,,,,,,,,,,,,,,,,,,,,,60e4c5c835abaf843a61d5c9,60e564e770530c586f59d3cd,2021-07-07_10h30.59.528,Simcolourproject_2stim_asymm_v5,2020.2.10,Win32,60,60e52e7cfedb1dae636df45f,,,,,,,,,3865,-51.99998933,-113.600057,1,0,0,response5disk,,3,-5.599988639,10.39999372,1,0,0,rectangle,-5.599988639,10.39999372,1,0,0,-5.599988639,10.39999372,1,0,0,0,46,46,39,1,,,,,,,,
,,,,,,,,,,,,,FF,,,,,,,,1.022945,,,,,,,,,,,,,,,,,,,,,,60e4c5c835abaf843a61d5c9,60e564e770530c586f59d3cd,2021-07-07_10h30.59.528,Simcolourproject_2stim_asymm_v5,2020.2.10,Win32,60,60e52e7cfedb1dae636df45f,,,,,,,,,2933,-63.1999895,-40.00000703,1,0,0,response5disk,,2,-5.599988639,-6.400006533,1,0,0,rectangle,98.40001291,-60.80000734,1,0,0,-1.59998858,2.399993598,1,0,0,0,47,47,136,1,,response3disk_3,TRUE,5,5,"[61,71,162,81,74,138,69,267,168,181,101,48,100,4,108,227,190,38,223,39]",1.938125,rectangle
,,,,,,,,,,,,,FF,,,,,,,,2.945075,,,,,,,,,,,,,,,,,,,,,,60e4c5c835abaf843a61d5c9,60e564e770530c586f59d3cd,2021-07-07_10h30.59.528,Simcolourproject_2stim_asymm_v5,2020.2.10,Win32,60,60e52e7cfedb1dae636df45f,,,,,,,,,4157,45.60006095,-101.6000568,1,0,0,response3disk,,4,-1.59998858,0.799993575,1,0,0,rectangle,-1.59998858,0.799993575,1,0,0,-1.59998858,0.799993575,1,0,0,0,48,48,61,1,,,,,,,,
,,,,,,,,,,,,,FF,,,,,,,,1.588745,,,,,,,,,,,,,,,,,,,,,,60e4c5c835abaf843a61d5c9,60e564e770530c586f59d3cd,2021-07-07_10h30.59.528,Simcolourproject_2stim_asymm_v5,2020.2.10,Win32,60,60e52e7cfedb1dae636df45f,,,,,,,,,3840,38.40001202,-68.80000746,1,0,0,response3disk,,4,-6.399939823,11.19999373,1,0,0,rectangle,-6.399939823,11.19999373,1,0,0,-6.399939823,11.19999373,1,0,0,0,49,49,135,1,,,,,,,,
,,,,,,,,,,,,,FF,,,,,,,,5.0995,,,,,,,,,,,,,,,,,,,,,,60e4c5c835abaf843a61d5c9,60e564e770530c586f59d3cd,2021-07-07_10h30.59.528,Simcolourproject_2stim_asymm_v5,2020.2.10,Win32,60,60e52e7cfedb1dae636df45f,,,,,,,,,2116,-31.99998903,-96.80000788,1,0,0,response5disk,,3,12.00001162,-0.800006449,1,0,0,rectangle,12.00001162,-0.800006449,1,0,0,12.00001162,-0.800006449,1,0,0,0,50,50,25,1,,,,,,,,
,,,,,,,,,,,,,FF,,,,,,,,2.212795,,,,,,,,,,,,,,,,,,,,,,60e4c5c835abaf843a61d5c9,60e564e770530c586f59d3cd,2021-07-07_10h30.59.528,Simcolourproject_2stim_asymm_v5,2020.2.10,Win32,60,60e52e7cfedb1dae636df45f,,,,,,,,,1127,-85.59998983,-43.20000708,1,0,0,response5disk,,2,19.20001173,-6.4373E-06,1,0,0,rectangle,19.20001173,-6.4373E-06,1,0,0,19.20001173,-6.4373E-06,1,0,0,0,51,51,107,1,,,,,,,,
,,,,,,,,,,,,,FF,,,,,,,,2.512745,,,,,,,,,,,,,,,,,,,,,,60e4c5c835abaf843a61d5c9,60e564e770530c586f59d3cd,2021-07-07_10h30.59.528,Simcolourproject_2stim_asymm_v5,2020.2.10,Win32,60,60e52e7cfedb1dae636df45f,,,,,,,,,2491,-29.599989,-101.6000568,1,0,0,response5disk,,3,4.000011504,-9.60000658,1,0,0,rectangle,4.000011504,-9.60000658,1,0,0,4.000011504,-9.60000658,1,0,0,0,52,52,47,1,,,,,,,,
,,,,,,,,,,,,,FF,,,,,,,,1.21414,,,,,,,,,,,,,,,,,,,,,,60e4c5c835abaf843a61d5c9,60e564e770530c586f59d3cd,2021-07-07_10h30.59.528,Simcolourproject_2stim_asymm_v5,2020.2.10,Win32,60,60e52e7cfedb1dae636df45f,,,,,,,,,2691,68.80001247,-44.00000709,1,0,0,response3disk,,5,13.60006047,-4.800006509,1,0,0,rectangle,13.60006047,-4.800006509,1,0,0,13.60006047,-4.800006509,1,0,0,0,53,53,32,1,,,,,,,,
,,,,,,,,,,,,,FF,,,,,,,,3.352485,,,,,,,,,,,,,,,,,,,,,,60e4c5c835abaf843a61d5c9,60e564e770530c586f59d3cd,2021-07-07_10h30.59.528,Simcolourproject_2stim_asymm_v5,2020.2.10,Win32,60,60e52e7cfedb1dae636df45f,,,,,,,,,3542,-91.99998993,-61.60000736,1,0,0,response5disk,,2,-0.799988568,-7.200006545,1,0,0,rectangle,-0.799988568,-7.200006545,1,0,0,-0.799988568,-7.200006545,1,0,0,0,54,54,137,1,,,,,,,,
,,,,,,,,,,,,,FF,,,,,,,,3.87603,,,,,,,,,,,,,,,,,,,,,,60e4c5c835abaf843a61d5c9,60e564e770530c586f59d3cd,2021-07-07_10h30.59.528,Simcolourproject_2stim_asymm_v5,2020.2.10,Win32,60,60e52e7cfedb1dae636df45f,,,,,,,,,2972,46.40001214,-102.400008,1,0,0,response3disk,,4,-4.799988627,-6.4373E-06,1,0,0,rectangle,-4.799988627,-6.4373E-06,1,0,0,-4.799988627,-6.4373E-06,1,0,0,0,55,55,86,1,,,,,,,,
,,,,,,,,,,,,,FF,,,,,,,,2.87797,,,,,,,,,,,,,,,,,,,,,,60e4c5c835abaf843a61d5c9,60e564e770530c586f59d3cd,2021-07-07_10h30.59.528,Simcolourproject_2stim_asymm_v5,2020.2.10,Win32,60,60e52e7cfedb1dae636df45f,,,,,,,,,3034,-36.7999891,-78.40000761,1,0,0,response5disk,,3,-6.399939823,6.399993658,1,0,0,rectangle,-6.399939823,6.399993658,1,0,0,-6.399939823,6.399993658,1,0,0,0,56,56,78,1,,,,,,,,
,,,,,,,,,,,,,FF,,,,,,,,4.15965,,,,,,,,,,,,,,,,,,,,,,60e4c5c835abaf843a61d5c9,60e564e770530c586f59d3cd,2021-07-07_10h30.59.528,Simcolourproject_2stim_asymm_v5,2020.2.10,Win32,60,60e52e7cfedb1dae636df45f,,,,,,,,,684,46.40001214,-110.4000081,1,0,0,response3disk,,4,-34.39994024,10.39999372,1,0,0,rectangle,-34.39994024,10.39999372,1,0,0,-34.39994024,10.39999372,1,0,0,0,57,57,55,1,,,,,,,,
,,,,,,,,,,,,,FF,,,,,,,,0.948435,,,,,,,,,,,,,,,,,,,,,,60e4c5c835abaf843a61d5c9,60e564e770530c586f59d3cd,2021-07-07_10h30.59.528,Simcolourproject_2stim_asymm_v5,2020.2.10,Win32,60,60e52e7cfedb1dae636df45f,,,,,,,,,1328,-59.19998944,-121.6000571,1,0,0,response5disk,,3,2.40001148,3.999993622,1,0,0,rectangle,2.40001148,3.999993622,1,0,0,2.40001148,3.999993622,1,0,0,0,58,58,17,1,,,,,,,,
,,,,,,,,,,,,,FF,,,,,,,,5.46464,,,,,,,,,,,,,,,,,,,,,,60e4c5c835abaf843a61d5c9,60e564e770530c586f59d3cd,2021-07-07_10h30.59.528,Simcolourproject_2stim_asymm_v5,2020.2.10,Win32,60,60e52e7cfedb1dae636df45f,,,,,,,,,1804,80.00001264,35.19996967,1,0,0,response1disk,,6,-4.799988627,-6.400006533,1,0,0,rectangle,-4.799988627,-6.400006533,1,0,0,-4.799988627,-6.400006533,1,0,0,0,59,59,125,1,,,,,,,,
,,,,,,,,,,,,,FF,,,,,,,,1.09805,,,,,,,,,,,,,,,,,,,,,,60e4c5c835abaf843a61d5c9,60e564e770530c586f59d3cd,2021-07-07_10h30.59.528,Simcolourproject_2stim_asymm_v5,2020.2.10,Win32,60,60e52e7cfedb1dae636df45f,,,,,,,,,4201,-88.79998988,44.79999423,1,0,0,response7disk,,1,-9.599988699,-5.600006521,1,0,0,rectangle,127.2000133,40.79999417,1,0,0,-16.79998881,-4.800006509,1,0,0,0,60,60,115,1,,response1disk_3,TRUE,6,6,"[61,71,162,81,74,138,69,267,168,181,101,48,100,4,108,227,190,38,223,39]",2.712445,rectangle
,,,,,,,,,,,,,FF,,,,,,,,1.3396,,,,,,,,,,,,,,,,,,,,,,60e4c5c835abaf843a61d5c9,60e564e770530c586f59d3cd,2021-07-07_10h30.59.528,Simcolourproject_2stim_asymm_v5,2020.2.10,Win32,60,60e52e7cfedb1dae636df45f,,,,,,,,,1814,-82.39994096,39.99999416,1,0,0,response7disk,,1,4.000011504,-2.400006473,1,0,0,rectangle,4.000011504,-2.400006473,1,0,0,4.000011504,-2.400006473,1,0,0,0,61,61,105,1,,,,,,,,
,,,,,,,,,,,,,FF,,,,,,,,3.53509,,,,,,,,,,,,,,,,,,,,,,60e4c5c835abaf843a61d5c9,60e564e770530c586f59d3cd,2021-07-07_10h30.59.528,Simcolourproject_2stim_asymm_v5,2020.2.10,Win32,60,60e52e7cfedb1dae636df45f,,,,,,,,,2138,-53.59998935,-117.600057,1,0,0,response5disk,,3,-6.399939823,7.19999367,1,0,0,rectangle,-6.399939823,7.19999367,1,0,0,-6.399939823,7.19999367,1,0,0,0,62,62,131,1,,,,,,,,
,,,,,,,,,,,,,FF,,,,,,,,1.539095,,,,,,,,,,,,,,,,,,,,,,60e4c5c835abaf843a61d5c9,60e564e770530c586f59d3cd,2021-07-07_10h30.59.528,Simcolourproject_2stim_asymm_v5,2020.2.10,Win32,60,60e52e7cfedb1dae636df45f,,,,,,,,,3370,44.0000121,-74.40000755,1,0,0,response3disk,,4,-19.19998884,9.599993706,1,0,0,rectangle,-19.19998884,9.599993706,1,0,0,-19.19998884,9.599993706,1,0,0,0,63,63,10,1,,,,,,,,
,,,,,,,,,,,,,FF,,,,,,,,1.39733,,,,,,,,,,,,,,,,,,,,,,60e4c5c835abaf843a61d5c9,60e564e770530c586f59d3cd,2021-07-07_10h30.59.528,Simcolourproject_2stim_asymm_v5,2020.2.10,Win32,60,60e52e7cfedb1dae636df45f,,,,,,,,,2268,-69.59998959,-45.60000712,1,0,0,response5disk,,2,9.600060415,11.19999373,1,0,0,rectangle,9.600060415,11.19999373,1,0,0,9.600060415,11.19999373,1,0,0,0,64,64,123,1,,,,,,,,
,,,,,,,,,,,,,FF,,,,,,,,2.21267,,,,,,,,,,,,,,,,,,,,,,60e4c5c835abaf843a61d5c9,60e564e770530c586f59d3cd,2021-07-07_10h30.59.528,Simcolourproject_2stim_asymm_v5,2020.2.10,Win32,60,60e52e7cfedb1dae636df45f,,,,,,,,,669,-38.3999403,-90.40000778,1,0,0,response5disk,,3,7.200011551,-4.000006497,1,0,0,rectangle,7.200011551,-4.000006497,1,0,0,7.200011551,-4.000006497,1,0,0,0,65,65,63,1,,,,,,,,
,,,,,,,,,,,,,FF,,,,,,,,1.37296,,,,,,,,,,,,,,,,,,,,,,60e4c5c835abaf843a61d5c9,60e564e770530c586f59d3cd,2021-07-07_10h30.59.528,Simcolourproject_2stim_asymm_v5,2020.2.10,Win32,60,60e52e7cfedb1dae636df45f,,,,,,,,,1534,-75.19998968,-52.80000722,1,0,0,response5disk,,2,-2.399939764,1.599993587,1,0,0,rectangle,-2.399939764,1.599993587,1,0,0,-2.399939764,1.599993587,1,0,0,0,66,66,82,1,,,,,,,,
,,,,,,,,,,,,,FF,,,,,,,,1.621705,,,,,,,,,,,,,,,,,,,,,,60e4c5c835abaf843a61d5c9,60e564e770530c586f59d3cd,2021-07-07_10h30.59.528,Simcolourproject_2stim_asymm_v5,2020.2.10,Win32,60,60e52e7cfedb1dae636df45f,,,,,,,,,18,72.80001253,-52.00000721,1,0,0,response3disk,,5,-6.399939823,7.19999367,1,0,0,rectangle,-6.399939823,7.19999367,1,0,0,-6.399939823,7.19999367,1,0,0,0,67,67,44,1,,,,,,,,
,,,,,,,,,,,,,FF,,,,,,,,2.02133,,,,,,,,,,,,,,,,,,,,,,60e4c5c835abaf843a61d5c9,60e564e770530c586f59d3cd,2021-07-07_10h30.59.528,Simcolourproject_2stim_asymm_v5,2020.2.10,Win32,60,60e52e7cfedb1dae636df45f,,,,,,,,,3423,60.00001234,-42.40000707,1,0,0,response3disk,,5,-10.39993988,2.399993598,1,0,0,rectangle,-62.39994066,-27.20000684,1,0,0,8.000011563,-0.800006449,1,0,0,0,68,68,79,1,,response5disk_3,TRUE,2,2,"[61,71,162,81,74,138,69,267,168,181,101,48,100,4,108,227,190,38,223,39]",1.888155,rectangle
,,,,,,,,,,,,,FF,,,,,,,,1.804805,,,,,,,,,,,,,,,,,,,,,,60e4c5c835abaf843a61d5c9,60e564e770530c586f59d3cd,2021-07-07_10h30.59.528,Simcolourproject_2stim_asymm_v5,2020.2.10,Win32,60,60e52e7cfedb1dae636df45f,,,,,,,,,1897,-95.19998997,-42.40000707,1,0,0,response5disk,,2,12.00001162,1.599993587,1,0,0,rectangle,12.00001162,1.599993587,1,0,0,12.00001162,1.599993587,1,0,0,0,69,69,27,1,,,,,,,,
,,,,,,,,,,,,,FF,,,,,,,,1.099095,,,,,,,,,,,,,,,,,,,,,,60e4c5c835abaf843a61d5c9,60e564e770530c586f59d3cd,2021-07-07_10h30.59.528,Simcolourproject_2stim_asymm_v5,2020.2.10,Win32,60,60e52e7cfedb1dae636df45f,,,,,,,,,2500,52.80001223,-107.200008,1,0,0,response3disk,,4,-6.399939823,-13.60000664,1,0,0,rectangle,-75.99998969,-41.60000706,1,0,0,-7.199988663,3.999993622,1,0,0,0,70,70,114,1,,response5disk_3,TRUE,2,2,"[61,71,162,81,74,138,69,267,168,181,101,48,100,4,108,227,190,38,223,39]",1.67115,rectangle
,,,,,,,,,,,,,FF,,,,,,,,5.32443,,,,,,,,,,,,,,,,,,,,,,60e4c5c835abaf843a61d5c9,60e564e770530c586f59d3cd,2021-07-07_10h30.59.528,Simcolourproject_2stim_asymm_v5,2020.2.10,Win32,60,60e52e7cfedb1dae636df45f,,,,,,,,,661,102.400013,-55.20000726,1,0,0,response3disk,,5,-18.39994,-6.4373E-06,1,0,0,rectangle,-18.39994,-6.4373E-06,1,0,0,-18.39994,-6.4373E-06,1,0,0,0,71,71,50,1,,,,,,,,
,,,,,,,,,,,,,FF,,,,,,,,1.155655,,,,,,,,,,,,,,,,,,,,,,60e4c5c835abaf843a61d5c9,60e564e770530c586f59d3cd,2021-07-07_10h30.59.528,Simcolourproject_2stim_asymm_v5,2020.2.10,Win32,60,60e52e7cfedb1dae636df45f,,,,,,,,,477,-84.79998982,-51.2000072,1,0,0,response5disk,,2,5.600060356,-4.000006497,1,0,0,rectangle,5.600060356,-4.000006497,1,0,0,5.600060356,-4.000006497,1,0,0,0,72,72,133,1,,,,,,,,
,,,,,,,,,,,,,FF,,,,,,,,1.93027,,,,,,,,,,,,,,,,,,,,,,60e4c5c835abaf843a61d5c9,60e564e770530c586f59d3cd,2021-07-07_10h30.59.528,Simcolourproject_2stim_asymm_v5,2020.2.10,Win32,60,60e52e7cfedb1dae636df45f,,,,,,,,,4324,50.4000122,-100.0000079,1,0,0,response3disk,,4,-0.799988568,3.19999361,1,0,0,rectangle,-94.39994113,-64.00000739,1,0,0,-6.399939823,0.799993575,1,0,0,0,73,73,93,1,,response5disk_3,TRUE,2,2,"[61,71,162,81,74,138,69,267,168,181,101,48,100,4,108,227,190,38,223,39]",1.71356,rectangle
,,,,,,,,,,,,,FF,,,,,,,,2.262835,,,,,,,,,,,,,,,,,,,,,,60e4c5c835abaf843a61d5c9,60e564e770530c586f59d3cd,2021-07-07_10h30.59.528,Simcolourproject_2stim_asymm_v5,2020.2.10,Win32,60,60e52e7cfedb1dae636df45f,,,,,,,,,3643,-39.99998915,-104.000008,1,0,0,response5disk,,3,-2.399939764,-9.60000658,1,0,0,rectangle,-2.399939764,-9.60000658,1,0,0,-2.399939764,-9.60000658,1,0,0,0,74,74,159,1,,,,,,,,
,,,,,,,,,,,,,FF,,,,,,,,1.9738,,,,,,,,,,,,,,,,,,,,,,60e4c5c835abaf843a61d5c9,60e564e770530c586f59d3cd,2021-07-07_10h30.59.528,Simcolourproject_2stim_asymm_v5,2020.2.10,Win32,60,60e52e7cfedb1dae636df45f,,,,,,,,,2305,43.20001209,-103.200008,1,0,0,response3disk,,4,-7.199988663,2.399993598,1,0,0,rectangle,-7.199988663,2.399993598,1,0,0,-7.199988663,2.399993598,1,0,0,0,75,75,83,1,,,,,,,,
,,,,,,,,,,,,,FF,,,,,,,,1.722355,,,,,,,,,,,,,,,,,,,,,,60e4c5c835abaf843a61d5c9,60e564e770530c586f59d3cd,2021-07-07_10h30.59.528,Simcolourproject_2stim_asymm_v5,2020.2.10,Win32,60,60e52e7cfedb1dae636df45f,,,,,,,,,743,31.20001191,-102.400008,1,0,0,response3disk,,4,-15.19998878,-3.200006485,1,0,0,rectangle,-15.19998878,-3.200006485,1,0,0,-15.19998878,-3.200006485,1,0,0,0,76,76,16,1,,,,,,,,
,,,,,,,,,,,,,FF,,,,,,,,15.38011,,,,,,,,,,,,,,,,,,,,,,60e4c5c835abaf843a61d5c9,60e564e770530c586f59d3cd,2021-07-07_10h30.59.528,Simcolourproject_2stim_asymm_v5,2020.2.10,Win32,60,60e52e7cfedb1dae636df45f,,,,,,,,,3417,105.600013,39.19996973,1,0,0,response1disk,,6,-7.199988663,1.599993587,1,0,0,rectangle,-7.199988663,1.599993587,1,0,0,-7.199988663,1.599993587,1,0,0,0,77,77,144,1,,,,,,,,
,,,,,,,,,,,,,FF,,,,,,,,1.197675,,,,,,,,,,,,,,,,,,,,,,60e4c5c835abaf843a61d5c9,60e564e770530c586f59d3cd,2021-07-07_10h30.59.528,Simcolourproject_2stim_asymm_v5,2020.2.10,Win32,60,60e52e7cfedb1dae636df45f,,,,,,,,,464,-46.39994042,-108.000008,1,0,0,response5disk,,3,2.40001148,-3.200006485,1,0,0,rectangle,2.40001148,-3.200006485,1,0,0,2.40001148,-3.200006485,1,0,0,0,78,78,35,1,,,,,,,,
,,,,,,,,,,,,,FF,,,,,,,,2.079355,,,,,,,,,,,,,,,,,,,,,,60e4c5c835abaf843a61d5c9,60e564e770530c586f59d3cd,2021-07-07_10h30.59.528,Simcolourproject_2stim_asymm_v5,2020.2.10,Win32,60,60e52e7cfedb1dae636df45f,,,,,,,,,2928,58.40001231,-101.6000568,1,0,0,response3disk,,4,-3.199988604,-3.200006485,1,0,0,rectangle,-3.199988604,-3.200006485,1,0,0,-3.199988604,-3.200006485,1,0,0,0,79,79,94,1,,,,,,,,
,,,,,,,,,,,,,FF,,,,,,,,1.438865,,,,,,,,,,,,,,,,,,,,,,60e4c5c835abaf843a61d5c9,60e564e770530c586f59d3cd,2021-07-07_10h30.59.528,Simcolourproject_2stim_asymm_v5,2020.2.10,Win32,60,60e52e7cfedb1dae636df45f,,,,,,,,,668,112.0000131,-44.00000709,1,0,0,response3disk,,5,-5.599988639,1.599993587,1,0,0,rectangle,44.0000121,63.99999452,1,0,0,7.200011551,-9.60000658,1,0,0,0,80,80,68,1,,response1disk_3,TRUE,7,7,"[61,71,162,81,74,138,69,267,168,181,101,48,100,4,108,227,190,38,223,39]",1.53849,rectangle
,,,,,,,,,,,,,FF,,,,,,,,1.99615,,,,,,,,,,,,,,,,,,,,,,60e4c5c835abaf843a61d5c9,60e564e770530c586f59d3cd,2021-07-07_10h30.59.528,Simcolourproject_2stim_asymm_v5,2020.2.10,Win32,60,60e52e7cfedb1dae636df45f,,,,,,,,,4055,-53.59998935,-49.60000718,1,0,0,response5disk,,2,-10.39993988,-15.20000666,1,0,0,rectangle,-10.39993988,-15.20000666,1,0,0,-10.39993988,-15.20000666,1,0,0,0,81,81,65,1,,,,,,,,
,,,,,,,,,,,,,FF,,,,,,,,1.28091,,,,,,,,,,,,,,,,,,,,,,60e4c5c835abaf843a61d5c9,60e564e770530c586f59d3cd,2021-07-07_10h30.59.528,Simcolourproject_2stim_asymm_v5,2020.2.10,Win32,60,60e52e7cfedb1dae636df45f,,,,,,,,,609,-57.59998941,-89.6000566,1,0,0,response5disk,,3,-11.99998873,-13.60000664,1,0,0,rectangle,-11.99998873,-13.60000664,1,0,0,-11.99998873,-13.60000664,1,0,0,0,82,82,155,1,,,,,,,,
,,,,,,,,,,,,,FF,,,,,,,,1.60587,,,,,,,,,,,,,,,,,,,,,,60e4c5c835abaf843a61d5c9,60e564e770530c586f59d3cd,2021-07-07_10h30.59.528,Simcolourproject_2stim_asymm_v5,2020.2.10,Win32,60,60e52e7cfedb1dae636df45f,,,,,,,,,1177,39.20001203,-107.200008,1,0,0,response3disk,,4,-1.59998858,-5.600006521,1,0,0,rectangle,-1.59998858,-5.600006521,1,0,0,-1.59998858,-5.600006521,1,0,0,0,83,83,34,1,,,,,,,,
,,,,,,,,,,,,,FF,,,,,,,,1.51401,,,,,,,,,,,,,,,,,,,,,,60e4c5c835abaf843a61d5c9,60e564e770530c586f59d3cd,2021-07-07_10h30.59.528,Simcolourproject_2stim_asymm_v5,2020.2.10,Win32,60,60e52e7cfedb1dae636df45f,,,,,,,,,2207,48.00001216,-94.40000784,1,0,0,response3disk,,4,-3.199988604,5.599993646,1,0,0,rectangle,-3.199988604,5.599993646,1,0,0,-3.199988604,5.599993646,1,0,0,0,84,84,108,1,,,,,,,,
,,,,,,,,,,,,,FF,,,,,,,,1.456725,,,,,,,,,,,,,,,,,,,,,,60e4c5c835abaf843a61d5c9,60e564e770530c586f59d3cd,2021-07-07_10h30.59.528,Simcolourproject_2stim_asymm_v5,2020.2.10,Win32,60,60e52e7cfedb1dae636df45f,,,,,,,,,2433,-41.59998918,-80.80000764,1,0,0,response5disk,,3,-2.399939764,0.799993575,1,0,0,rectangle,-2.399939764,0.799993575,1,0,0,-2.399939764,0.799993575,1,0,0,0,85,85,56,1,,,,,,,,
,,,,,,,,,,,,,FF,,,,,,,,2.571395,,,,,,,,,,,,,,,,,,,,,,60e4c5c835abaf843a61d5c9,60e564e770530c586f59d3cd,2021-07-07_10h30.59.528,Simcolourproject_2stim_asymm_v5,2020.2.10,Win32,60,60e52e7cfedb1dae636df45f,,,,,,,,,4019,-31.19998902,-93.60005666,1,0,0,response5disk,,3,1.600060296,-1.600006461,1,0,0,rectangle,1.600060296,-1.600006461,1,0,0,1.600060296,-1.600006461,1,0,0,0,86,86,103,1,,,,,,,,
,,,,,,,,,,,,,FF,,,,,,,,2.171275,,,,,,,,,,,,,,,,,,,,,,60e4c5c835abaf843a61d5c9,60e564e770530c586f59d3cd,2021-07-07_10h30.59.528,Simcolourproject_2stim_asymm_v5,2020.2.10,Win32,60,60e52e7cfedb1dae636df45f,,,,,,,,,608,-83.99998981,-48.00000715,1,0,0,response5disk,,2,1.14441E-05,-4.000006497,1,0,0,rectangle,1.14441E-05,-4.000006497,1,0,0,1.14441E-05,-4.000006497,1,0,0,0,87,87,57,1,,,,,,,,
,,,,,,,,,,,,,FF,,,,,,,,2.1124,,,,,,,,,,,,,,,,,,,,,,60e4c5c835abaf843a61d5c9,60e564e770530c586f59d3cd,2021-07-07_10h30.59.528,Simcolourproject_2stim_asymm_v5,2020.2.10,Win32,60,60e52e7cfedb1dae636df45f,,,,,,,,,87,46.40001214,-92.80000782,1,0,0,response3disk,,4,0.800011456,-0.800006449,1,0,0,rectangle,0.800011456,-0.800006449,1,0,0,0.800011456,-0.800006449,1,0,0,0,88,88,143,1,,,,,,,,
,,,,,,,,,,,,,FF,,,,,,,,1.083005,,,,,,,,,,,,,,,,,,,,,,60e4c5c835abaf843a61d5c9,60e564e770530c586f59d3cd,2021-07-07_10h30.59.528,Simcolourproject_2stim_asymm_v5,2020.2.10,Win32,60,60e52e7cfedb1dae636df45f,,,,,,,,,437,-71.19998962,-35.20000696,1,0,0,response5disk,,2,-9.599988699,0.799993575,1,0,0,rectangle,-9.599988699,0.799993575,1,0,0,-9.599988699,0.799993575,1,0,0,0,89,89,104,1,,,,,,,,
,,,,,,,,,,,,,FF,,,,,,,,3.57749,,,,,,,,,,,,,,,,,,,,,,60e4c5c835abaf843a61d5c9,60e564e770530c586f59d3cd,2021-07-07_10h30.59.528,Simcolourproject_2stim_asymm_v5,2020.2.10,Win32,60,60e52e7cfedb1dae636df45f,,,,,,,,,216,106.400013,36.79999411,1,0,0,response1disk,,6,-7.999988675,-1.600006461,1,0,0,rectangle,-7.999988675,-1.600006461,1,0,0,-7.999988675,-1.600006461,1,0,0,0,90,90,138,1,,,,,,,,
,,,,,,,,,,,,,FF,,,,,,,,5.681315,,,,,,,,,,,,,,,,,,,,,,60e4c5c835abaf843a61d5c9,60e564e770530c586f59d3cd,2021-07-07_10h30.59.528,Simcolourproject_2stim_asymm_v5,2020.2.10,Win32,60,60e52e7cfedb1dae636df45f,,,,,,,,,1635,48.00001216,-115.2000082,1,0,0,response3disk,,4,-4.799988627,-0.800006449,1,0,0,rectangle,-4.799988627,-0.800006449,1,0,0,-4.799988627,-0.800006449,1,0,0,0,91,91,73,1,,,,,,,,
,,,,,,,,,,,,,FF,,,,,,,,2.936475,,,,,,,,,,,,,,,,,,,,,,60e4c5c835abaf843a61d5c9,60e564e770530c586f59d3cd,2021-07-07_10h30.59.528,Simcolourproject_2stim_asymm_v5,2020.2.10,Win32,60,60e52e7cfedb1dae636df45f,,,,,,,,,1554,87.20001274,-48.80000716,1,0,0,response3disk,,5,-5.599988639,-4.000006497,1,0,0,rectangle,-5.599988639,-4.000006497,1,0,0,-5.599988639,-4.000006497,1,0,0,0,92,92,54,1,,,,,,,,
,,,,,,,,,,,,,FF,,,,,,,,1.896845,,,,,,,,,,,,,,,,,,,,,,60e4c5c835abaf843a61d5c9,60e564e770530c586f59d3cd,2021-07-07_10h30.59.528,Simcolourproject_2stim_asymm_v5,2020.2.10,Win32,60,60e52e7cfedb1dae636df45f,,,,,,,,,919,-34.39994024,-112.0000081,1,0,0,response5disk,,3,-7.199988663,-14.40000665,1,0,0,rectangle,-7.199988663,-14.40000665,1,0,0,-7.199988663,-14.40000665,1,0,0,0,93,93,76,1,,,,,,,,
,,,,,,,,,,,,,FF,,,,,,,,4.54992,,,,,,,,,,,,,,,,,,,,,,60e4c5c835abaf843a61d5c9,60e564e770530c586f59d3cd,2021-07-07_10h30.59.528,Simcolourproject_2stim_asymm_v5,2020.2.10,Win32,60,60e52e7cfedb1dae636df45f,,,,,,,,,219,56.80001229,-115.2000082,1,0,0,response3disk,,4,4.800011516,8.799993694,1,0,0,rectangle,4.800011516,8.799993694,1,0,0,4.800011516,8.799993694,1,0,0,0,94,94,38,1,,,,,,,,
,,,,,,,,,,,,,FF,,,,,,,,1.788175,,,,,,,,,,,,,,,,,,,,,,60e4c5c835abaf843a61d5c9,60e564e770530c586f59d3cd,2021-07-07_10h30.59.528,Simcolourproject_2stim_asymm_v5,2020.2.10,Win32,60,60e52e7cfedb1dae636df45f,,,,,,,,,3223,110.4000131,36.79999411,1,0,0,response1disk,,6,14.40001166,-7.200006545,1,0,0,rectangle,14.40001166,-7.200006545,1,0,0,14.40001166,-7.200006545,1,0,0,0,95,95,11,1,,,,,,,,
,,,,,,,,,,,,,FF,,,,,,,,5.190715,,,,,,,,,,,,,,,,,,,,,,60e4c5c835abaf843a61d5c9,60e564e770530c586f59d3cd,2021-07-07_10h30.59.528,Simcolourproject_2stim_asymm_v5,2020.2.10,Win32,60,60e52e7cfedb1dae636df45f,,,,,,,,,2476,50.4000122,-99.20000792,1,0,0,response3disk,,4,22.40001178,-6.4373E-06,1,0,0,rectangle,22.40001178,-6.4373E-06,1,0,0,22.40001178,-6.4373E-06,1,0,0,0,96,96,51,1,,,,,,,,
,,,,,,,,,,,,,FF,,,,,,,,2.39568,,,,,,,,,,,,,,,,,,,,,,60e4c5c835abaf843a61d5c9,60e564e770530c586f59d3cd,2021-07-07_10h30.59.528,Simcolourproject_2stim_asymm_v5,2020.2.10,Win32,60,60e52e7cfedb1dae636df45f,,,,,,,,,453,-67.99998957,-47.20000714,1,0,0,response5disk,,2,12.00001162,-0.800006449,1,0,0,rectangle,12.00001162,-0.800006449,1,0,0,12.00001162,-0.800006449,1,0,0,0,97,97,90,1,,,,,,,,
,,,,,,,,,,,,,FF,,,,,,,,1.180925,,,,,,,,,,,,,,,,,,,,,,60e4c5c835abaf843a61d5c9,60e564e770530c586f59d3cd,2021-07-07_10h30.59.528,Simcolourproject_2stim_asymm_v5,2020.2.10,Win32,60,60e52e7cfedb1dae636df45f,,,,,,,,,4078,-64.79998952,-32.80000693,1,0,0,response5disk,,2,-7.199988663,-8.800006568,1,0,0,rectangle,-7.199988663,-8.800006568,1,0,0,-7.199988663,-8.800006568,1,0,0,0,98,98,134,1,,,,,,,,
,,,,,,,,,,,,,FF,,,,,,,,2.14594,,,,,,,,,,,,,,,,,,,,,,60e4c5c835abaf843a61d5c9,60e564e770530c586f59d3cd,2021-07-07_10h30.59.528,Simcolourproject_2stim_asymm_v5,2020.2.10,Win32,60,60e52e7cfedb1dae636df45f,,,,,,,,,2023,42.40001208,-100.0000079,1,0,0,response3disk,,4,1.600060296,4.799993634,1,0,0,rectangle,58.40001231,74.39999467,1,0,0,5.600060356,-6.4373E-06,1,0,0,0,99,99,48,1,,response1disk_3,TRUE,7,7,"[61,71,162,81,74,138,69,267,168,181,101,48,100,4,108,227,190,38,223,39]",2.511245,rectangle
,,,,,,,,,,,,,FF,,,,,,,,1.43881,,,,,,,,,,,,,,,,,,,,,,60e4c5c835abaf843a61d5c9,60e564e770530c586f59d3cd,2021-07-07_10h30.59.528,Simcolourproject_2stim_asymm_v5,2020.2.10,Win32,60,60e52e7cfedb1dae636df45f,,,,,,,,,1303,-81.59998977,55.19996997,1,0,0,response7disk,,1,-8.799988687,-5.600006521,1,0,0,rectangle,-51.99998933,111.9999952,1,0,0,6.400011539,5.599993646,1,0,0,0,100,100,156,1,,response7disk_3,TRUE,0,0,"[61,71,162,81,74,138,69,267,168,181,101,48,100,4,108,227,190,38,223,39]",2.095175,rectangle
,,,,,,,,,,,,,FF,,,,,,,,2.04648,,,,,,,,,,,,,,,,,,,,,,60e4c5c835abaf843a61d5c9,60e564e770530c586f59d3cd,2021-07-07_10h30.59.528,Simcolourproject_2stim_asymm_v5,2020.2.10,Win32,60,60e52e7cfedb1dae636df45f,,,,,,,,,4145,-24.79998893,77.59999472,1,0,0,response7disk,,0,-7.999988675,-7.200006545,1,0,0,rectangle,-7.999988675,-7.200006545,1,0,0,-7.999988675,-7.200006545,1,0,0,0,101,101,2,1,,,,,,,,
,,,,,,,,,,,,,FF,,,,,,,,3.18634,,,,,,,,,,,,,,,,,,,,,,60e4c5c835abaf843a61d5c9,60e564e770530c586f59d3cd,2021-07-07_10h30.59.528,Simcolourproject_2stim_asymm_v5,2020.2.10,Win32,60,60e52e7cfedb1dae636df45f,,,,,,,,,3767,80.80001265,-40.80000705,1,0,0,response3disk,,5,16.80001169,-7.200006545,1,0,0,rectangle,16.80001169,-7.200006545,1,0,0,16.80001169,-7.200006545,1,0,0,0,102,102,29,1,,,,,,,,
,,,,,,,,,,,,,FF,,,,,,,,4.059515,,,,,,,,,,,,,,,,,,,,,,60e4c5c835abaf843a61d5c9,60e564e770530c586f59d3cd,2021-07-07_10h30.59.528,Simcolourproject_2stim_asymm_v5,2020.2.10,Win32,60,60e52e7cfedb1dae636df45f,,,,,,,,,520,-18.39994,-116.0000082,1,0,0,response5disk,,3,5.600060356,4.799993634,1,0,0,rectangle,5.600060356,4.799993634,1,0,0,5.600060356,4.799993634,1,0,0,0,103,103,52,1,,,,,,,,
,,,,,,,,,,,,,FF,,,,,,,,1.830235,,,,,,,,,,,,,,,,,,,,,,60e4c5c835abaf843a61d5c9,60e564e770530c586f59d3cd,2021-07-07_10h30.59.528,Simcolourproject_2stim_asymm_v5,2020.2.10,Win32,60,60e52e7cfedb1dae636df45f,,,,,,,,,3151,-79.19998974,-38.40000701,1,0,0,response5disk,,2,1.14441E-05,6.399993658,1,0,0,rectangle,1.14441E-05,6.399993658,1,0,0,1.14441E-05,6.399993658,1,0,0,0,104,104,116,1,,,,,,,,
,,,,,,,,,,,,,FF,,,,,,,,1.114495,,,,,,,,,,,,,,,,,,,,,,60e4c5c835abaf843a61d5c9,60e564e770530c586f59d3cd,2021-07-07_10h30.59.528,Simcolourproject_2stim_asymm_v5,2020.2.10,Win32,60,60e52e7cfedb1dae636df45f,,,,,,,,,1169,43.20001209,-88.80000776,1,0,0,response3disk,,4,17.60006053,-1.600006461,1,0,0,rectangle,17.60006053,-1.600006461,1,0,0,17.60006053,-1.600006461,1,0,0,0,105,105,88,1,,,,,,,,
,,,,,,,,,,,,,FF,,,,,,,,1.49746,,,,,,,,,,,,,,,,,,,,,,60e4c5c835abaf843a61d5c9,60e564e770530c586f59d3cd,2021-07-07_10h30.59.528,Simcolourproject_2stim_asymm_v5,2020.2.10,Win32,60,60e52e7cfedb1dae636df45f,,,,,,,,,2959,-39.99998915,-81.60005648,1,0,0,response5disk,,3,-19.19998884,-6.400006533,1,0,0,rectangle,-19.19998884,-6.400006533,1,0,0,-19.19998884,-6.400006533,1,0,0,0,106,106,49,1,,,,,,,,
,,,,,,,,,,,,,FF,,,,,,,,1.938735,,,,,,,,,,,,,,,,,,,,,,60e4c5c835abaf843a61d5c9,60e564e770530c586f59d3cd,2021-07-07_10h30.59.528,Simcolourproject_2stim_asymm_v5,2020.2.10,Win32,60,60e52e7cfedb1dae636df45f,,,,,,,,,3333,-35.19998908,-98.4000079,1,0,0,response5disk,,3,4.000011504,-3.200006485,1,0,0,rectangle,84.80001271,35.19996967,1,0,0,9.600060415,3.999993622,1,0,0,0,107,107,77,1,,response1disk_3,TRUE,6,6,"[61,71,162,81,74,138,69,267,168,181,101,48,100,4,108,227,190,38,223,39]",1.987395,rectangle
,,,,,,,,,,,,,FF,,,,,,,,6.13979,,,,,,,,,,,,,,,,,,,,,,60e4c5c835abaf843a61d5c9,60e564e770530c586f59d3cd,2021-07-07_10h30.59.528,Simcolourproject_2stim_asymm_v5,2020.2.10,Win32,60,60e52e7cfedb1dae636df45f,,,,,,,,,2348,36.00001198,-88.00000775,1,0,0,response3disk,,4,2.40001148,2.399993598,1,0,0,rectangle,2.40001148,2.399993598,1,0,0,2.40001148,2.399993598,1,0,0,0,108,108,14,1,,,,,,,,
,,,,,,,,,,,,,FF,,,,,,,,1.1562,,,,,,,,,,,,,,,,,,,,,,60e4c5c835abaf843a61d5c9,60e564e770530c586f59d3cd,2021-07-07_10h30.59.528,Simcolourproject_2stim_asymm_v5,2020.2.10,Win32,60,60e52e7cfedb1dae636df45f,,,,,,,,,1677,-26.39994012,79.19997033,1,0,0,response7disk,,0,-2.399939764,-8.000006557,1,0,0,rectangle,-2.399939764,-8.000006557,1,0,0,-2.399939764,-8.000006557,1,0,0,0,109,109,22,1,,,,,,,,
,,,,,,,,,,,,,FF,,,,,,,,5.23203,,,,,,,,,,,,,,,,,,,,,,60e4c5c835abaf843a61d5c9,60e564e770530c586f59d3cd,2021-07-07_10h30.59.528,Simcolourproject_2stim_asymm_v5,2020.2.10,Win32,60,60e52e7cfedb1dae636df45f,,,,,,,,,1428,81.60001266,-65.60000741,1,0,0,response3disk,,5,8.000011563,1.599993587,1,0,0,rectangle,8.000011563,1.599993587,1,0,0,8.000011563,1.599993587,1,0,0,0,110,110,139,1,,,,,,,,
,,,,,,,,,,,,,FF,,,,,,,,5.38942,,,,,,,,,,,,,,,,,,,,,,60e4c5c835abaf843a61d5c9,60e564e770530c586f59d3cd,2021-07-07_10h30.59.528,Simcolourproject_2stim_asymm_v5,2020.2.10,Win32,60,60e52e7cfedb1dae636df45f,,,,,,,,,1876,50.4000122,-113.600057,1,0,0,response3disk,,4,4.000011504,-4.000006497,1,0,0,rectangle,4.000011504,-4.000006497,1,0,0,4.000011504,-4.000006497,1,0,0,0,111,111,95,1,,,,,,,,
,,,,,,,,,,,,,FF,,,,,,,,2.43737,,,,,,,,,,,,,,,,,,,,,,60e4c5c835abaf843a61d5c9,60e564e770530c586f59d3cd,2021-07-07_10h30.59.528,Simcolourproject_2stim_asymm_v5,2020.2.10,Win32,60,60e52e7cfedb1dae636df45f,,,,,,,,,2158,109.6000131,-67.20000744,1,0,0,response3disk,,5,24.0000118,-1.600006461,1,0,0,rectangle,24.0000118,-1.600006461,1,0,0,24.0000118,-1.600006461,1,0,0,0,112,112,120,1,,,,,,,,
,,,,,,,,,,,,,FF,,,,,,,,1.114615,,,,,,,,,,,,,,,,,,,,,,60e4c5c835abaf843a61d5c9,60e564e770530c586f59d3cd,2021-07-07_10h30.59.528,Simcolourproject_2stim_asymm_v5,2020.2.10,Win32,60,60e52e7cfedb1dae636df45f,,,,,,,,,4268,-94.39994113,48.79999429,1,0,0,response7disk,,1,-12.79998875,-6.400006533,1,0,0,rectangle,-12.79998875,-6.400006533,1,0,0,-12.79998875,-6.400006533,1,0,0,0,113,113,45,1,,,,,,,,
,,,,,,,,,,,,,FF,,,,,,,,1.51301,,,,,,,,,,,,,,,,,,,,,,60e4c5c835abaf843a61d5c9,60e564e770530c586f59d3cd,2021-07-07_10h30.59.528,Simcolourproject_2stim_asymm_v5,2020.2.10,Win32,60,60e52e7cfedb1dae636df45f,,,,,,,,,3420,-84.79998982,-36.80000699,1,0,0,response5disk,,2,1.14441E-05,-6.400006533,1,0,0,rectangle,1.14441E-05,-6.400006533,1,0,0,1.14441E-05,-6.400006533,1,0,0,0,114,114,130,1,,,,,,,,
,,,,,,,,,,,,,FF,,,,,,,,1.039835,,,,,,,,,,,,,,,,,,,,,,60e4c5c835abaf843a61d5c9,60e564e770530c586f59d3cd,2021-07-07_10h30.59.528,Simcolourproject_2stim_asymm_v5,2020.2.10,Win32,60,60e52e7cfedb1dae636df45f,,,,,,,,,277,-73.59998965,39.99999416,1,0,0,response7disk,,1,-3.999988616,-1.600006461,1,0,0,rectangle,-3.999988616,-1.600006461,1,0,0,-3.999988616,-1.600006461,1,0,0,0,115,115,92,1,,,,,,,,
,,,,,,,,,,,,,FF,,,,,,,,1.6226,,,,,,,,,,,,,,,,,,,,,,60e4c5c835abaf843a61d5c9,60e564e770530c586f59d3cd,2021-07-07_10h30.59.528,Simcolourproject_2stim_asymm_v5,2020.2.10,Win32,60,60e52e7cfedb1dae636df45f,,,,,,,,,3699,31.20001191,-89.6000566,1,0,0,response3disk,,4,-4.799988627,15.19999379,1,0,0,rectangle,-4.799988627,15.19999379,1,0,0,-4.799988627,15.19999379,1,0,0,0,116,116,33,1,,,,,,,,
,,,,,,,,,,,,,FF,,,,,,,,3.4186,,,,,,,,,,,,,,,,,,,,,,60e4c5c835abaf843a61d5c9,60e564e770530c586f59d3cd,2021-07-07_10h30.59.528,Simcolourproject_2stim_asymm_v5,2020.2.10,Win32,60,60e52e7cfedb1dae636df45f,,,,,,,,,1494,-35.99998909,-76.80000758,1,0,0,response5disk,,3,-1.59998858,-9.60000658,1,0,0,rectangle,-1.59998858,-9.60000658,1,0,0,-1.59998858,-9.60000658,1,0,0,0,117,117,140,1,,,,,,,,
,,,,,,,,,,,,,FF,,,,,,,,0.85716,,,,,,,,,,,,,,,,,,,,,,60e4c5c835abaf843a61d5c9,60e564e770530c586f59d3cd,2021-07-07_10h30.59.528,Simcolourproject_2stim_asymm_v5,2020.2.10,Win32,60,60e52e7cfedb1dae636df45f,,,,,,,,,2940,-34.39994024,70.39999461,1,0,0,response7disk,,0,-14.39993994,-14.40000665,1,0,0,rectangle,-14.39993994,-14.40000665,1,0,0,-14.39993994,-14.40000665,1,0,0,0,118,118,98,1,,,,,,,,
,,,,,,,,,,,,,FF,,,,,,,,0.940375,,,,,,,,,,,,,,,,,,,,,,60e4c5c835abaf843a61d5c9,60e564e770530c586f59d3cd,2021-07-07_10h30.59.528,Simcolourproject_2stim_asymm_v5,2020.2.10,Win32,60,60e52e7cfedb1dae636df45f,,,,,,,,,3237,-63.1999895,25.59999394,1,0,0,response7disk,,1,-4.799988627,-9.60000658,1,0,0,rectangle,-4.799988627,-9.60000658,1,0,0,-4.799988627,-9.60000658,1,0,0,0,119,119,31,1,,,,,,,,
,,,,,,,,,,,,,FF,,,,,,,,1.20637,,,,,,,,,,,,,,,,,,,,,,60e4c5c835abaf843a61d5c9,60e564e770530c586f59d3cd,2021-07-07_10h30.59.528,Simcolourproject_2stim_asymm_v5,2020.2.10,Win32,60,60e52e7cfedb1dae636df45f,,,,,,,,,1433,-35.99998909,-87.20000774,1,0,0,response5disk,,3,-4.799988627,-8.800006568,1,0,0,rectangle,-4.799988627,-8.800006568,1,0,0,-4.799988627,-8.800006568,1,0,0,0,120,120,128,1,,,,,,,,
,,,,,,,,,,,,,FF,,,,,,,,1.272645,,,,,,,,,,,,,,,,,,,,,,60e4c5c835abaf843a61d5c9,60e564e770530c586f59d3cd,2021-07-07_10h30.59.528,Simcolourproject_2stim_asymm_v5,2020.2.10,Win32,60,60e52e7cfedb1dae636df45f,,,,,,,,,3956,54.40001225,67.99999458,1,0,0,response1disk,,7,1.14441E-05,5.599993646,1,0,0,rectangle,1.14441E-05,5.599993646,1,0,0,1.14441E-05,5.599993646,1,0,0,0,121,121,9,1,,,,,,,,
,,,,,,,,,,,,,FF,,,,,,,,1.88843,,,,,,,,,,,,,,,,,,,,,,60e4c5c835abaf843a61d5c9,60e564e770530c586f59d3cd,2021-07-07_10h30.59.528,Simcolourproject_2stim_asymm_v5,2020.2.10,Win32,60,60e52e7cfedb1dae636df45f,,,,,,,,,2449,39.20001203,-120.0000082,1,0,0,response3disk,,4,11.20001161,5.599993646,1,0,0,rectangle,11.20001161,5.599993646,1,0,0,11.20001161,5.599993646,1,0,0,0,122,122,80,1,,,,,,,,
,,,,,,,,,,,,,FF,,,,,,,,0.965075,,,,,,,,,,,,,,,,,,,,,,60e4c5c835abaf843a61d5c9,60e564e770530c586f59d3cd,2021-07-07_10h30.59.528,Simcolourproject_2stim_asymm_v5,2020.2.10,Win32,60,60e52e7cfedb1dae636df45f,,,,,,,,,580,54.40001225,-36.00000697,1,0,0,response3disk,,5,8.800011575,0.799993575,1,0,0,rectangle,8.800011575,0.799993575,1,0,0,8.800011575,0.799993575,1,0,0,0,123,123,58,1,,,,,,,,
,,,,,,,,,,,,,FF,,,,,,,,4.501035,,,,,,,,,,,,,,,,,,,,,,60e4c5c835abaf843a61d5c9,60e564e770530c586f59d3cd,2021-07-07_10h30.59.528,Simcolourproject_2stim_asymm_v5,2020.2.10,Win32,60,60e52e7cfedb1dae636df45f,,,,,,,,,560,93.60001284,29.599994,1,0,0,response1disk,,6,-18.39994,4.799993634,1,0,0,rectangle,-18.39994,4.799993634,1,0,0,-18.39994,4.799993634,1,0,0,0,124,124,75,1,,,,,,,,
,,,,,,,,,,,,,FF,,,,,,,,1.006535,,,,,,,,,,,,,,,,,,,,,,60e4c5c835abaf843a61d5c9,60e564e770530c586f59d3cd,2021-07-07_10h30.59.528,Simcolourproject_2stim_asymm_v5,2020.2.10,Win32,60,60e52e7cfedb1dae636df45f,,,,,,,,,3751,-67.99998957,36.79999411,1,0,0,response7disk,,1,-4.799988627,-1.600006461,1,0,0,rectangle,-4.799988627,-1.600006461,1,0,0,-4.799988627,-1.600006461,1,0,0,0,125,125,69,1,,,,,,,,
,,,,,,,,,,,,,FF,,,,,,,,1.306505,,,,,,,,,,,,,,,,,,,,,,60e4c5c835abaf843a61d5c9,60e564e770530c586f59d3cd,2021-07-07_10h30.59.528,Simcolourproject_2stim_asymm_v5,2020.2.10,Win32,60,60e52e7cfedb1dae636df45f,,,,,,,,,2250,-45.59998924,-102.400008,1,0,0,response5disk,,3,7.200011551,3.19999361,1,0,0,rectangle,7.200011551,3.19999361,1,0,0,7.200011551,3.19999361,1,0,0,0,126,126,121,1,,,,,,,,
,,,,,,,,,,,,,FF,,,,,,,,1.463975,,,,,,,,,,,,,,,,,,,,,,60e4c5c835abaf843a61d5c9,60e564e770530c586f59d3cd,2021-07-07_10h30.59.528,Simcolourproject_2stim_asymm_v5,2020.2.10,Win32,60,60e52e7cfedb1dae636df45f,,,,,,,,,4182,-63.99998951,-33.60000694,1,0,0,response5disk,,2,-4.799988627,1.599993587,1,0,0,rectangle,-4.799988627,1.599993587,1,0,0,-4.799988627,1.599993587,1,0,0,0,127,127,148,1,,,,,,,,
,,,,,,,,,,,,,FF,,,,,,,,1.3645,,,,,,,,,,,,,,,,,,,,,,60e4c5c835abaf843a61d5c9,60e564e770530c586f59d3cd,2021-07-07_10h30.59.528,Simcolourproject_2stim_asymm_v5,2020.2.10,Win32,60,60e52e7cfedb1dae636df45f,,,,,,,,,521,-26.39994012,-92.00000781,1,0,0,response5disk,,3,2.40001148,3.19999361,1,0,0,rectangle,2.40001148,3.19999361,1,0,0,2.40001148,3.19999361,1,0,0,0,128,128,100,1,,,,,,,,
,,,,,,,,,,,,,FF,,,,,,,,2.08756,,,,,,,,,,,,,,,,,,,,,,60e4c5c835abaf843a61d5c9,60e564e770530c586f59d3cd,2021-07-07_10h30.59.528,Simcolourproject_2stim_asymm_v5,2020.2.10,Win32,60,60e52e7cfedb1dae636df45f,,,,,,,,,58,91.2000128,19.99999386,1,0,0,response1disk,,6,13.60006047,-6.400006533,1,0,0,rectangle,13.60006047,-6.400006533,1,0,0,13.60006047,-6.400006533,1,0,0,0,129,129,62,1,,,,,,,,
,,,,,,,,,,,,,FF,,,,,,,,1.87133,,,,,,,,,,,,,,,,,,,,,,60e4c5c835abaf843a61d5c9,60e564e770530c586f59d3cd,2021-07-07_10h30.59.528,Simcolourproject_2stim_asymm_v5,2020.2.10,Win32,60,60e52e7cfedb1dae636df45f,,,,,,,,,1575,70.40001249,-40.00000703,1,0,0,response3disk,,5,4.000011504,-2.400006473,1,0,0,rectangle,4.000011504,-2.400006473,1,0,0,4.000011504,-2.400006473,1,0,0,0,130,130,151,1,,,,,,,,
,,,,,,,,,,,,,FF,,,,,,,,1.363305,,,,,,,,,,,,,,,,,,,,,,60e4c5c835abaf843a61d5c9,60e564e770530c586f59d3cd,2021-07-07_10h30.59.528,Simcolourproject_2stim_asymm_v5,2020.2.10,Win32,60,60e52e7cfedb1dae636df45f,,,,,,,,,1447,-97.59999001,47.19996985,1,0,0,response7disk,,1,5.600060356,2.399993598,1,0,0,rectangle,5.600060356,2.399993598,1,0,0,5.600060356,2.399993598,1,0,0,0,131,131,72,1,,,,,,,,
,,,,,,,,,,,,,FF,,,,,,,,2.487905,,,,,,,,,,,,,,,,,,,,,,60e4c5c835abaf843a61d5c9,60e564e770530c586f59d3cd,2021-07-07_10h30.59.528,Simcolourproject_2stim_asymm_v5,2020.2.10,Win32,60,60e52e7cfedb1dae636df45f,,,,,,,,,937,45.60006095,-98.4000079,1,0,0,response3disk,,4,13.60006047,8.799993694,1,0,0,rectangle,13.60006047,8.799993694,1,0,0,13.60006047,8.799993694,1,0,0,0,132,132,0,1,,,,,,,,
,,,,,,,,,,,,,FF,,,,,,,,2.155265,,,,,,,,,,,,,,,,,,,,,,60e4c5c835abaf843a61d5c9,60e564e770530c586f59d3cd,2021-07-07_10h30.59.528,Simcolourproject_2stim_asymm_v5,2020.2.10,Win32,60,60e52e7cfedb1dae636df45f,,,,,,,,,7,-95.19998997,-41.60000706,1,0,0,response5disk,,2,-1.59998858,0.799993575,1,0,0,rectangle,-1.59998858,0.799993575,1,0,0,-1.59998858,0.799993575,1,0,0,0,133,133,141,1,,,,,,,,
,,,,,,,,,,,,,FF,,,,,,,,1.47263,,,,,,,,,,,,,,,,,,,,,,60e4c5c835abaf843a61d5c9,60e564e770530c586f59d3cd,2021-07-07_10h30.59.528,Simcolourproject_2stim_asymm_v5,2020.2.10,Win32,60,60e52e7cfedb1dae636df45f,,,,,,,,,535,53.60001224,75.19997027,1,0,0,response1disk,,7,3.200011492,3.999993622,1,0,0,rectangle,3.200011492,3.999993622,1,0,0,3.200011492,3.999993622,1,0,0,0,134,134,126,1,,,,,,,,
,,,,,,,,,,,,,FF,,,,,,,,3.393945,,,,,,,,,,,,,,,,,,,,,,60e4c5c835abaf843a61d5c9,60e564e770530c586f59d3cd,2021-07-07_10h30.59.528,Simcolourproject_2stim_asymm_v5,2020.2.10,Win32,60,60e52e7cfedb1dae636df45f,,,,,,,,,1901,-78.3999409,41.59999418,1,0,0,response7disk,,1,9.600060415,-4.000006497,1,0,0,rectangle,9.600060415,-4.000006497,1,0,0,9.600060415,-4.000006497,1,0,0,0,135,135,132,1,,,,,,,,
,,,,,,,,,,,,,FF,,,,,,,,1.829285,,,,,,,,,,,,,,,,,,,,,,60e4c5c835abaf843a61d5c9,60e564e770530c586f59d3cd,2021-07-07_10h30.59.528,Simcolourproject_2stim_asymm_v5,2020.2.10,Win32,60,60e52e7cfedb1dae636df45f,,,,,,,,,3292,70.40001249,-90.40000778,1,0,0,response3disk,,4,1.600060296,4.799993634,1,0,0,rectangle,1.600060296,4.799993634,1,0,0,1.600060296,4.799993634,1,0,0,0,136,136,129,1,,,,,,,,
,,,,,,,,,,,,,FF,,,,,,,,2.2308,,,,,,,,,,,,,,,,,,,,,,60e4c5c835abaf843a61d5c9,60e564e770530c586f59d3cd,2021-07-07_10h30.59.528,Simcolourproject_2stim_asymm_v5,2020.2.10,Win32,60,60e52e7cfedb1dae636df45f,,,,,,,,,3652,88.80001277,46.39999425,1,0,0,response1disk,,6,1.14441E-05,-6.4373E-06,1,0,0,rectangle,92.00001281,-59.20000732,1,0,0,15.20001167,3.999993622,1,0,0,0,137,137,36,1,,response3disk_3,TRUE,5,5,"[61,71,162,81,74,138,69,267,168,181,101,48,100,4,108,227,190,38,223,39]",1.540155,rectangle
,,,,,,,,,,,,,FF,,,,,,,,1.562685,,,,,,,,,,,,,,,,,,,,,,60e4c5c835abaf843a61d5c9,60e564e770530c586f59d3cd,2021-07-07_10h30.59.528,Simcolourproject_2stim_asymm_v5,2020.2.10,Win32,60,60e52e7cfedb1dae636df45f,,,,,,,,,2157,48.00001216,-91.2000078,1,0,0,response3disk,,4,17.60006053,-6.4373E-06,1,0,0,rectangle,17.60006053,-6.4373E-06,1,0,0,17.60006053,-6.4373E-06,1,0,0,0,138,138,30,1,,,,,,,,
,,,,,,,,,,,,,FF,,,,,,,,1.894505,,,,,,,,,,,,,,,,,,,,,,60e4c5c835abaf843a61d5c9,60e564e770530c586f59d3cd,2021-07-07_10h30.59.528,Simcolourproject_2stim_asymm_v5,2020.2.10,Win32,60,60e52e7cfedb1dae636df45f,,,,,,,,,310,64.80001241,49.5999943,1,0,0,response1disk,,6,-7.199988663,10.39999372,1,0,0,rectangle,-7.199988663,10.39999372,1,0,0,-7.199988663,10.39999372,1,0,0,0,139,139,21,1,,,,,,,,
,,,,,,,,,,,,,FF,,,,,,,,1.35793,,,,,,,,,,,,,,,,,,,,,,60e4c5c835abaf843a61d5c9,60e564e770530c586f59d3cd,2021-07-07_10h30.59.528,Simcolourproject_2stim_asymm_v5,2020.2.10,Win32,60,60e52e7cfedb1dae636df45f,,,,,,,,,990,33.60006077,-93.60005666,1,0,0,response3disk,,4,-7.999988675,-0.800006449,1,0,0,rectangle,-7.999988675,-0.800006449,1,0,0,-7.999988675,-0.800006449,1,0,0,0,140,140,154,1,,,,,,,,
,,,,,,,,,,,,,FF,,,,,,,,0.883995,,,,,,,,,,,,,,,,,,,,,,60e4c5c835abaf843a61d5c9,60e564e770530c586f59d3cd,2021-07-07_10h30.59.528,Simcolourproject_2stim_asymm_v5,2020.2.10,Win32,60,60e52e7cfedb1dae636df45f,,,,,,,,,1073,-19.99998885,-64.00000739,1,0,0,response5disk,,3,-10.39993988,-2.400006473,1,0,0,rectangle,-10.39993988,-2.400006473,1,0,0,-10.39993988,-2.400006473,1,0,0,0,141,141,111,1,,,,,,,,
,,,,,,,,,,,,,FF,,,,,,,,1.297435,,,,,,,,,,,,,,,,,,,,,,60e4c5c835abaf843a61d5c9,60e564e770530c586f59d3cd,2021-07-07_10h30.59.528,Simcolourproject_2stim_asymm_v5,2020.2.10,Win32,60,60e52e7cfedb1dae636df45f,,,,,,,,,31,77.6000126,43.99999422,1,0,0,response1disk,,6,-0.799988568,-4.000006497,1,0,0,rectangle,-0.799988568,-4.000006497,1,0,0,-0.799988568,-4.000006497,1,0,0,0,142,142,153,1,,,,,,,,
,,,,,,,,,,,,,FF,,,,,,,,1.0976,,,,,,,,,,,,,,,,,,,,,,60e4c5c835abaf843a61d5c9,60e564e770530c586f59d3cd,2021-07-07_10h30.59.528,Simcolourproject_2stim_asymm_v5,2020.2.10,Win32,60,60e52e7cfedb1dae636df45f,,,,,,,,,3817,-102.3999413,45.59999424,1,0,0,response7disk,,1,-2.399939764,-4.000006497,1,0,0,rectangle,-2.399939764,-4.000006497,1,0,0,-2.399939764,-4.000006497,1,0,0,0,143,143,101,1,,,,,,,,
,,,,,,,,,,,,,FF,,,,,,,,4.18373,,,,,,,,,,,,,,,,,,,,,,60e4c5c835abaf843a61d5c9,60e564e770530c586f59d3cd,2021-07-07_10h30.59.528,Simcolourproject_2stim_asymm_v5,2020.2.10,Win32,60,60e52e7cfedb1dae636df45f,,,,,,,,,4322,58.40001231,-102.400008,1,0,0,response3disk,,4,3.200011492,-8.000006557,1,0,0,rectangle,3.200011492,-8.000006557,1,0,0,3.200011492,-8.000006557,1,0,0,0,144,144,106,1,,,,,,,,
,,,,,,,,,,,,,FF,,,,,,,,1.25639,,,,,,,,,,,,,,,,,,,,,,60e4c5c835abaf843a61d5c9,60e564e770530c586f59d3cd,2021-07-07_10h30.59.528,Simcolourproject_2stim_asymm_v5,2020.2.10,Win32,60,60e52e7cfedb1dae636df45f,,,,,,,,,4274,64.80001241,71.19997021,1,0,0,response1disk,,7,12.00001162,-5.600006521,1,0,0,rectangle,12.00001162,-5.600006521,1,0,0,12.00001162,-5.600006521,1,0,0,0,145,145,118,1,,,,,,,,
,,,,,,,,,,,,,FF,,,,,,,,2.37137,,,,,,,,,,,,,,,,,,,,,,60e4c5c835abaf843a61d5c9,60e564e770530c586f59d3cd,2021-07-07_10h30.59.528,Simcolourproject_2stim_asymm_v5,2020.2.10,Win32,60,60e52e7cfedb1dae636df45f,,,,,,,,,426,36.00001198,-114.4000081,1,0,0,response3disk,,4,-12.79998875,-3.200006485,1,0,0,rectangle,-12.79998875,-3.200006485,1,0,0,-12.79998875,-3.200006485,1,0,0,0,146,146,70,1,,,,,,,,
,,,,,,,,,,,,,FF,,,,,,,,3.427755,,,,,,,,,,,,,,,,,,,,,,60e4c5c835abaf843a61d5c9,60e564e770530c586f59d3cd,2021-07-07_10h30.59.528,Simcolourproject_2stim_asymm_v5,2020.2.10,Win32,60,60e52e7cfedb1dae636df45f,,,,,,,,,1863,96.00001287,47.19996985,1,0,0,response1disk,,6,14.40001166,-6.400006533,1,0,0,rectangle,14.40001166,-6.400006533,1,0,0,14.40001166,-6.400006533,1,0,0,0,147,147,1,1,,,,,,,,
,,,,,,,,,,,,,FF,,,,,,,,3.053515,,,,,,,,,,,,,,,,,,,,,,60e4c5c835abaf843a61d5c9,60e564e770530c586f59d3cd,2021-07-07_10h30.59.528,Simcolourproject_2stim_asymm_v5,2020.2.10,Win32,60,60e52e7cfedb1dae636df45f,,,,,,,,,2575,44.80001211,-119.2000082,1,0,0,response3disk,,4,-10.39993988,6.399993658,1,0,0,rectangle,-10.39993988,6.399993658,1,0,0,-10.39993988,6.399993658,1,0,0,0,148,148,97,1,,,,,,,,
,,,,,,,,,,,,,FF,,,,,,,,1.17898,,,,,,,,,,,,,,,,,,,,,,60e4c5c835abaf843a61d5c9,60e564e770530c586f59d3cd,2021-07-07_10h30.59.528,Simcolourproject_2stim_asymm_v5,2020.2.10,Win32,60,60e52e7cfedb1dae636df45f,,,,,,,,,2262,-33.59998906,-81.60005648,1,0,0,response5disk,,3,-5.599988639,-0.800006449,1,0,0,rectangle,-5.599988639,-0.800006449,1,0,0,-5.599988639,-0.800006449,1,0,0,0,149,149,84,1,,,,,,,,
,,,,,,,,,,,,,FF,,,,,,,,2.0794,,,,,,,,,,,,,,,,,,,,,,60e4c5c835abaf843a61d5c9,60e564e770530c586f59d3cd,2021-07-07_10h30.59.528,Simcolourproject_2stim_asymm_v5,2020.2.10,Win32,60,60e52e7cfedb1dae636df45f,,,,,,,,,1254,36.80001199,-104.000008,1,0,0,response3disk,,4,-0.799988568,6.399993658,1,0,0,rectangle,-0.799988568,6.399993658,1,0,0,-0.799988568,6.399993658,1,0,0,0,150,150,109,1,,,,,,,,
,,,,,,,,,,,,,FF,,,,,,,,1.397445,,,,,,,,,,,,,,,,,,,,,,60e4c5c835abaf843a61d5c9,60e564e770530c586f59d3cd,2021-07-07_10h30.59.528,Simcolourproject_2stim_asymm_v5,2020.2.10,Win32,60,60e52e7cfedb1dae636df45f,,,,,,,,,1236,-31.19998902,-85.60005654,1,0,0,response5disk,,3,5.600060356,5.599993646,1,0,0,rectangle,5.600060356,5.599993646,1,0,0,5.600060356,5.599993646,1,0,0,0,151,151,142,1,,,,,,,,
,,,,,,,,,,,,,FF,,,,,,,,1.93802,,,,,,,,,,,,,,,,,,,,,,60e4c5c835abaf843a61d5c9,60e564e770530c586f59d3cd,2021-07-07_10h30.59.528,Simcolourproject_2stim_asymm_v5,2020.2.10,Win32,60,60e52e7cfedb1dae636df45f,,,,,,,,,4005,-54.39994054,-93.60005666,1,0,0,response5disk,,3,-3.199988604,-2.400006473,1,0,0,rectangle,-3.199988604,-2.400006473,1,0,0,-3.199988604,-2.400006473,1,0,0,0,152,152,89,1,,,,,,,,
,,,,,,,,,,,,,FF,,,,,,,,1.08965,,,,,,,,,,,,,,,,,,,,,,60e4c5c835abaf843a61d5c9,60e564e770530c586f59d3cd,2021-07-07_10h30.59.528,Simcolourproject_2stim_asymm_v5,2020.2.10,Win32,60,60e52e7cfedb1dae636df45f,,,,,,,,,2706,50.4000122,-95.20000786,1,0,0,response3disk,,4,4.800011516,-4.000006497,1,0,0,rectangle,4.800011516,-4.000006497,1,0,0,4.800011516,-4.000006497,1,0,0,0,153,153,24,1,,,,,,,,
,,,,,,,,,,,,,FF,,,,,,,,1.290335,,,,,,,,,,,,,,,,,,,,,,60e4c5c835abaf843a61d5c9,60e564e770530c586f59d3cd,2021-07-07_10h30.59.528,Simcolourproject_2stim_asymm_v5,2020.2.10,Win32,60,60e52e7cfedb1dae636df45f,,,,,,,,,4207,-87.99998987,47.99999428,1,0,0,response7disk,,1,-0.799988568,-2.400006473,1,0,0,rectangle,-0.799988568,-2.400006473,1,0,0,-0.799988568,-2.400006473,1,0,0,0,154,154,59,1,,,,,,,,
,,,,,,,,,,,,,FF,,,,,,,,4.46615,,,,,,,,,,,,,,,,,,,,,,60e4c5c835abaf843a61d5c9,60e564e770530c586f59d3cd,2021-07-07_10h30.59.528,Simcolourproject_2stim_asymm_v5,2020.2.10,Win32,60,60e52e7cfedb1dae636df45f,,,,,,,,,1103,66.40001243,-116.0000082,1,0,0,response3disk,,4,-0.799988568,7.19999367,1,0,0,rectangle,-0.799988568,7.19999367,1,0,0,-0.799988568,7.19999367,1,0,0,0,155,155,91,1,,,,,,,,
,,,,,,,,,,,,,FF,,,,,,,,1.148625,,,,,,,,,,,,,,,,,,,,,,60e4c5c835abaf843a61d5c9,60e564e770530c586f59d3cd,2021-07-07_10h30.59.528,Simcolourproject_2stim_asymm_v5,2020.2.10,Win32,60,60e52e7cfedb1dae636df45f,,,,,,,,,1148,77.6000126,44.79999423,1,0,0,response1disk,,6,19.20001173,2.399993598,1,0,0,rectangle,19.20001173,2.399993598,1,0,0,19.20001173,2.399993598,1,0,0,0,156,156,157,1,,,,,,,,
,,,,,,,,,,,,,FF,,,,,,,,2.062615,,,,,,,,,,,,,,,,,,,,,,60e4c5c835abaf843a61d5c9,60e564e770530c586f59d3cd,2021-07-07_10h30.59.528,Simcolourproject_2stim_asymm_v5,2020.2.10,Win32,60,60e52e7cfedb1dae636df45f,,,,,,,,,1005,90.40001279,-49.60000718,1,0,0,response3disk,,5,4.800011516,-4.800006509,1,0,0,rectangle,4.800011516,-4.800006509,1,0,0,4.800011516,-4.800006509,1,0,0,0,157,157,147,1,,,,,,,,
,,,,,,,,,,,,,FF,,,,,,,,1.27234,,,,,,,,,,,,,,,,,,,,,,60e4c5c835abaf843a61d5c9,60e564e770530c586f59d3cd,2021-07-07_10h30.59.528,Simcolourproject_2stim_asymm_v5,2020.2.10,Win32,60,60e52e7cfedb1dae636df45f,,,,,,,,,2563,-75.99998969,-36.80000699,1,0,0,response5disk,,2,-8.799988687,-12.00000662,1,0,0,rectangle,-8.799988687,-12.00000662,1,0,0,-8.799988687,-12.00000662,1,0,0,0,158,158,112,1,,,,,,,,
,,,,,,,,,,,,,FF,,,,,,,,1.62227,,,,,,,,,,,,,,,,,,,,,,60e4c5c835abaf843a61d5c9,60e564e770530c586f59d3cd,2021-07-07_10h30.59.528,Simcolourproject_2stim_asymm_v5,2020.2.10,Win32,60,60e52e7cfedb1dae636df45f,,,,,,,,,784,80.80001265,51.99999434,1,0,0,response1disk,,6,8.000011563,-6.4373E-06,1,0,0,rectangle,8.000011563,-6.4373E-06,1,0,0,8.000011563,-6.4373E-06,1,0,0,0,159,159,28,1,,,,,,,,
,,,,,,,,,,,,,FF,,,,,,,,5.722925,,,,,,,,,,,,,,,,,,,,,,60e4c5c835abaf843a61d5c9,60e564e770530c586f59d3cd,2021-07-07_10h30.59.528,Simcolourproject_2stim_asymm_v5,2020.2.10,Win32,60,60e52e7cfedb1dae636df45f,,,,,,,,,624,-31.19998902,-78.40000761,1,0,0,response5disk,,3,-3.999988616,-10.40000659,1,0,0,rectangle,-3.999988616,-10.40000659,1,0,0,-3.999988616,-10.40000659,1,0,0,1,0,160,57,1,,,,,,,,
,,,,,,,,,,,,,FF,,,,,,,,1.66344,,,,,,,,,,,,,,,,,,,,,,60e4c5c835abaf843a61d5c9,60e564e770530c586f59d3cd,2021-07-07_10h30.59.528,Simcolourproject_2stim_asymm_v5,2020.2.10,Win32,60,60e52e7cfedb1dae636df45f,,,,,,,,,1786,50.4000122,-80.00000763,1,0,0,response3disk,,4,6.400011539,4.799993634,1,0,0,rectangle,-83.99998981,-26.40000683,1,0,0,-1.59998858,-0.800006449,1,0,0,1,1,161,83,1,,response5disk_3,TRUE,2,2,"[61,71,162,81,74,138,69,267,168,181,101,48,100,4,108,227,190,38,223,39]",1.823185,rectangle
,,,,,,,,,,,,,FF,,,,,,,,1.28339,,,,,,,,,,,,,,,,,,,,,,60e4c5c835abaf843a61d5c9,60e564e770530c586f59d3cd,2021-07-07_10h30.59.528,Simcolourproject_2stim_asymm_v5,2020.2.10,Win32,60,60e52e7cfedb1dae636df45f,,,,,,,,,4214,80.80001265,35.9999941,1,0,0,response1disk,,6,-9.599988699,1.599993587,1,0,0,rectangle,-9.599988699,1.599993587,1,0,0,-9.599988699,1.599993587,1,0,0,1,2,162,136,1,,,,,,,,
,,,,,,,,,,,,,FF,,,,,,,,2.3294,,,,,,,,,,,,,,,,,,,,,,60e4c5c835abaf843a61d5c9,60e564e770530c586f59d3cd,2021-07-07_10h30.59.528,Simcolourproject_2stim_asymm_v5,2020.2.10,Win32,60,60e52e7cfedb1dae636df45f,,,,,,,,,3095,-31.19998902,-87.20000774,1,0,0,response5disk,,3,-1.59998858,3.19999361,1,0,0,rectangle,-1.59998858,3.19999361,1,0,0,-1.59998858,3.19999361,1,0,0,1,3,163,87,1,,,,,,,,
,,,,,,,,,,,,,FF,,,,,,,,2.33758,,,,,,,,,,,,,,,,,,,,,,60e4c5c835abaf843a61d5c9,60e564e770530c586f59d3cd,2021-07-07_10h30.59.528,Simcolourproject_2stim_asymm_v5,2020.2.10,Win32,60,60e52e7cfedb1dae636df45f,,,,,,,,,3904,-31.99998903,-80.80000764,1,0,0,response5disk,,3,-16.79998881,1.599993587,1,0,0,rectangle,-16.79998881,1.599993587,1,0,0,-16.79998881,1.599993587,1,0,0,1,4,164,135,1,,,,,,,,
,,,,,,,,,,,,,FF,,,,,,,,1.789145,,,,,,,,,,,,,,,,,,,,,,60e4c5c835abaf843a61d5c9,60e564e770530c586f59d3cd,2021-07-07_10h30.59.528,Simcolourproject_2stim_asymm_v5,2020.2.10,Win32,60,60e52e7cfedb1dae636df45f,,,,,,,,,4029,41.60006089,-79.20000762,1,0,0,response3disk,,4,8.800011575,-4.000006497,1,0,0,rectangle,8.800011575,-4.000006497,1,0,0,8.800011575,-4.000006497,1,0,0,1,5,165,65,1,,,,,,,,
,,,,,,,,,,,,,FF,,,,,,,,2.23718,,,,,,,,,,,,,,,,,,,,,,60e4c5c835abaf843a61d5c9,60e564e770530c586f59d3cd,2021-07-07_10h30.59.528,Simcolourproject_2stim_asymm_v5,2020.2.10,Win32,60,60e52e7cfedb1dae636df45f,,,,,,,,,147,102.400013,51.99999434,1,0,0,response1disk,,6,1.14441E-05,-2.400006473,1,0,0,rectangle,1.14441E-05,-2.400006473,1,0,0,1.14441E-05,-2.400006473,1,0,0,1,6,166,94,1,,,,,,,,
,,,,,,,,,,,,,FF,,,,,,,,1.313755,,,,,,,,,,,,,,,,,,,,,,60e4c5c835abaf843a61d5c9,60e564e770530c586f59d3cd,2021-07-07_10h30.59.528,Simcolourproject_2stim_asymm_v5,2020.2.10,Win32,60,60e52e7cfedb1dae636df45f,,,,,,,,,468,56.00001228,-84.00000769,1,0,0,response3disk,,4,0.800011456,-5.600006521,1,0,0,rectangle,83.20001268,23.99999392,1,0,0,3.200011492,-4.800006509,1,0,0,1,7,167,1,1,,response1disk_3,TRUE,6,6,"[61,71,162,81,74,138,69,267,168,181,101,48,100,4,108,227,190,38,223,39]",1.53175,rectangle
,,,,,,,,,,,,,FF,,,,,,,,2.35518,,,,,,,,,,,,,,,,,,,,,,60e4c5c835abaf843a61d5c9,60e564e770530c586f59d3cd,2021-07-07_10h30.59.528,Simcolourproject_2stim_asymm_v5,2020.2.10,Win32,60,60e52e7cfedb1dae636df45f,,,,,,,,,4003,33.60006077,-92.80000782,1,0,0,response3disk,,4,-3.999988616,-8.000006557,1,0,0,rectangle,-3.999988616,-8.000006557,1,0,0,-3.999988616,-8.000006557,1,0,0,1,8,168,107,1,,,,,,,,
,,,,,,,,,,,,,FF,,,,,,,,1.123435,,,,,,,,,,,,,,,,,,,,,,60e4c5c835abaf843a61d5c9,60e564e770530c586f59d3cd,2021-07-07_10h30.59.528,Simcolourproject_2stim_asymm_v5,2020.2.10,Win32,60,60e52e7cfedb1dae636df45f,,,,,,,,,1885,90.40001279,43.99999422,1,0,0,response1disk,,6,-2.399939764,-5.600006521,1,0,0,rectangle,-2.399939764,-5.600006521,1,0,0,-2.399939764,-5.600006521,1,0,0,1,9,169,43,1,,,,,,,,
,,,,,,,,,,,,,FF,,,,,,,,4.85789,,,,,,,,,,,,,,,,,,,,,,60e4c5c835abaf843a61d5c9,60e564e770530c586f59d3cd,2021-07-07_10h30.59.528,Simcolourproject_2stim_asymm_v5,2020.2.10,Win32,60,60e52e7cfedb1dae636df45f,,,,,,,,,450,52.00001222,-101.6000568,1,0,0,response3disk,,4,5.600060356,-6.400006533,1,0,0,rectangle,5.600060356,-6.400006533,1,0,0,5.600060356,-6.400006533,1,0,0,1,10,170,63,1,,,,,,,,
,,,,,,,,,,,,,FF,,,,,,,,8.078535,,,,,,,,,,,,,,,,,,,,,,60e4c5c835abaf843a61d5c9,60e564e770530c586f59d3cd,2021-07-07_10h30.59.528,Simcolourproject_2stim_asymm_v5,2020.2.10,Win32,60,60e52e7cfedb1dae636df45f,,,,,,,,,2391,-43.99998921,-116.0000082,1,0,0,response5disk,,3,-7.199988663,7.999993682,1,0,0,rectangle,-7.199988663,7.999993682,1,0,0,-7.199988663,7.999993682,1,0,0,1,11,171,78,1,,,,,,,,
,,,,,,,,,,,,,FF,,,,,,,,1.680065,,,,,,,,,,,,,,,,,,,,,,60e4c5c835abaf843a61d5c9,60e564e770530c586f59d3cd,2021-07-07_10h30.59.528,Simcolourproject_2stim_asymm_v5,2020.2.10,Win32,60,60e52e7cfedb1dae636df45f,,,,,,,,,158,48.00001216,-105.6000568,1,0,0,response3disk,,4,17.60006053,-5.600006521,1,0,0,rectangle,17.60006053,-5.600006521,1,0,0,17.60006053,-5.600006521,1,0,0,1,12,172,38,1,,,,,,,,
,,,,,,,,,,,,,FF,,,,,,,,9.55009,,,,,,,,,,,,,,,,,,,,,,60e4c5c835abaf843a61d5c9,60e564e770530c586f59d3cd,2021-07-07_10h30.59.528,Simcolourproject_2stim_asymm_v5,2020.2.10,Win32,60,60e52e7cfedb1dae636df45f,,,,,,,,,2131,40.00001204,-68.80000746,1,0,0,response3disk,,4,1.600060296,-6.400006533,1,0,0,rectangle,1.600060296,-6.400006533,1,0,0,1.600060296,-6.400006533,1,0,0,1,13,173,0,1,,,,,,,,
,,,,,,,,,,,,,FF,,,,,,,,2.404245,,,,,,,,,,,,,,,,,,,,,,60e4c5c835abaf843a61d5c9,60e564e770530c586f59d3cd,2021-07-07_10h30.59.528,Simcolourproject_2stim_asymm_v5,2020.2.10,Win32,60,60e52e7cfedb1dae636df45f,,,,,,,,,2916,-37.59998912,-90.40000778,1,0,0,response5disk,,3,9.600060415,7.999993682,1,0,0,rectangle,9.600060415,7.999993682,1,0,0,9.600060415,7.999993682,1,0,0,1,14,174,8,1,,,,,,,,
,,,,,,,,,,,,,FF,,,,,,,,1.463825,,,,,,,,,,,,,,,,,,,,,,60e4c5c835abaf843a61d5c9,60e564e770530c586f59d3cd,2021-07-07_10h30.59.528,Simcolourproject_2stim_asymm_v5,2020.2.10,Win32,60,60e52e7cfedb1dae636df45f,,,,,,,,,3137,85.60001272,37.59999412,1,0,0,response1disk,,6,-7.999988675,4.799993634,1,0,0,rectangle,-7.999988675,4.799993634,1,0,0,-7.999988675,4.799993634,1,0,0,1,15,175,12,1,,,,,,,,
,,,,,,,,,,,,,FF,,,,,,,,2.238045,,,,,,,,,,,,,,,,,,,,,,60e4c5c835abaf843a61d5c9,60e564e770530c586f59d3cd,2021-07-07_10h30.59.528,Simcolourproject_2stim_asymm_v5,2020.2.10,Win32,60,60e52e7cfedb1dae636df45f,,,,,,,,,1116,52.00001222,-67.20000744,1,0,0,response3disk,,4,8.000011563,-6.4373E-06,1,0,0,rectangle,8.000011563,-6.4373E-06,1,0,0,8.000011563,-6.4373E-06,1,0,0,1,16,176,157,1,,,,,,,,
,,,,,,,,,,,,,FF,,,,,,,,1.596555,,,,,,,,,,,,,,,,,,,,,,60e4c5c835abaf843a61d5c9,60e564e770530c586f59d3cd,2021-07-07_10h30.59.528,Simcolourproject_2stim_asymm_v5,2020.2.10,Win32,60,60e52e7cfedb1dae636df45f,,,,,,,,,2475,-47.19998926,-122.4000083,1,0,0,response5disk,,3,-4.799988627,-6.4373E-06,1,0,0,rectangle,-4.799988627,-6.4373E-06,1,0,0,-4.799988627,-6.4373E-06,1,0,0,1,17,177,142,1,,,,,,,,
,,,,,,,,,,,,,FF,,,,,,,,1.049645,,,,,,,,,,,,,,,,,,,,,,60e4c5c835abaf843a61d5c9,60e564e770530c586f59d3cd,2021-07-07_10h30.59.528,Simcolourproject_2stim_asymm_v5,2020.2.10,Win32,60,60e52e7cfedb1dae636df45f,,,,,,,,,1016,56.00001228,-99.20000792,1,0,0,response3disk,,4,12.80001163,-7.200006545,1,0,0,rectangle,12.80001163,-7.200006545,1,0,0,12.80001163,-7.200006545,1,0,0,1,18,178,155,1,,,,,,,,
,,,,,,,,,,,,,FF,,,,,,,,1.09008,,,,,,,,,,,,,,,,,,,,,,60e4c5c835abaf843a61d5c9,60e564e770530c586f59d3cd,2021-07-07_10h30.59.528,Simcolourproject_2stim_asymm_v5,2020.2.10,Win32,60,60e52e7cfedb1dae636df45f,,,,,,,,,3157,-75.19998968,31.99999404,1,0,0,response7disk,,1,-7.199988663,0.799993575,1,0,0,rectangle,-7.199988663,0.799993575,1,0,0,-7.199988663,0.799993575,1,0,0,1,19,179,6,1,,,,,,,,
,,,,,,,,,,,,,FF,,,,,,,,1.596825,,,,,,,,,,,,,,,,,,,,,,60e4c5c835abaf843a61d5c9,60e564e770530c586f59d3cd,2021-07-07_10h30.59.528,Simcolourproject_2stim_asymm_v5,2020.2.10,Win32,60,60e52e7cfedb1dae636df45f,,,,,,,,,136,91.2000128,-64.00000739,1,0,0,response3disk,,5,6.400011539,10.39999372,1,0,0,rectangle,-91.99998993,-36.00000697,1,0,0,1.600060296,-9.60000658,1,0,0,1,20,180,106,1,,response5disk_3,TRUE,2,2,"[61,71,162,81,74,138,69,267,168,181,101,48,100,4,108,227,190,38,223,39]",1.97988,rectangle
,,,,,,,,,,,,,FF,,,,,,,,1.005535,,,,,,,,,,,,,,,,,,,,,,60e4c5c835abaf843a61d5c9,60e564e770530c586f59d3cd,2021-07-07_10h30.59.528,Simcolourproject_2stim_asymm_v5,2020.2.10,Win32,60,60e52e7cfedb1dae636df45f,,,,,,,,,0,-39.19998914,84.79999483,1,0,0,response7disk,,0,-0.799988568,-14.40000665,1,0,0,rectangle,-0.799988568,-14.40000665,1,0,0,-0.799988568,-14.40000665,1,0,0,1,21,181,130,1,,,,,,,,
,,,,,,,,,,,,,FF,,,,,,,,6.296865,,,,,,,,,,,,,,,,,,,,,,60e4c5c835abaf843a61d5c9,60e564e770530c586f59d3cd,2021-07-07_10h30.59.528,Simcolourproject_2stim_asymm_v5,2020.2.10,Win32,60,60e52e7cfedb1dae636df45f,,,,,,,,,1512,104.000013,36.79999411,1,0,0,response1disk,,6,9.600060415,-0.800006449,1,0,0,rectangle,9.600060415,-0.800006449,1,0,0,9.600060415,-0.800006449,1,0,0,1,22,182,21,1,,,,,,,,
,,,,,,,,,,,,,FF,,,,,,,,3.002265,,,,,,,,,,,,,,,,,,,,,,60e4c5c835abaf843a61d5c9,60e564e770530c586f59d3cd,2021-07-07_10h30.59.528,Simcolourproject_2stim_asymm_v5,2020.2.10,Win32,60,60e52e7cfedb1dae636df45f,,,,,,,,,1775,68.80001247,-124.0000083,1,0,0,response3disk,,4,-11.99998873,-0.800006449,1,0,0,rectangle,-11.99998873,-0.800006449,1,0,0,-11.99998873,-0.800006449,1,0,0,1,23,183,88,1,,,,,,,,
,,,,,,,,,,,,,FF,,,,,,,,0.806545,,,,,,,,,,,,,,,,,,,,,,60e4c5c835abaf843a61d5c9,60e564e770530c586f59d3cd,2021-07-07_10h30.59.528,Simcolourproject_2stim_asymm_v5,2020.2.10,Win32,60,60e52e7cfedb1dae636df45f,,,,,,,,,2715,-115.1999903,-44.00000709,1,0,0,response5disk,,2,19.20001173,-5.600006521,1,0,0,rectangle,19.20001173,-5.600006521,1,0,0,19.20001173,-5.600006521,1,0,0,1,24,184,40,1,,,,,,,,
,,,,,,,,,,,,,FF,,,,,,,,1.041775,,,,,,,,,,,,,,,,,,,,,,60e4c5c835abaf843a61d5c9,60e564e770530c586f59d3cd,2021-07-07_10h30.59.528,Simcolourproject_2stim_asymm_v5,2020.2.10,Win32,60,60e52e7cfedb1dae636df45f,,,,,,,,,1180,-71.19998962,-101.6000568,1,0,0,response5disk,,3,0.800011456,-6.400006533,1,0,0,rectangle,0.800011456,-6.400006533,1,0,0,0.800011456,-6.400006533,1,0,0,1,25,185,119,1,,,,,,,,
,,,,,,,,,,,,,FF,,,,,,,,1.86344,,,,,,,,,,,,,,,,,,,,,,60e4c5c835abaf843a61d5c9,60e564e770530c586f59d3cd,2021-07-07_10h30.59.528,Simcolourproject_2stim_asymm_v5,2020.2.10,Win32,60,60e52e7cfedb1dae636df45f,,,,,,,,,3254,-99.19999003,-52.00000721,1,0,0,response5disk,,2,-15.99998879,15.9999938,1,0,0,rectangle,-15.99998879,15.9999938,1,0,0,-15.99998879,15.9999938,1,0,0,1,26,186,30,1,,,,,,,,
,,,,,,,,,,,,,FF,,,,,,,,0.614745,,,,,,,,,,,,,,,,,,,,,,60e4c5c835abaf843a61d5c9,60e564e770530c586f59d3cd,2021-07-07_10h30.59.528,Simcolourproject_2stim_asymm_v5,2020.2.10,Win32,60,60e52e7cfedb1dae636df45f,,,,,,,,,4206,-95.19998997,37.59999412,1,0,0,response7disk,,1,-17.59998882,-6.4373E-06,1,0,0,rectangle,-17.59998882,-6.4373E-06,1,0,0,-17.59998882,-6.4373E-06,1,0,0,1,27,187,98,1,,,,,,,,
,,,,,,,,,,,,,FF,,,,,,,,1.522865,,,,,,,,,,,,,,,,,,,,,,60e4c5c835abaf843a61d5c9,60e564e770530c586f59d3cd,2021-07-07_10h30.59.528,Simcolourproject_2stim_asymm_v5,2020.2.10,Win32,60,60e52e7cfedb1dae636df45f,,,,,,,,,4016,-45.59998924,-103.200008,1,0,0,response5disk,,3,-22.39994006,-6.4373E-06,1,0,0,rectangle,-22.39994006,-6.4373E-06,1,0,0,-22.39994006,-6.4373E-06,1,0,0,1,28,188,115,1,,,,,,,,
,,,,,,,,,,,,,FF,,,,,,,,0.798035,,,,,,,,,,,,,,,,,,,,,,60e4c5c835abaf843a61d5c9,60e564e770530c586f59d3cd,2021-07-07_10h30.59.528,Simcolourproject_2stim_asymm_v5,2020.2.10,Win32,60,60e52e7cfedb1dae636df45f,,,,,,,,,750,40.80001205,-84.8000077,1,0,0,response3disk,,4,-5.599988639,11.99999374,1,0,0,rectangle,-83.1999898,46.39999425,1,0,0,-9.599988699,7.999993682,1,0,0,1,29,189,23,1,,response7disk_3,TRUE,1,1,"[61,71,162,81,74,138,69,267,168,181,101,48,100,4,108,227,190,38,223,39]",1.71392,rectangle
,,,,,,,,,,,,,FF,,,,,,,,2.50331,,,,,,,,,,,,,,,,,,,,,,60e4c5c835abaf843a61d5c9,60e564e770530c586f59d3cd,2021-07-07_10h30.59.528,Simcolourproject_2stim_asymm_v5,2020.2.10,Win32,60,60e52e7cfedb1dae636df45f,,,,,,,,,2580,34.40001196,-88.80000776,1,0,0,response3disk,,4,-1.59998858,2.399993598,1,0,0,rectangle,-1.59998858,2.399993598,1,0,0,-1.59998858,2.399993598,1,0,0,1,30,190,18,1,,,,,,,,
,,,,,,,,,,,,,FF,,,,,,,,0.723385,,,,,,,,,,,,,,,,,,,,,,60e4c5c835abaf843a61d5c9,60e564e770530c586f59d3cd,2021-07-07_10h30.59.528,Simcolourproject_2stim_asymm_v5,2020.2.10,Win32,60,60e52e7cfedb1dae636df45f,,,,,,,,,891,-67.99998957,38.39999413,1,0,0,response7disk,,1,-0.799988568,-3.200006485,1,0,0,rectangle,-0.799988568,-3.200006485,1,0,0,-0.799988568,-3.200006485,1,0,0,1,31,191,134,1,,,,,,,,
,,,,,,,,,,,,,FF,,,,,,,,1.5059,,,,,,,,,,,,,,,,,,,,,,60e4c5c835abaf843a61d5c9,60e564e770530c586f59d3cd,2021-07-07_10h30.59.528,Simcolourproject_2stim_asymm_v5,2020.2.10,Win32,60,60e52e7cfedb1dae636df45f,,,,,,,,,39,84.80001271,-50.40000719,1,0,0,response3disk,,5,-17.59998882,13.59999377,1,0,0,rectangle,-17.59998882,13.59999377,1,0,0,-17.59998882,13.59999377,1,0,0,1,32,192,128,1,,,,,,,,
,,,,,,,,,,,,,FF,,,,,,,,1.19757,,,,,,,,,,,,,,,,,,,,,,60e4c5c835abaf843a61d5c9,60e564e770530c586f59d3cd,2021-07-07_10h30.59.528,Simcolourproject_2stim_asymm_v5,2020.2.10,Win32,60,60e52e7cfedb1dae636df45f,,,,,,,,,4323,-42.39994036,-103.200008,1,0,0,response5disk,,3,-20.79998887,-15.20000666,1,0,0,rectangle,-20.79998887,-15.20000666,1,0,0,-20.79998887,-15.20000666,1,0,0,1,33,193,58,1,,,,,,,,
,,,,,,,,,,,,,FF,,,,,,,,2.212425,,,,,,,,,,,,,,,,,,,,,,60e4c5c835abaf843a61d5c9,60e564e770530c586f59d3cd,2021-07-07_10h30.59.528,Simcolourproject_2stim_asymm_v5,2020.2.10,Win32,60,60e52e7cfedb1dae636df45f,,,,,,,,,1100,31.20001191,-108.8000081,1,0,0,response3disk,,4,-11.19998872,1.599993587,1,0,0,rectangle,-11.19998872,1.599993587,1,0,0,-11.19998872,1.599993587,1,0,0,1,34,194,29,1,,,,,,,,
,,,,,,,,,,,,,FF,,,,,,,,2.204155,,,,,,,,,,,,,,,,,,,,,,60e4c5c835abaf843a61d5c9,60e564e770530c586f59d3cd,2021-07-07_10h30.59.528,Simcolourproject_2stim_asymm_v5,2020.2.10,Win32,60,60e52e7cfedb1dae636df45f,,,,,,,,,4224,-114.3999414,-48.80000716,1,0,0,response5disk,,2,-0.799988568,-0.800006449,1,0,0,rectangle,-0.799988568,-0.800006449,1,0,0,-0.799988568,-0.800006449,1,0,0,1,35,195,113,1,,,,,,,,
,,,,,,,,,,,,,FF,,,,,,,,1.42238,,,,,,,,,,,,,,,,,,,,,,60e4c5c835abaf843a61d5c9,60e564e770530c586f59d3cd,2021-07-07_10h30.59.528,Simcolourproject_2stim_asymm_v5,2020.2.10,Win32,60,60e52e7cfedb1dae636df45f,,,,,,,,,1720,90.40001279,-53.60000724,1,0,0,response3disk,,5,-24.79998893,12.79999375,1,0,0,rectangle,-24.79998893,12.79999375,1,0,0,-24.79998893,12.79999375,1,0,0,1,36,196,39,1,,,,,,,,
,,,,,,,,,,,,,FF,,,,,,,,1.39719,,,,,,,,,,,,,,,,,,,,,,60e4c5c835abaf843a61d5c9,60e564e770530c586f59d3cd,2021-07-07_10h30.59.528,Simcolourproject_2stim_asymm_v5,2020.2.10,Win32,60,60e52e7cfedb1dae636df45f,,,,,,,,,2799,-39.99998915,-90.40000778,1,0,0,response5disk,,3,-3.199988604,-3.200006485,1,0,0,rectangle,-3.199988604,-3.200006485,1,0,0,-3.199988604,-3.200006485,1,0,0,1,37,197,103,1,,,,,,,,
,,,,,,,,,,,,,FF,,,,,,,,1.23127,,,,,,,,,,,,,,,,,,,,,,60e4c5c835abaf843a61d5c9,60e564e770530c586f59d3cd,2021-07-07_10h30.59.528,Simcolourproject_2stim_asymm_v5,2020.2.10,Win32,60,60e52e7cfedb1dae636df45f,,,,,,,,,225,50.4000122,-104.800008,1,0,0,response3disk,,4,-30.39994018,1.599993587,1,0,0,rectangle,-30.39994018,1.599993587,1,0,0,-30.39994018,1.599993587,1,0,0,1,38,198,77,1,,,,,,,,
,,,,,,,,,,,,,FF,,,,,,,,0.623825,,,,,,,,,,,,,,,,,,,,,,60e4c5c835abaf843a61d5c9,60e564e770530c586f59d3cd,2021-07-07_10h30.59.528,Simcolourproject_2stim_asymm_v5,2020.2.10,Win32,60,60e52e7cfedb1dae636df45f,,,,,,,,,260,-79.19998974,36.79999411,1,0,0,response7disk,,1,-0.799988568,-0.800006449,1,0,0,rectangle,-0.799988568,-0.800006449,1,0,0,-0.799988568,-0.800006449,1,0,0,1,39,199,42,1,,,,,,,,
,,,,,,,,,,,,,FF,,,,,,,,0.624215,,,,,,,,,,,,,,,,,,,,,,60e4c5c835abaf843a61d5c9,60e564e770530c586f59d3cd,2021-07-07_10h30.59.528,Simcolourproject_2stim_asymm_v5,2020.2.10,Win32,60,60e52e7cfedb1dae636df45f,,,,,,,,,3149,-76.7999897,30.39999402,1,0,0,response7disk,,1,-14.39993994,9.599993706,1,0,0,rectangle,-14.39993994,9.599993706,1,0,0,-14.39993994,9.599993706,1,0,0,1,40,200,32,1,,,,,,,,
,,,,,,,,,,,,,FF,,,,,,,,1.00671,,,,,,,,,,,,,,,,,,,,,,60e4c5c835abaf843a61d5c9,60e564e770530c586f59d3cd,2021-07-07_10h30.59.528,Simcolourproject_2stim_asymm_v5,2020.2.10,Win32,60,60e52e7cfedb1dae636df45f,,,,,,,,,2917,-84.79998982,-56.80000728,1,0,0,response5disk,,2,-2.399939764,1.599993587,1,0,0,rectangle,-2.399939764,1.599993587,1,0,0,-2.399939764,1.599993587,1,0,0,1,41,201,59,1,,,,,,,,
,,,,,,,,,,,,,FF,,,,,,,,3.40261,,,,,,,,,,,,,,,,,,,,,,60e4c5c835abaf843a61d5c9,60e564e770530c586f59d3cd,2021-07-07_10h30.59.528,Simcolourproject_2stim_asymm_v5,2020.2.10,Win32,60,60e52e7cfedb1dae636df45f,,,,,,,,,2537,46.40001214,-105.6000568,1,0,0,response3disk,,4,-9.599988699,-1.600006461,1,0,0,rectangle,-9.599988699,-1.600006461,1,0,0,-9.599988699,-1.600006461,1,0,0,1,42,202,148,1,,,,,,,,
,,,,,,,,,,,,,FF,,,,,,,,1.025065,,,,,,,,,,,,,,,,,,,,,,60e4c5c835abaf843a61d5c9,60e564e770530c586f59d3cd,2021-07-07_10h30.59.528,Simcolourproject_2stim_asymm_v5,2020.2.10,Win32,60,60e52e7cfedb1dae636df45f,,,,,,,,,442,-104.7999901,-52.80000722,1,0,0,response5disk,,2,15.20001167,16.79999381,1,0,0,rectangle,15.20001167,16.79999381,1,0,0,15.20001167,16.79999381,1,0,0,1,43,203,17,1,,,,,,,,
,,,,,,,,,,,,,FF,,,,,,,,2.572085,,,,,,,,,,,,,,,,,,,,,,60e4c5c835abaf843a61d5c9,60e564e770530c586f59d3cd,2021-07-07_10h30.59.528,Simcolourproject_2stim_asymm_v5,2020.2.10,Win32,60,60e52e7cfedb1dae636df45f,,,,,,,,,691,-35.19998908,-106.400008,1,0,0,response5disk,,3,16.00001168,3.19999361,1,0,0,rectangle,16.00001168,3.19999361,1,0,0,16.00001168,3.19999361,1,0,0,1,44,204,62,1,,,,,,,,
,,,,,,,,,,,,,FF,,,,,,,,0.948385,,,,,,,,,,,,,,,,,,,,,,60e4c5c835abaf843a61d5c9,60e564e770530c586f59d3cd,2021-07-07_10h30.59.528,Simcolourproject_2stim_asymm_v5,2020.2.10,Win32,60,60e52e7cfedb1dae636df45f,,,,,,,,,4130,-79.99998975,-53.60000724,1,0,0,response5disk,,2,-14.39993994,9.599993706,1,0,0,rectangle,-14.39993994,9.599993706,1,0,0,-14.39993994,9.599993706,1,0,0,1,45,205,120,1,,,,,,,,
,,,,,,,,,,,,,FF,,,,,,,,0.864655,,,,,,,,,,,,,,,,,,,,,,60e4c5c835abaf843a61d5c9,60e564e770530c586f59d3cd,2021-07-07_10h30.59.528,Simcolourproject_2stim_asymm_v5,2020.2.10,Win32,60,60e52e7cfedb1dae636df45f,,,,,,,,,3865,-55.19998938,-111.2000081,1,0,0,response5disk,,3,-13.59998876,-8.000006557,1,0,0,rectangle,-13.59998876,-8.000006557,1,0,0,-13.59998876,-8.000006557,1,0,0,1,46,206,19,1,,,,,,,,
,,,,,,,,,,,,,FF,,,,,,,,0.69812,,,,,,,,,,,,,,,,,,,,,,60e4c5c835abaf843a61d5c9,60e564e770530c586f59d3cd,2021-07-07_10h30.59.528,Simcolourproject_2stim_asymm_v5,2020.2.10,Win32,60,60e52e7cfedb1dae636df45f,,,,,,,,,2933,-80.79998976,-51.2000072,1,0,0,response5disk,,2,-3.999988616,6.399993658,1,0,0,rectangle,-3.999988616,6.399993658,1,0,0,-3.999988616,6.399993658,1,0,0,1,47,207,144,1,,,,,,,,
,,,,,,,,,,,,,FF,,,,,,,,1.15683,,,,,,,,,,,,,,,,,,,,,,60e4c5c835abaf843a61d5c9,60e564e770530c586f59d3cd,2021-07-07_10h30.59.528,Simcolourproject_2stim_asymm_v5,2020.2.10,Win32,60,60e52e7cfedb1dae636df45f,,,,,,,,,4157,47.20001215,-99.20000792,1,0,0,response3disk,,4,-0.799988568,10.39999372,1,0,0,rectangle,-0.799988568,10.39999372,1,0,0,-0.799988568,10.39999372,1,0,0,1,48,208,33,1,,,,,,,,
,,,,,,,,,,,,,FF,,,,,,,,2.12969,,,,,,,,,,,,,,,,,,,,,,60e4c5c835abaf843a61d5c9,60e564e770530c586f59d3cd,2021-07-07_10h30.59.528,Simcolourproject_2stim_asymm_v5,2020.2.10,Win32,60,60e52e7cfedb1dae636df45f,,,,,,,,,3840,-31.99998903,-105.6000568,1,0,0,response5disk,,3,1.600060296,-12.00000662,1,0,0,rectangle,1.600060296,-12.00000662,1,0,0,1.600060296,-12.00000662,1,0,0,1,49,209,152,1,,,,,,,,
,,,,,,,,,,,,,FF,,,,,,,,1.072835,,,,,,,,,,,,,,,,,,,,,,60e4c5c835abaf843a61d5c9,60e564e770530c586f59d3cd,2021-07-07_10h30.59.528,Simcolourproject_2stim_asymm_v5,2020.2.10,Win32,60,60e52e7cfedb1dae636df45f,,,,,,,,,2116,72.00001252,30.39999402,1,0,0,response1disk,,6,4.800011516,2.399993598,1,0,0,rectangle,4.800011516,2.399993598,1,0,0,4.800011516,2.399993598,1,0,0,1,50,210,147,1,,,,,,,,
,,,,,,,,,,,,,FF,,,,,,,,1.67854,,,,,,,,,,,,,,,,,,,,,,60e4c5c835abaf843a61d5c9,60e564e770530c586f59d3cd,2021-07-07_10h30.59.528,Simcolourproject_2stim_asymm_v5,2020.2.10,Win32,60,60e52e7cfedb1dae636df45f,,,,,,,,,1127,-43.99998921,-124.0000083,1,0,0,response5disk,,3,-10.39993988,-0.800006449,1,0,0,rectangle,-10.39993988,-0.800006449,1,0,0,-10.39993988,-0.800006449,1,0,0,1,51,211,125,1,,,,,,,,
,,,,,,,,,,,,,FF,,,,,,,,0.9234,,,,,,,,,,,,,,,,,,,,,,60e4c5c835abaf843a61d5c9,60e564e770530c586f59d3cd,2021-07-07_10h30.59.528,Simcolourproject_2stim_asymm_v5,2020.2.10,Win32,60,60e52e7cfedb1dae636df45f,,,,,,,,,2491,48.80001217,-97.60005672,1,0,0,response3disk,,4,-3.199988604,14.39999378,1,0,0,rectangle,-3.199988604,14.39999378,1,0,0,-3.199988604,14.39999378,1,0,0,1,52,212,95,1,,,,,,,,
,,,,,,,,,,,,,FF,,,,,,,,1.522025,,,,,,,,,,,,,,,,,,,,,,60e4c5c835abaf843a61d5c9,60e564e770530c586f59d3cd,2021-07-07_10h30.59.528,Simcolourproject_2stim_asymm_v5,2020.2.10,Win32,60,60e52e7cfedb1dae636df45f,,,,,,,,,2691,106.400013,-48.00000715,1,0,0,response3disk,,5,1.14441E-05,15.9999938,1,0,0,rectangle,1.14441E-05,15.9999938,1,0,0,1.14441E-05,15.9999938,1,0,0,1,53,213,46,1,,,,,,,,
,,,,,,,,,,,,,FF,,,,,,,,1.19794,,,,,,,,,,,,,,,,,,,,,,60e4c5c835abaf843a61d5c9,60e564e770530c586f59d3cd,2021-07-07_10h30.59.528,Simcolourproject_2stim_asymm_v5,2020.2.10,Win32,60,60e52e7cfedb1dae636df45f,,,,,,,,,3542,76.00001258,20.79999387,1,0,0,response1disk,,6,-3.999988616,-6.4373E-06,1,0,0,rectangle,-3.999988616,-6.4373E-06,1,0,0,-3.999988616,-6.4373E-06,1,0,0,1,54,214,60,1,,,,,,,,
,,,,,,,,,,,,,FF,,,,,,,,1.955105,,,,,,,,,,,,,,,,,,,,,,60e4c5c835abaf843a61d5c9,60e564e770530c586f59d3cd,2021-07-07_10h30.59.528,Simcolourproject_2stim_asymm_v5,2020.2.10,Win32,60,60e52e7cfedb1dae636df45f,,,,,,,,,2972,-37.59998912,-98.4000079,1,0,0,response5disk,,3,-26.39994012,4.799993634,1,0,0,rectangle,-26.39994012,4.799993634,1,0,0,-26.39994012,4.799993634,1,0,0,1,55,215,66,1,,,,,,,,
,,,,,,,,,,,,,FF,,,,,,,,1.37204,,,,,,,,,,,,,,,,,,,,,,60e4c5c835abaf843a61d5c9,60e564e770530c586f59d3cd,2021-07-07_10h30.59.528,Simcolourproject_2stim_asymm_v5,2020.2.10,Win32,60,60e52e7cfedb1dae636df45f,,,,,,,,,3034,39.20001203,-101.6000568,1,0,0,response3disk,,4,-19.19998884,7.999993682,1,0,0,rectangle,-19.19998884,7.999993682,1,0,0,-19.19998884,7.999993682,1,0,0,1,56,216,110,1,,,,,,,,
,,,,,,,,,,,,,FF,,,,,,,,2.122045,,,,,,,,,,,,,,,,,,,,,,60e4c5c835abaf843a61d5c9,60e564e770530c586f59d3cd,2021-07-07_10h30.59.528,Simcolourproject_2stim_asymm_v5,2020.2.10,Win32,60,60e52e7cfedb1dae636df45f,,,,,,,,,684,-39.19998914,-111.2000081,1,0,0,response5disk,,3,-2.399939764,1.599993587,1,0,0,rectangle,-2.399939764,1.599993587,1,0,0,-2.399939764,1.599993587,1,0,0,1,57,217,45,1,,,,,,,,
,,,,,,,,,,,,,FF,,,,,,,,2.76151,,,,,,,,,,,,,,,,,,,,,,60e4c5c835abaf843a61d5c9,60e564e770530c586f59d3cd,2021-07-07_10h30.59.528,Simcolourproject_2stim_asymm_v5,2020.2.10,Win32,60,60e52e7cfedb1dae636df45f,,,,,,,,,1328,47.20001215,-98.4000079,1,0,0,response3disk,,4,-11.19998872,13.59999377,1,0,0,rectangle,-11.19998872,13.59999377,1,0,0,-11.19998872,13.59999377,1,0,0,1,58,218,140,1,,,,,,,,
,,,,,,,,,,,,,FF,,,,,,,,1.822305,,,,,,,,,,,,,,,,,,,,,,60e4c5c835abaf843a61d5c9,60e564e770530c586f59d3cd,2021-07-07_10h30.59.528,Simcolourproject_2stim_asymm_v5,2020.2.10,Win32,60,60e52e7cfedb1dae636df45f,,,,,,,,,1804,95.20001286,-66.40000743,1,0,0,response3disk,,5,8.800011575,3.999993622,1,0,0,rectangle,8.800011575,3.999993622,1,0,0,8.800011575,3.999993622,1,0,0,1,59,219,44,1,,,,,,,,
,,,,,,,,,,,,,FF,,,,,,,,0.69893,,,,,,,,,,,,,,,,,,,,,,60e4c5c835abaf843a61d5c9,60e564e770530c586f59d3cd,2021-07-07_10h30.59.528,Simcolourproject_2stim_asymm_v5,2020.2.10,Win32,60,60e52e7cfedb1dae636df45f,,,,,,,,,4201,-96.79999,42.39999419,1,0,0,response7disk,,1,17.60006053,5.599993646,1,0,0,rectangle,17.60006053,5.599993646,1,0,0,17.60006053,5.599993646,1,0,0,1,60,220,16,1,,,,,,,,
,,,,,,,,,,,,,FF,,,,,,,,1.18171,,,,,,,,,,,,,,,,,,,,,,60e4c5c835abaf843a61d5c9,60e564e770530c586f59d3cd,2021-07-07_10h30.59.528,Simcolourproject_2stim_asymm_v5,2020.2.10,Win32,60,60e52e7cfedb1dae636df45f,,,,,,,,,1814,-75.19998968,29.599994,1,0,0,response7disk,,1,3.200011492,-0.800006449,1,0,0,rectangle,3.200011492,-0.800006449,1,0,0,3.200011492,-0.800006449,1,0,0,1,61,221,153,1,,,,,,,,
,,,,,,,,,,,,,FF,,,,,,,,1.66354,,,,,,,,,,,,,,,,,,,,,,60e4c5c835abaf843a61d5c9,60e564e770530c586f59d3cd,2021-07-07_10h30.59.528,Simcolourproject_2stim_asymm_v5,2020.2.10,Win32,60,60e52e7cfedb1dae636df45f,,,,,,,,,2138,65.60001242,21.59999388,1,0,0,response1disk,,6,-1.59998858,0.799993575,1,0,0,rectangle,75.20001256,48.79999429,1,0,0,20.80001175,4.799993634,1,0,0,1,62,222,37,1,,response1disk_3,TRUE,6,6,"[61,71,162,81,74,138,69,267,168,181,101,48,100,4,108,227,190,38,223,39]",1.723215,rectangle
,,,,,,,,,,,,,FF,,,,,,,,2.9031,,,,,,,,,,,,,,,,,,,,,,60e4c5c835abaf843a61d5c9,60e564e770530c586f59d3cd,2021-07-07_10h30.59.528,Simcolourproject_2stim_asymm_v5,2020.2.10,Win32,60,60e52e7cfedb1dae636df45f,,,,,,,,,3370,40.80001205,-82.40000767,1,0,0,response3disk,,4,-21.59998888,3.999993622,1,0,0,rectangle,-21.59998888,3.999993622,1,0,0,-21.59998888,3.999993622,1,0,0,1,63,223,74,1,,,,,,,,
,,,,,,,,,,,,,FF,,,,,,,,0.99819,,,,,,,,,,,,,,,,,,,,,,60e4c5c835abaf843a61d5c9,60e564e770530c586f59d3cd,2021-07-07_10h30.59.528,Simcolourproject_2stim_asymm_v5,2020.2.10,Win32,60,60e52e7cfedb1dae636df45f,,,,,,,,,2268,52.00001222,-100.0000079,1,0,0,response3disk,,4,-23.1999889,0.799993575,1,0,0,rectangle,-23.1999889,0.799993575,1,0,0,-23.1999889,0.799993575,1,0,0,1,64,224,139,1,,,,,,,,
,,,,,,,,,,,,,FF,,,,,,,,0.78491,,,,,,,,,,,,,,,,,,,,,,60e4c5c835abaf843a61d5c9,60e564e770530c586f59d3cd,2021-07-07_10h30.59.528,Simcolourproject_2stim_asymm_v5,2020.2.10,Win32,60,60e52e7cfedb1dae636df45f,,,,,,,,,669,108.0000131,-52.80000722,1,0,0,response3disk,,5,-7.999988675,9.599993706,1,0,0,rectangle,-7.999988675,9.599993706,1,0,0,-7.999988675,9.599993706,1,0,0,1,65,225,5,1,,,,,,,,
,,,,,,,,,,,,,FF,,,,,,,,1.24775,,,,,,,,,,,,,,,,,,,,,,60e4c5c835abaf843a61d5c9,60e564e770530c586f59d3cd,2021-07-07_10h30.59.528,Simcolourproject_2stim_asymm_v5,2020.2.10,Win32,60,60e52e7cfedb1dae636df45f,,,,,,,,,1534,-90.39994107,31.99999404,1,0,0,response7disk,,1,-2.399939764,-6.400006533,1,0,0,rectangle,-89.59998989,31.99999404,1,0,0,-4.799988627,5.599993646,1,0,0,1,66,226,67,1,,response7disk_3,TRUE,1,1,"[61,71,162,81,74,138,69,267,168,181,101,48,100,4,108,227,190,38,223,39]",1.05624,rectangle
,,,,,,,,,,,,,FF,,,,,,,,3.16875,,,,,,,,,,,,,,,,,,,,,,60e4c5c835abaf843a61d5c9,60e564e770530c586f59d3cd,2021-07-07_10h30.59.528,Simcolourproject_2stim_asymm_v5,2020.2.10,Win32,60,60e52e7cfedb1dae636df45f,,,,,,,,,18,-46.39994042,-95.20000786,1,0,0,response5disk,,3,-13.59998876,2.399993598,1,0,0,rectangle,-13.59998876,2.399993598,1,0,0,-13.59998876,2.399993598,1,0,0,1,67,227,141,1,,,,,,,,
,,,,,,,,,,,,,FF,,,,,,,,3.801725,,,,,,,,,,,,,,,,,,,,,,60e4c5c835abaf843a61d5c9,60e564e770530c586f59d3cd,2021-07-07_10h30.59.528,Simcolourproject_2stim_asymm_v5,2020.2.10,Win32,60,60e52e7cfedb1dae636df45f,,,,,,,,,3423,111.2000131,58.39999443,1,0,0,response1disk,,6,16.80001169,-9.60000658,1,0,0,rectangle,16.80001169,-9.60000658,1,0,0,16.80001169,-9.60000658,1,0,0,1,68,228,34,1,,,,,,,,
,,,,,,,,,,,,,FF,,,,,,,,1.97208,,,,,,,,,,,,,,,,,,,,,,60e4c5c835abaf843a61d5c9,60e564e770530c586f59d3cd,2021-07-07_10h30.59.528,Simcolourproject_2stim_asymm_v5,2020.2.10,Win32,60,60e52e7cfedb1dae636df45f,,,,,,,,,1897,-89.59998989,-62.40000737,1,0,0,response5disk,,2,-12.79998875,3.999993622,1,0,0,rectangle,-12.79998875,3.999993622,1,0,0,-12.79998875,3.999993622,1,0,0,1,69,229,26,1,,,,,,,,
,,,,,,,,,,,,,FF,,,,,,,,1.43237,,,,,,,,,,,,,,,,,,,,,,60e4c5c835abaf843a61d5c9,60e564e770530c586f59d3cd,2021-07-07_10h30.59.528,Simcolourproject_2stim_asymm_v5,2020.2.10,Win32,60,60e52e7cfedb1dae636df45f,,,,,,,,,2500,84.0000127,-43.20000708,1,0,0,response3disk,,5,-11.99998873,5.599993646,1,0,0,rectangle,-11.99998873,5.599993646,1,0,0,-11.99998873,5.599993646,1,0,0,1,70,230,31,1,,,,,,,,
,,,,,,,,,,,,,FF,,,,,,,,3.12829,,,,,,,,,,,,,,,,,,,,,,60e4c5c835abaf843a61d5c9,60e564e770530c586f59d3cd,2021-07-07_10h30.59.528,Simcolourproject_2stim_asymm_v5,2020.2.10,Win32,60,60e52e7cfedb1dae636df45f,,,,,,,,,661,99.20001292,-42.40000707,1,0,0,response3disk,,5,5.600060356,-6.400006533,1,0,0,rectangle,5.600060356,-6.400006533,1,0,0,5.600060356,-6.400006533,1,0,0,1,71,231,41,1,,,,,,,,
,,,,,,,,,,,,,FF,,,,,,,,1.463915,,,,,,,,,,,,,,,,,,,,,,60e4c5c835abaf843a61d5c9,60e564e770530c586f59d3cd,2021-07-07_10h30.59.528,Simcolourproject_2stim_asymm_v5,2020.2.10,Win32,60,60e52e7cfedb1dae636df45f,,,,,,,,,477,-75.19998968,-40.80000705,1,0,0,response5disk,,2,-2.399939764,-4.000006497,1,0,0,rectangle,-2.399939764,-4.000006497,1,0,0,-2.399939764,-4.000006497,1,0,0,1,72,232,71,1,,,,,,,,
,,,,,,,,,,,,,FF,,,,,,,,2.78657,,,,,,,,,,,,,,,,,,,,,,60e4c5c835abaf843a61d5c9,60e564e770530c586f59d3cd,2021-07-07_10h30.59.528,Simcolourproject_2stim_asymm_v5,2020.2.10,Win32,60,60e52e7cfedb1dae636df45f,,,,,,,,,4324,70.40001249,-101.6000568,1,0,0,response3disk,,4,-6.399939823,-6.4373E-06,1,0,0,rectangle,-6.399939823,-6.4373E-06,1,0,0,-6.399939823,-6.4373E-06,1,0,0,1,73,233,99,1,,,,,,,,
,,,,,,,,,,,,,FF,,,,,,,,2.30296,,,,,,,,,,,,,,,,,,,,,,60e4c5c835abaf843a61d5c9,60e564e770530c586f59d3cd,2021-07-07_10h30.59.528,Simcolourproject_2stim_asymm_v5,2020.2.10,Win32,60,60e52e7cfedb1dae636df45f,,,,,,,,,3643,-81.59998977,-36.00000697,1,0,0,response5disk,,2,-25.59998894,-2.400006473,1,0,0,rectangle,-25.59998894,-2.400006473,1,0,0,-25.59998894,-2.400006473,1,0,0,1,74,234,97,1,,,,,,,,
,,,,,,,,,,,,,FF,,,,,,,,1.06662,,,,,,,,,,,,,,,,,,,,,,60e4c5c835abaf843a61d5c9,60e564e770530c586f59d3cd,2021-07-07_10h30.59.528,Simcolourproject_2stim_asymm_v5,2020.2.10,Win32,60,60e52e7cfedb1dae636df45f,,,,,,,,,2305,-43.1999892,-98.4000079,1,0,0,response5disk,,3,-7.199988663,1.599993587,1,0,0,rectangle,-7.199988663,1.599993587,1,0,0,-7.199988663,1.599993587,1,0,0,1,75,235,3,1,,,,,,,,
,,,,,,,,,,,,,FF,,,,,,,,1.82975,,,,,,,,,,,,,,,,,,,,,,60e4c5c835abaf843a61d5c9,60e564e770530c586f59d3cd,2021-07-07_10h30.59.528,Simcolourproject_2stim_asymm_v5,2020.2.10,Win32,60,60e52e7cfedb1dae636df45f,,,,,,,,,743,40.80001205,-87.20000774,1,0,0,response3disk,,4,12.80001163,1.599993587,1,0,0,rectangle,12.80001163,1.599993587,1,0,0,12.80001163,1.599993587,1,0,0,1,76,236,4,1,,,,,,,,
,,,,,,,,,,,,,FF,,,,,,,,1.846305,,,,,,,,,,,,,,,,,,,,,,60e4c5c835abaf843a61d5c9,60e564e770530c586f59d3cd,2021-07-07_10h30.59.528,Simcolourproject_2stim_asymm_v5,2020.2.10,Win32,60,60e52e7cfedb1dae636df45f,,,,,,,,,3417,108.0000131,45.59999424,1,0,0,response1disk,,6,6.400011539,-13.60000664,1,0,0,rectangle,6.400011539,-13.60000664,1,0,0,6.400011539,-13.60000664,1,0,0,1,77,237,111,1,,,,,,,,
,,,,,,,,,,,,,FF,,,,,,,,4.075945,,,,,,,,,,,,,,,,,,,,,,60e4c5c835abaf843a61d5c9,60e564e770530c586f59d3cd,2021-07-07_10h30.59.528,Simcolourproject_2stim_asymm_v5,2020.2.10,Win32,60,60e52e7cfedb1dae636df45f,,,,,,,,,464,-78.3999409,36.79999411,1,0,0,response7disk,,1,-18.39994,8.799993694,1,0,0,rectangle,-18.39994,8.799993694,1,0,0,-18.39994,8.799993694,1,0,0,1,78,238,116,1,,,,,,,,
,,,,,,,,,,,,,FF,,,,,,,,1.20606,,,,,,,,,,,,,,,,,,,,,,60e4c5c835abaf843a61d5c9,60e564e770530c586f59d3cd,2021-07-07_10h30.59.528,Simcolourproject_2stim_asymm_v5,2020.2.10,Win32,60,60e52e7cfedb1dae636df45f,,,,,,,,,2928,52.80001223,-71.2000075,1,0,0,response3disk,,4,9.600060415,-10.40000659,1,0,0,rectangle,9.600060415,-10.40000659,1,0,0,9.600060415,-10.40000659,1,0,0,1,79,239,149,1,,,,,,,,
,,,,,,,,,,,,,FF,,,,,,,,1.45581,,,,,,,,,,,,,,,,,,,,,,60e4c5c835abaf843a61d5c9,60e564e770530c586f59d3cd,2021-07-07_10h30.59.528,Simcolourproject_2stim_asymm_v5,2020.2.10,Win32,60,60e52e7cfedb1dae636df45f,,,,,,,,,668,84.80001271,44.79999423,1,0,0,response1disk,,6,21.60006059,-6.4373E-06,1,0,0,rectangle,21.60006059,-6.4373E-06,1,0,0,21.60006059,-6.4373E-06,1,0,0,1,80,240,102,1,,,,,,,,
