key_resp.keys,key_resp.rt,key_resp_14.keys,key_resp_14.rt,key_resp_15.keys,key_resp_15.rt,key_resp_17.keys,key_resp_17.rt,key_resp_9.keys,key_resp_9.rt,key_resp_10.keys,key_resp_10.rt,practice_comparison,Ecc,mouse_5.x,mouse_5.y,mouse_5.leftButton,mouse_5.midButton,mouse_5.rightButton,mouse_5.clicked_name,pracsimilarity,response_time,mouse_10.x,mouse_10.y,mouse_10.leftButton,mouse_10.midButton,mouse_10.rightButton,mouse_10.clicked_name,mouse_7.x,mouse_7.y,mouse_7.leftButton,mouse_7.midButton,mouse_7.rightButton,mouse_6.x,mouse_6.y,mouse_6.leftButton,mouse_6.midButton,mouse_6.rightButton,duringprac.thisRepN,duringprac.thisTrialN,duringprac.thisN,duringprac.thisIndex,duringprac.ran,participant,session,date,expName,psychopyVersion,OS,frameRate,study_id,mouse_7.clicked_name,catchpracsimilarity,catch_response_time,catchnumberprac,catchtrialorderprac,mouse_6.clicked_name,key_resp_22.keys,key_resp_22.rt,realcomparison,mouse.x,mouse.y,mouse.leftButton,mouse.midButton,mouse.rightButton,mouse.clicked_name,Colour2,similarity,mouse_2.x,mouse_2.y,mouse_2.leftButton,mouse_2.midButton,mouse_2.rightButton,mouse_2.clicked_name,mouse_3.x,mouse_3.y,mouse_3.leftButton,mouse_3.midButton,mouse_3.rightButton,mouse_11.x,mouse_11.y,mouse_11.leftButton,mouse_11.midButton,mouse_11.rightButton,trials_2.thisRepN,trials_2.thisTrialN,trials_2.thisN,trials_2.thisIndex,trials_2.ran,Colour1,mouse_3.clicked_name,catchornah,catchsimilarity,catchnumber,catchtrialorder,catchRT,mouse_11.clicked_name
space,3.5489,space,279.1635,space,24.2376,space,11.4794,space,0.8176,space,3.7882,138,FF,-19,-54,1,0,0,response5disk_5,3,2.2352,1,0,1,0,0,rectangle_8,1,0,1,0,0,1,0,1,0,0,0,0,0,5,1,60e55bb59cfd0aa9803b4470,60e562e617f6596bf5caa8e7,2021-07-07_09h17.10.521,Simcolourproject_2stim_asymm_v5,2020.2.10,Win32,60,60e52e7cfedb1dae636df45f,,,,,,,,,,,,,,,,,,,,,,,,,,,,,,,,,,,,,,,,,,,,,,
,,,,,,,,,,,,125,PF,-23,62,1,0,0,response7disk_5,0,1.9982,-6,4,1,0,0,rectangle_8,-23,-49,1,0,0,-2,-1,1,0,0,0,1,1,4,1,60e55bb59cfd0aa9803b4470,60e562e617f6596bf5caa8e7,2021-07-07_09h17.10.521,Simcolourproject_2stim_asymm_v5,2020.2.10,Win32,60,60e52e7cfedb1dae636df45f,response5disk_7,3,3.131,3,"[2,5]",rectangle_4,,,,,,,,,,,,,,,,,,,,,,,,,,,,,,,,,,,,,,,,
,,,,,,,,,,,,147,FF,33,-53,1,0,0,response3disk_5,4,3.8139,0,-1,1,0,0,rectangle_8,0,-1,1,0,0,0,-1,1,0,0,0,2,2,3,1,60e55bb59cfd0aa9803b4470,60e562e617f6596bf5caa8e7,2021-07-07_09h17.10.521,Simcolourproject_2stim_asymm_v5,2020.2.10,Win32,60,60e52e7cfedb1dae636df45f,,,,,,,,,,,,,,,,,,,,,,,,,,,,,,,,,,,,,,,,,,,,,,
,,,,,,,,,,,,71,FF,-39,67,1,0,0,response7disk_5,0,1.965,2,-3,1,0,0,rectangle_8,2,-3,1,0,0,2,-3,1,0,0,0,3,3,0,1,60e55bb59cfd0aa9803b4470,60e562e617f6596bf5caa8e7,2021-07-07_09h17.10.521,Simcolourproject_2stim_asymm_v5,2020.2.10,Win32,60,60e52e7cfedb1dae636df45f,,,,,,,,,,,,,,,,,,,,,,,,,,,,,,,,,,,,,,,,,,,,,,
,,,,,,,,,,,,114,PF,67,-20,1,0,0,response3disk_5,5,3.6308,-2,0,1,0,0,rectangle_8,-30,-57,1,0,0,-3,1,1,0,0,0,4,4,1,1,60e55bb59cfd0aa9803b4470,60e562e617f6596bf5caa8e7,2021-07-07_09h17.10.521,Simcolourproject_2stim_asymm_v5,2020.2.10,Win32,60,60e52e7cfedb1dae636df45f,response5disk_7,3,1.8157,3,"[2,5]",rectangle_4,,,,,,,,,,,,,,,,,,,,,,,,,,,,,,,,,,,,,,,,
,,,,,,,,,,,,37,PF,-18,-55,1,0,0,response5disk_5,3,1.9702,-2,2,1,0,0,rectangle_8,-2,2,1,0,0,-2,2,1,0,0,0,5,5,6,1,60e55bb59cfd0aa9803b4470,60e562e617f6596bf5caa8e7,2021-07-07_09h17.10.521,Simcolourproject_2stim_asymm_v5,2020.2.10,Win32,60,60e52e7cfedb1dae636df45f,,,,,,,,,,,,,,,,,,,,,,,,,,,,,,,,,,,,,,,,,,,,,,
,,,,,,,,,,,,127,PF,-68,21,1,0,0,response7disk_5,1,2.3191,1,-4,1,0,0,rectangle_8,1,-4,1,0,0,1,-4,1,0,0,0,6,6,2,1,60e55bb59cfd0aa9803b4470,60e562e617f6596bf5caa8e7,2021-07-07_09h17.10.521,Simcolourproject_2stim_asymm_v5,2020.2.10,Win32,60,60e52e7cfedb1dae636df45f,,,,,,,,,,,,,,,,,,,,,,,,,,,,,,,,,,,,,,,,,,,,,,
,,,,,,,,,,,,,FF,,,,,,,,1.8862,,,,,,,,,,,,,,,,,,,,,,60e55bb59cfd0aa9803b4470,60e562e617f6596bf5caa8e7,2021-07-07_09h17.10.521,Simcolourproject_2stim_asymm_v5,2020.2.10,Win32,60,60e52e7cfedb1dae636df45f,,,,,,,space,2.7194,1188,-42,-19,1,0,0,response5disk,,2,0,2,1,0,0,rectangle,0,2,1,0,0,0,2,1,0,0,0,0,0,51,1,,,,,,,,
,,,,,,,,,,,,,FF,,,,,,,,1.219,,,,,,,,,,,,,,,,,,,,,,60e55bb59cfd0aa9803b4470,60e562e617f6596bf5caa8e7,2021-07-07_09h17.10.521,Simcolourproject_2stim_asymm_v5,2020.2.10,Win32,60,60e52e7cfedb1dae636df45f,,,,,,,,,3101,58,16,1,0,0,response1disk,,6,0,-4,1,0,0,rectangle,-29,55,1,0,0,-3,-1,1,0,0,0,1,1,110,1,,response7disk_3,TRUE,0,0,"[227,109,220,264,25,115,209,17,131,38,47,2,15,3,300,53,195,309,281,220]",1.8693,rectangle
,,,,,,,,,,,,,FF,,,,,,,,1.5321,,,,,,,,,,,,,,,,,,,,,,60e55bb59cfd0aa9803b4470,60e562e617f6596bf5caa8e7,2021-07-07_09h17.10.521,Simcolourproject_2stim_asymm_v5,2020.2.10,Win32,60,60e52e7cfedb1dae636df45f,,,,,,,,,1571,-42,-15,1,0,0,response5disk,,2,-1,-2,1,0,0,rectangle,-25,54,1,0,0,-4,1,1,0,0,0,2,2,153,1,,response7disk_3,TRUE,0,0,"[227,109,220,264,25,115,209,17,131,38,47,2,15,3,300,53,195,309,281,220]",1.1157,rectangle
,,,,,,,,,,,,,FF,,,,,,,,2.2985,,,,,,,,,,,,,,,,,,,,,,60e55bb59cfd0aa9803b4470,60e562e617f6596bf5caa8e7,2021-07-07_09h17.10.521,Simcolourproject_2stim_asymm_v5,2020.2.10,Win32,60,60e52e7cfedb1dae636df45f,,,,,,,,,3207,-33,-60,1,0,0,response5disk,,3,1,-2,1,0,0,rectangle,1,-2,1,0,0,1,-2,1,0,0,0,3,3,94,1,,,,,,,,
,,,,,,,,,,,,,FF,,,,,,,,1.9172,,,,,,,,,,,,,,,,,,,,,,60e55bb59cfd0aa9803b4470,60e562e617f6596bf5caa8e7,2021-07-07_09h17.10.521,Simcolourproject_2stim_asymm_v5,2020.2.10,Win32,60,60e52e7cfedb1dae636df45f,,,,,,,,,2261,-21,-46,1,0,0,response5disk,,3,0,-1,1,0,0,rectangle,0,-1,1,0,0,0,-1,1,0,0,0,4,4,60,1,,,,,,,,
,,,,,,,,,,,,,FF,,,,,,,,4.5292,,,,,,,,,,,,,,,,,,,,,,60e55bb59cfd0aa9803b4470,60e562e617f6596bf5caa8e7,2021-07-07_09h17.10.521,Simcolourproject_2stim_asymm_v5,2020.2.10,Win32,60,60e52e7cfedb1dae636df45f,,,,,,,,,833,-15,-57,1,0,0,response5disk,,3,-1,-4,1,0,0,rectangle,-1,-4,1,0,0,-1,-4,1,0,0,0,5,5,88,1,,,,,,,,
,,,,,,,,,,,,,FF,,,,,,,,1.2011,,,,,,,,,,,,,,,,,,,,,,60e55bb59cfd0aa9803b4470,60e562e617f6596bf5caa8e7,2021-07-07_09h17.10.521,Simcolourproject_2stim_asymm_v5,2020.2.10,Win32,60,60e52e7cfedb1dae636df45f,,,,,,,,,4340,37,-23,1,0,0,response3disk,,5,-4,-2,1,0,0,rectangle,-4,-2,1,0,0,-4,-2,1,0,0,0,6,6,144,1,,,,,,,,
,,,,,,,,,,,,,FF,,,,,,,,2.386,,,,,,,,,,,,,,,,,,,,,,60e55bb59cfd0aa9803b4470,60e562e617f6596bf5caa8e7,2021-07-07_09h17.10.521,Simcolourproject_2stim_asymm_v5,2020.2.10,Win32,60,60e52e7cfedb1dae636df45f,,,,,,,,,1706,-53,18,1,0,0,response7disk,,1,4,-5,1,0,0,rectangle,4,-5,1,0,0,4,-5,1,0,0,0,7,7,95,1,,,,,,,,
,,,,,,,,,,,,,FF,,,,,,,,0.951,,,,,,,,,,,,,,,,,,,,,,60e55bb59cfd0aa9803b4470,60e562e617f6596bf5caa8e7,2021-07-07_09h17.10.521,Simcolourproject_2stim_asymm_v5,2020.2.10,Win32,60,60e52e7cfedb1dae636df45f,,,,,,,,,331,-44,20,1,0,0,response7disk,,1,-3,1,1,0,0,rectangle,-3,1,1,0,0,-3,1,1,0,0,0,8,8,17,1,,,,,,,,
,,,,,,,,,,,,,FF,,,,,,,,1.7989,,,,,,,,,,,,,,,,,,,,,,60e55bb59cfd0aa9803b4470,60e562e617f6596bf5caa8e7,2021-07-07_09h17.10.521,Simcolourproject_2stim_asymm_v5,2020.2.10,Win32,60,60e52e7cfedb1dae636df45f,,,,,,,,,3307,-52,-19,1,0,0,response5disk,,2,-1,0,1,0,0,rectangle,-1,0,1,0,0,-1,0,1,0,0,0,9,9,115,1,,,,,,,,
,,,,,,,,,,,,,FF,,,,,,,,1.5025,,,,,,,,,,,,,,,,,,,,,,60e55bb59cfd0aa9803b4470,60e562e617f6596bf5caa8e7,2021-07-07_09h17.10.521,Simcolourproject_2stim_asymm_v5,2020.2.10,Win32,60,60e52e7cfedb1dae636df45f,,,,,,,,,2050,-32,54,1,0,0,response7disk,,0,2,3,1,0,0,rectangle,2,3,1,0,0,2,3,1,0,0,0,10,10,90,1,,,,,,,,
,,,,,,,,,,,,,FF,,,,,,,,1.5686,,,,,,,,,,,,,,,,,,,,,,60e55bb59cfd0aa9803b4470,60e562e617f6596bf5caa8e7,2021-07-07_09h17.10.521,Simcolourproject_2stim_asymm_v5,2020.2.10,Win32,60,60e52e7cfedb1dae636df45f,,,,,,,,,1578,-53,-30,1,0,0,response5disk,,2,7,5,1,0,0,rectangle,7,5,1,0,0,7,5,1,0,0,0,11,11,45,1,,,,,,,,
,,,,,,,,,,,,,FF,,,,,,,,1.302,,,,,,,,,,,,,,,,,,,,,,60e55bb59cfd0aa9803b4470,60e562e617f6596bf5caa8e7,2021-07-07_09h17.10.521,Simcolourproject_2stim_asymm_v5,2020.2.10,Win32,60,60e52e7cfedb1dae636df45f,,,,,,,,,2638,-64,18,1,0,0,response7disk,,1,-1,1,1,0,0,rectangle,-1,1,1,0,0,-1,1,1,0,0,0,12,12,104,1,,,,,,,,
,,,,,,,,,,,,,FF,,,,,,,,1.3488,,,,,,,,,,,,,,,,,,,,,,60e55bb59cfd0aa9803b4470,60e562e617f6596bf5caa8e7,2021-07-07_09h17.10.521,Simcolourproject_2stim_asymm_v5,2020.2.10,Win32,60,60e52e7cfedb1dae636df45f,,,,,,,,,3819,44,-25,1,0,0,response3disk,,5,1,-5,1,0,0,rectangle,1,-5,1,0,0,1,-5,1,0,0,0,13,13,64,1,,,,,,,,
,,,,,,,,,,,,,FF,,,,,,,,1.7156,,,,,,,,,,,,,,,,,,,,,,60e55bb59cfd0aa9803b4470,60e562e617f6596bf5caa8e7,2021-07-07_09h17.10.521,Simcolourproject_2stim_asymm_v5,2020.2.10,Win32,60,60e52e7cfedb1dae636df45f,,,,,,,,,3031,-43,31,1,0,0,response7disk,,1,3,1,1,0,0,rectangle,61,30,1,0,0,-8,0,1,0,0,0,14,14,61,1,,response1disk_3,TRUE,6,6,"[227,109,220,264,25,115,209,17,131,38,47,2,15,3,300,53,195,309,281,220]",1.4656,rectangle
,,,,,,,,,,,,,FF,,,,,,,,0.9488,,,,,,,,,,,,,,,,,,,,,,60e55bb59cfd0aa9803b4470,60e562e617f6596bf5caa8e7,2021-07-07_09h17.10.521,Simcolourproject_2stim_asymm_v5,2020.2.10,Win32,60,60e52e7cfedb1dae636df45f,,,,,,,,,732,38,25,1,0,0,response1disk,,6,-7,-2,1,0,0,rectangle,-7,-2,1,0,0,-7,-2,1,0,0,0,15,15,28,1,,,,,,,,
,,,,,,,,,,,,,FF,,,,,,,,1.1474,,,,,,,,,,,,,,,,,,,,,,60e55bb59cfd0aa9803b4470,60e562e617f6596bf5caa8e7,2021-07-07_09h17.10.521,Simcolourproject_2stim_asymm_v5,2020.2.10,Win32,60,60e52e7cfedb1dae636df45f,,,,,,,,,1464,36,57,1,0,0,response1disk,,7,-3,-3,1,0,0,rectangle,40,-21,1,0,0,-6,3,1,0,0,0,16,16,150,1,,response3disk_3,TRUE,5,5,"[227,109,220,264,25,115,209,17,131,38,47,2,15,3,300,53,195,309,281,220]",1.6487,rectangle
,,,,,,,,,,,,,FF,,,,,,,,1.1817,,,,,,,,,,,,,,,,,,,,,,60e55bb59cfd0aa9803b4470,60e562e617f6596bf5caa8e7,2021-07-07_09h17.10.521,Simcolourproject_2stim_asymm_v5,2020.2.10,Win32,60,60e52e7cfedb1dae636df45f,,,,,,,,,3540,-49,-19,1,0,0,response5disk,,2,0,0,1,0,0,rectangle,0,0,1,0,0,0,0,1,0,0,0,17,17,102,1,,,,,,,,
,,,,,,,,,,,,,FF,,,,,,,,1.2823,,,,,,,,,,,,,,,,,,,,,,60e55bb59cfd0aa9803b4470,60e562e617f6596bf5caa8e7,2021-07-07_09h17.10.521,Simcolourproject_2stim_asymm_v5,2020.2.10,Win32,60,60e52e7cfedb1dae636df45f,,,,,,,,,4012,-32,60,1,0,0,response7disk,,0,-1,0,1,0,0,rectangle,-1,0,1,0,0,-1,0,1,0,0,0,18,18,158,1,,,,,,,,
,,,,,,,,,,,,,FF,,,,,,,,1.1496,,,,,,,,,,,,,,,,,,,,,,60e55bb59cfd0aa9803b4470,60e562e617f6596bf5caa8e7,2021-07-07_09h17.10.521,Simcolourproject_2stim_asymm_v5,2020.2.10,Win32,60,60e52e7cfedb1dae636df45f,,,,,,,,,3788,-53,-29,1,0,0,response5disk,,2,2,1,1,0,0,rectangle,2,1,1,0,0,2,1,1,0,0,0,19,19,116,1,,,,,,,,
,,,,,,,,,,,,,FF,,,,,,,,1.4323,,,,,,,,,,,,,,,,,,,,,,60e55bb59cfd0aa9803b4470,60e562e617f6596bf5caa8e7,2021-07-07_09h17.10.521,Simcolourproject_2stim_asymm_v5,2020.2.10,Win32,60,60e52e7cfedb1dae636df45f,,,,,,,,,3638,-47,34,1,0,0,response7disk,,1,-5,4,1,0,0,rectangle,-5,4,1,0,0,-5,4,1,0,0,0,20,20,0,1,,,,,,,,
,,,,,,,,,,,,,FF,,,,,,,,1.3999,,,,,,,,,,,,,,,,,,,,,,60e55bb59cfd0aa9803b4470,60e562e617f6596bf5caa8e7,2021-07-07_09h17.10.521,Simcolourproject_2stim_asymm_v5,2020.2.10,Win32,60,60e52e7cfedb1dae636df45f,,,,,,,,,1523,53,43,1,0,0,response1disk,,6,9,7,1,0,0,rectangle,9,7,1,0,0,9,7,1,0,0,0,21,21,3,1,,,,,,,,
,,,,,,,,,,,,,FF,,,,,,,,1.1016,,,,,,,,,,,,,,,,,,,,,,60e55bb59cfd0aa9803b4470,60e562e617f6596bf5caa8e7,2021-07-07_09h17.10.521,Simcolourproject_2stim_asymm_v5,2020.2.10,Win32,60,60e52e7cfedb1dae636df45f,,,,,,,,,3484,-39,-14,1,0,0,response5disk,,2,-2,2,1,0,0,rectangle,-2,2,1,0,0,-2,2,1,0,0,0,22,22,130,1,,,,,,,,
,,,,,,,,,,,,,FF,,,,,,,,1.2342,,,,,,,,,,,,,,,,,,,,,,60e55bb59cfd0aa9803b4470,60e562e617f6596bf5caa8e7,2021-07-07_09h17.10.521,Simcolourproject_2stim_asymm_v5,2020.2.10,Win32,60,60e52e7cfedb1dae636df45f,,,,,,,,,225,-29,50,1,0,0,response7disk,,0,1,0,1,0,0,rectangle,1,0,1,0,0,1,0,1,0,0,0,23,23,52,1,,,,,,,,
,,,,,,,,,,,,,FF,,,,,,,,1.0658,,,,,,,,,,,,,,,,,,,,,,60e55bb59cfd0aa9803b4470,60e562e617f6596bf5caa8e7,2021-07-07_09h17.10.521,Simcolourproject_2stim_asymm_v5,2020.2.10,Win32,60,60e52e7cfedb1dae636df45f,,,,,,,,,2624,-31,51,1,0,0,response7disk,,0,-5,6,1,0,0,rectangle,-15,-52,1,0,0,-3,-2,1,0,0,0,24,24,155,1,,response5disk_3,TRUE,3,3,"[227,109,220,264,25,115,209,17,131,38,47,2,15,3,300,53,195,309,281,220]",1.5487,rectangle
,,,,,,,,,,,,,FF,,,,,,,,1.6325,,,,,,,,,,,,,,,,,,,,,,60e55bb59cfd0aa9803b4470,60e562e617f6596bf5caa8e7,2021-07-07_09h17.10.521,Simcolourproject_2stim_asymm_v5,2020.2.10,Win32,60,60e52e7cfedb1dae636df45f,,,,,,,,,2713,69,28,1,0,0,response1disk,,6,10,5,1,0,0,rectangle,10,5,1,0,0,10,5,1,0,0,0,25,25,136,1,,,,,,,,
,,,,,,,,,,,,,FF,,,,,,,,1.399,,,,,,,,,,,,,,,,,,,,,,60e55bb59cfd0aa9803b4470,60e562e617f6596bf5caa8e7,2021-07-07_09h17.10.521,Simcolourproject_2stim_asymm_v5,2020.2.10,Win32,60,60e52e7cfedb1dae636df45f,,,,,,,,,2951,23,-49,1,0,0,response3disk,,4,-5,-1,1,0,0,rectangle,-5,-1,1,0,0,-5,-1,1,0,0,0,26,26,78,1,,,,,,,,
,,,,,,,,,,,,,FF,,,,,,,,1.3523,,,,,,,,,,,,,,,,,,,,,,60e55bb59cfd0aa9803b4470,60e562e617f6596bf5caa8e7,2021-07-07_09h17.10.521,Simcolourproject_2stim_asymm_v5,2020.2.10,Win32,60,60e52e7cfedb1dae636df45f,,,,,,,,,3064,-49,23,1,0,0,response7disk,,1,-3,-1,1,0,0,rectangle,-3,-1,1,0,0,-3,-1,1,0,0,0,27,27,123,1,,,,,,,,
,,,,,,,,,,,,,FF,,,,,,,,1.232,,,,,,,,,,,,,,,,,,,,,,60e55bb59cfd0aa9803b4470,60e562e617f6596bf5caa8e7,2021-07-07_09h17.10.521,Simcolourproject_2stim_asymm_v5,2020.2.10,Win32,60,60e52e7cfedb1dae636df45f,,,,,,,,,3594,-37,21,1,0,0,response7disk,,1,-5,1,1,0,0,rectangle,-5,1,1,0,0,-5,1,1,0,0,0,28,28,2,1,,,,,,,,
,,,,,,,,,,,,,FF,,,,,,,,0.7993,,,,,,,,,,,,,,,,,,,,,,60e55bb59cfd0aa9803b4470,60e562e617f6596bf5caa8e7,2021-07-07_09h17.10.521,Simcolourproject_2stim_asymm_v5,2020.2.10,Win32,60,60e52e7cfedb1dae636df45f,,,,,,,,,1506,-34,50,1,0,0,response7disk,,0,-3,2,1,0,0,rectangle,-3,2,1,0,0,-3,2,1,0,0,0,29,29,29,1,,,,,,,,
,,,,,,,,,,,,,FF,,,,,,,,1.4326,,,,,,,,,,,,,,,,,,,,,,60e55bb59cfd0aa9803b4470,60e562e617f6596bf5caa8e7,2021-07-07_09h17.10.521,Simcolourproject_2stim_asymm_v5,2020.2.10,Win32,60,60e52e7cfedb1dae636df45f,,,,,,,,,2031,41,40,1,0,0,response1disk,,6,-7,1,1,0,0,rectangle,-7,1,1,0,0,-7,1,1,0,0,0,30,30,121,1,,,,,,,,
,,,,,,,,,,,,,FF,,,,,,,,0.9369,,,,,,,,,,,,,,,,,,,,,,60e55bb59cfd0aa9803b4470,60e562e617f6596bf5caa8e7,2021-07-07_09h17.10.521,Simcolourproject_2stim_asymm_v5,2020.2.10,Win32,60,60e52e7cfedb1dae636df45f,,,,,,,,,513,-23,58,1,0,0,response7disk,,0,1,2,1,0,0,rectangle,1,2,1,0,0,1,2,1,0,0,0,31,31,112,1,,,,,,,,
,,,,,,,,,,,,,FF,,,,,,,,1.1661,,,,,,,,,,,,,,,,,,,,,,60e55bb59cfd0aa9803b4470,60e562e617f6596bf5caa8e7,2021-07-07_09h17.10.521,Simcolourproject_2stim_asymm_v5,2020.2.10,Win32,60,60e52e7cfedb1dae636df45f,,,,,,,,,986,33,-55,1,0,0,response3disk,,4,-6,-13,1,0,0,rectangle,-6,-13,1,0,0,-6,-13,1,0,0,0,32,32,15,1,,,,,,,,
,,,,,,,,,,,,,FF,,,,,,,,1.1823,,,,,,,,,,,,,,,,,,,,,,60e55bb59cfd0aa9803b4470,60e562e617f6596bf5caa8e7,2021-07-07_09h17.10.521,Simcolourproject_2stim_asymm_v5,2020.2.10,Win32,60,60e52e7cfedb1dae636df45f,,,,,,,,,471,-54,-25,1,0,0,response5disk,,2,-5,-3,1,0,0,rectangle,-5,-3,1,0,0,-5,-3,1,0,0,0,33,33,37,1,,,,,,,,
,,,,,,,,,,,,,FF,,,,,,,,2.0985,,,,,,,,,,,,,,,,,,,,,,60e55bb59cfd0aa9803b4470,60e562e617f6596bf5caa8e7,2021-07-07_09h17.10.521,Simcolourproject_2stim_asymm_v5,2020.2.10,Win32,60,60e52e7cfedb1dae636df45f,,,,,,,,,2715,79,34,1,0,0,response1disk,,6,-2,3,1,0,0,rectangle,-2,3,1,0,0,-2,3,1,0,0,0,34,34,10,1,,,,,,,,
,,,,,,,,,,,,,FF,,,,,,,,0.8159,,,,,,,,,,,,,,,,,,,,,,60e55bb59cfd0aa9803b4470,60e562e617f6596bf5caa8e7,2021-07-07_09h17.10.521,Simcolourproject_2stim_asymm_v5,2020.2.10,Win32,60,60e52e7cfedb1dae636df45f,,,,,,,,,1753,71,40,1,0,0,response1disk,,6,-3,7,1,0,0,rectangle,-3,7,1,0,0,-3,7,1,0,0,0,35,35,109,1,,,,,,,,
,,,,,,,,,,,,,FF,,,,,,,,0.9677,,,,,,,,,,,,,,,,,,,,,,60e55bb59cfd0aa9803b4470,60e562e617f6596bf5caa8e7,2021-07-07_09h17.10.521,Simcolourproject_2stim_asymm_v5,2020.2.10,Win32,60,60e52e7cfedb1dae636df45f,,,,,,,,,1400,-33,-25,1,0,0,response5disk,,2,-4,-2,1,0,0,rectangle,-4,-2,1,0,0,-4,-2,1,0,0,0,36,36,67,1,,,,,,,,
,,,,,,,,,,,,,FF,,,,,,,,1.5193,,,,,,,,,,,,,,,,,,,,,,60e55bb59cfd0aa9803b4470,60e562e617f6596bf5caa8e7,2021-07-07_09h17.10.521,Simcolourproject_2stim_asymm_v5,2020.2.10,Win32,60,60e52e7cfedb1dae636df45f,,,,,,,,,3231,-47,32,1,0,0,response7disk,,1,0,2,1,0,0,rectangle,-55,21,1,0,0,-4,1,1,0,0,0,37,37,79,1,,response7disk_3,TRUE,1,1,"[227,109,220,264,25,115,209,17,131,38,47,2,15,3,300,53,195,309,281,220]",1.2347,rectangle
,,,,,,,,,,,,,FF,,,,,,,,0.8011,,,,,,,,,,,,,,,,,,,,,,60e55bb59cfd0aa9803b4470,60e562e617f6596bf5caa8e7,2021-07-07_09h17.10.521,Simcolourproject_2stim_asymm_v5,2020.2.10,Win32,60,60e52e7cfedb1dae636df45f,,,,,,,,,1142,32,19,1,0,0,response1disk,,6,-6,-8,1,0,0,rectangle,-6,-8,1,0,0,-6,-8,1,0,0,0,38,38,140,1,,,,,,,,
,,,,,,,,,,,,,FF,,,,,,,,0.9174,,,,,,,,,,,,,,,,,,,,,,60e55bb59cfd0aa9803b4470,60e562e617f6596bf5caa8e7,2021-07-07_09h17.10.521,Simcolourproject_2stim_asymm_v5,2020.2.10,Win32,60,60e52e7cfedb1dae636df45f,,,,,,,,,1998,-56,-28,1,0,0,response5disk,,2,3,-4,1,0,0,rectangle,3,-4,1,0,0,3,-4,1,0,0,0,39,39,113,1,,,,,,,,
,,,,,,,,,,,,,FF,,,,,,,,1.4852,,,,,,,,,,,,,,,,,,,,,,60e55bb59cfd0aa9803b4470,60e562e617f6596bf5caa8e7,2021-07-07_09h17.10.521,Simcolourproject_2stim_asymm_v5,2020.2.10,Win32,60,60e52e7cfedb1dae636df45f,,,,,,,,,3752,-57,-25,1,0,0,response5disk,,2,-1,-2,1,0,0,rectangle,-1,-2,1,0,0,-1,-2,1,0,0,0,40,40,16,1,,,,,,,,
,,,,,,,,,,,,,FF,,,,,,,,0.7678,,,,,,,,,,,,,,,,,,,,,,60e55bb59cfd0aa9803b4470,60e562e617f6596bf5caa8e7,2021-07-07_09h17.10.521,Simcolourproject_2stim_asymm_v5,2020.2.10,Win32,60,60e52e7cfedb1dae636df45f,,,,,,,,,4257,-24,37,1,0,0,response7disk,,0,-1,-6,1,0,0,rectangle,-1,-6,1,0,0,-1,-6,1,0,0,0,41,41,103,1,,,,,,,,
,,,,,,,,,,,,,FF,,,,,,,,1.0486,,,,,,,,,,,,,,,,,,,,,,60e55bb59cfd0aa9803b4470,60e562e617f6596bf5caa8e7,2021-07-07_09h17.10.521,Simcolourproject_2stim_asymm_v5,2020.2.10,Win32,60,60e52e7cfedb1dae636df45f,,,,,,,,,1397,-40,15,1,0,0,response7disk,,1,-6,2,1,0,0,rectangle,-6,2,1,0,0,-6,2,1,0,0,0,42,42,13,1,,,,,,,,
,,,,,,,,,,,,,FF,,,,,,,,1.3989,,,,,,,,,,,,,,,,,,,,,,60e55bb59cfd0aa9803b4470,60e562e617f6596bf5caa8e7,2021-07-07_09h17.10.521,Simcolourproject_2stim_asymm_v5,2020.2.10,Win32,60,60e52e7cfedb1dae636df45f,,,,,,,,,1570,-20,40,1,0,0,response7disk,,0,2,4,1,0,0,rectangle,2,4,1,0,0,2,4,1,0,0,0,43,43,105,1,,,,,,,,
,,,,,,,,,,,,,FF,,,,,,,,1.2324,,,,,,,,,,,,,,,,,,,,,,60e55bb59cfd0aa9803b4470,60e562e617f6596bf5caa8e7,2021-07-07_09h17.10.521,Simcolourproject_2stim_asymm_v5,2020.2.10,Win32,60,60e52e7cfedb1dae636df45f,,,,,,,,,2804,-22,39,1,0,0,response7disk,,0,-3,3,1,0,0,rectangle,-3,3,1,0,0,-3,3,1,0,0,0,44,44,25,1,,,,,,,,
,,,,,,,,,,,,,FF,,,,,,,,1.2742,,,,,,,,,,,,,,,,,,,,,,60e55bb59cfd0aa9803b4470,60e562e617f6596bf5caa8e7,2021-07-07_09h17.10.521,Simcolourproject_2stim_asymm_v5,2020.2.10,Win32,60,60e52e7cfedb1dae636df45f,,,,,,,,,3006,46,-62,1,0,0,response3disk,,4,-9,-3,1,0,0,rectangle,-9,-3,1,0,0,-9,-3,1,0,0,0,45,45,69,1,,,,,,,,
,,,,,,,,,,,,,FF,,,,,,,,0.7993,,,,,,,,,,,,,,,,,,,,,,60e55bb59cfd0aa9803b4470,60e562e617f6596bf5caa8e7,2021-07-07_09h17.10.521,Simcolourproject_2stim_asymm_v5,2020.2.10,Win32,60,60e52e7cfedb1dae636df45f,,,,,,,,,3768,-47,-18,1,0,0,response5disk,,2,1,5,1,0,0,rectangle,73,-32,1,0,0,-2,1,1,0,0,0,46,46,89,1,,response3disk_3,TRUE,5,5,"[227,109,220,264,25,115,209,17,131,38,47,2,15,3,300,53,195,309,281,220]",1.4823,rectangle
,,,,,,,,,,,,,FF,,,,,,,,2.4197,,,,,,,,,,,,,,,,,,,,,,60e55bb59cfd0aa9803b4470,60e562e617f6596bf5caa8e7,2021-07-07_09h17.10.521,Simcolourproject_2stim_asymm_v5,2020.2.10,Win32,60,60e52e7cfedb1dae636df45f,,,,,,,,,3498,-41,24,1,0,0,response7disk,,1,0,-2,1,0,0,rectangle,0,-2,1,0,0,0,-2,1,0,0,0,47,47,138,1,,,,,,,,
,,,,,,,,,,,,,FF,,,,,,,,0.9016,,,,,,,,,,,,,,,,,,,,,,60e55bb59cfd0aa9803b4470,60e562e617f6596bf5caa8e7,2021-07-07_09h17.10.521,Simcolourproject_2stim_asymm_v5,2020.2.10,Win32,60,60e52e7cfedb1dae636df45f,,,,,,,,,1444,-17,44,1,0,0,response7disk,,0,-4,-4,1,0,0,rectangle,-4,-4,1,0,0,-4,-4,1,0,0,0,48,48,76,1,,,,,,,,
,,,,,,,,,,,,,FF,,,,,,,,1.1161,,,,,,,,,,,,,,,,,,,,,,60e55bb59cfd0aa9803b4470,60e562e617f6596bf5caa8e7,2021-07-07_09h17.10.521,Simcolourproject_2stim_asymm_v5,2020.2.10,Win32,60,60e52e7cfedb1dae636df45f,,,,,,,,,2090,-30,-43,1,0,0,response5disk,,3,-3,-1,1,0,0,rectangle,-3,-1,1,0,0,-3,-1,1,0,0,0,49,49,23,1,,,,,,,,
,,,,,,,,,,,,,FF,,,,,,,,1.2992,,,,,,,,,,,,,,,,,,,,,,60e55bb59cfd0aa9803b4470,60e562e617f6596bf5caa8e7,2021-07-07_09h17.10.521,Simcolourproject_2stim_asymm_v5,2020.2.10,Win32,60,60e52e7cfedb1dae636df45f,,,,,,,,,4192,-51,16,1,0,0,response7disk,,1,-4,-3,1,0,0,rectangle,-4,-3,1,0,0,-4,-3,1,0,0,0,50,50,54,1,,,,,,,,
,,,,,,,,,,,,,FF,,,,,,,,1.4416,,,,,,,,,,,,,,,,,,,,,,60e55bb59cfd0aa9803b4470,60e562e617f6596bf5caa8e7,2021-07-07_09h17.10.521,Simcolourproject_2stim_asymm_v5,2020.2.10,Win32,60,60e52e7cfedb1dae636df45f,,,,,,,,,2048,-40,-12,1,0,0,response5disk,,2,-2,-2,1,0,0,rectangle,-2,-2,1,0,0,-2,-2,1,0,0,0,51,51,149,1,,,,,,,,
,,,,,,,,,,,,,FF,,,,,,,,0.7498,,,,,,,,,,,,,,,,,,,,,,60e55bb59cfd0aa9803b4470,60e562e617f6596bf5caa8e7,2021-07-07_09h17.10.521,Simcolourproject_2stim_asymm_v5,2020.2.10,Win32,60,60e52e7cfedb1dae636df45f,,,,,,,,,926,-27,40,1,0,0,response7disk,,0,-4,4,1,0,0,rectangle,24,-55,1,0,0,-1,-3,1,0,0,0,52,52,83,1,,response3disk_3,TRUE,4,4,"[227,109,220,264,25,115,209,17,131,38,47,2,15,3,300,53,195,309,281,220]",1.5819,rectangle
,,,,,,,,,,,,,FF,,,,,,,,2.0688,,,,,,,,,,,,,,,,,,,,,,60e55bb59cfd0aa9803b4470,60e562e617f6596bf5caa8e7,2021-07-07_09h17.10.521,Simcolourproject_2stim_asymm_v5,2020.2.10,Win32,60,60e52e7cfedb1dae636df45f,,,,,,,,,3376,-46,-25,1,0,0,response5disk,,2,4,2,1,0,0,rectangle,4,2,1,0,0,4,2,1,0,0,0,53,53,143,1,,,,,,,,
,,,,,,,,,,,,,FF,,,,,,,,1.1655,,,,,,,,,,,,,,,,,,,,,,60e55bb59cfd0aa9803b4470,60e562e617f6596bf5caa8e7,2021-07-07_09h17.10.521,Simcolourproject_2stim_asymm_v5,2020.2.10,Win32,60,60e52e7cfedb1dae636df45f,,,,,,,,,996,-50,25,1,0,0,response7disk,,1,-15,1,1,0,0,rectangle,-15,1,1,0,0,-15,1,1,0,0,0,54,54,133,1,,,,,,,,
,,,,,,,,,,,,,FF,,,,,,,,0.8829,,,,,,,,,,,,,,,,,,,,,,60e55bb59cfd0aa9803b4470,60e562e617f6596bf5caa8e7,2021-07-07_09h17.10.521,Simcolourproject_2stim_asymm_v5,2020.2.10,Win32,60,60e52e7cfedb1dae636df45f,,,,,,,,,3933,-26,46,1,0,0,response7disk,,0,-1,-10,1,0,0,rectangle,-1,-10,1,0,0,-1,-10,1,0,0,0,55,55,41,1,,,,,,,,
,,,,,,,,,,,,,FF,,,,,,,,0.9522,,,,,,,,,,,,,,,,,,,,,,60e55bb59cfd0aa9803b4470,60e562e617f6596bf5caa8e7,2021-07-07_09h17.10.521,Simcolourproject_2stim_asymm_v5,2020.2.10,Win32,60,60e52e7cfedb1dae636df45f,,,,,,,,,2082,-25,47,1,0,0,response7disk,,0,-2,4,1,0,0,rectangle,-2,4,1,0,0,-2,4,1,0,0,0,56,56,117,1,,,,,,,,
,,,,,,,,,,,,,FF,,,,,,,,0.967,,,,,,,,,,,,,,,,,,,,,,60e55bb59cfd0aa9803b4470,60e562e617f6596bf5caa8e7,2021-07-07_09h17.10.521,Simcolourproject_2stim_asymm_v5,2020.2.10,Win32,60,60e52e7cfedb1dae636df45f,,,,,,,,,3212,-30,-50,1,0,0,response5disk,,3,0,-1,1,0,0,rectangle,0,-1,1,0,0,0,-1,1,0,0,0,57,57,81,1,,,,,,,,
,,,,,,,,,,,,,FF,,,,,,,,1.6849,,,,,,,,,,,,,,,,,,,,,,60e55bb59cfd0aa9803b4470,60e562e617f6596bf5caa8e7,2021-07-07_09h17.10.521,Simcolourproject_2stim_asymm_v5,2020.2.10,Win32,60,60e52e7cfedb1dae636df45f,,,,,,,,,4054,-30,-50,1,0,0,response5disk,,3,-1,4,1,0,0,rectangle,-1,4,1,0,0,-1,4,1,0,0,0,58,58,126,1,,,,,,,,
,,,,,,,,,,,,,FF,,,,,,,,1.5179,,,,,,,,,,,,,,,,,,,,,,60e55bb59cfd0aa9803b4470,60e562e617f6596bf5caa8e7,2021-07-07_09h17.10.521,Simcolourproject_2stim_asymm_v5,2020.2.10,Win32,60,60e52e7cfedb1dae636df45f,,,,,,,,,3931,-39,15,1,0,0,response7disk,,1,-5,3,1,0,0,rectangle,-5,3,1,0,0,-5,3,1,0,0,0,59,59,24,1,,,,,,,,
,,,,,,,,,,,,,FF,,,,,,,,0.6661,,,,,,,,,,,,,,,,,,,,,,60e55bb59cfd0aa9803b4470,60e562e617f6596bf5caa8e7,2021-07-07_09h17.10.521,Simcolourproject_2stim_asymm_v5,2020.2.10,Win32,60,60e52e7cfedb1dae636df45f,,,,,,,,,2049,-23,47,1,0,0,response7disk,,0,-1,5,1,0,0,rectangle,-1,5,1,0,0,-1,5,1,0,0,0,60,60,75,1,,,,,,,,
,,,,,,,,,,,,,FF,,,,,,,,0.5997,,,,,,,,,,,,,,,,,,,,,,60e55bb59cfd0aa9803b4470,60e562e617f6596bf5caa8e7,2021-07-07_09h17.10.521,Simcolourproject_2stim_asymm_v5,2020.2.10,Win32,60,60e52e7cfedb1dae636df45f,,,,,,,,,319,-29,51,1,0,0,response7disk,,0,-5,8,1,0,0,rectangle,-5,8,1,0,0,-5,8,1,0,0,0,61,61,127,1,,,,,,,,
,,,,,,,,,,,,,FF,,,,,,,,4.8726,,,,,,,,,,,,,,,,,,,,,,60e55bb59cfd0aa9803b4470,60e562e617f6596bf5caa8e7,2021-07-07_09h17.10.521,Simcolourproject_2stim_asymm_v5,2020.2.10,Win32,60,60e52e7cfedb1dae636df45f,,,,,,,,,107,-59,20,1,0,0,response7disk,,1,-4,0,1,0,0,rectangle,-4,0,1,0,0,-4,0,1,0,0,0,62,62,55,1,,,,,,,,
,,,,,,,,,,,,,FF,,,,,,,,0.7351,,,,,,,,,,,,,,,,,,,,,,60e55bb59cfd0aa9803b4470,60e562e617f6596bf5caa8e7,2021-07-07_09h17.10.521,Simcolourproject_2stim_asymm_v5,2020.2.10,Win32,60,60e52e7cfedb1dae636df45f,,,,,,,,,4037,-36,71,1,0,0,response7disk,,0,3,17,1,0,0,rectangle,3,17,1,0,0,3,17,1,0,0,0,63,63,114,1,,,,,,,,
,,,,,,,,,,,,,FF,,,,,,,,0.8004,,,,,,,,,,,,,,,,,,,,,,60e55bb59cfd0aa9803b4470,60e562e617f6596bf5caa8e7,2021-07-07_09h17.10.521,Simcolourproject_2stim_asymm_v5,2020.2.10,Win32,60,60e52e7cfedb1dae636df45f,,,,,,,,,371,-48,-26,1,0,0,response5disk,,2,6,3,1,0,0,rectangle,6,3,1,0,0,6,3,1,0,0,0,64,64,58,1,,,,,,,,
,,,,,,,,,,,,,FF,,,,,,,,0.6673,,,,,,,,,,,,,,,,,,,,,,60e55bb59cfd0aa9803b4470,60e562e617f6596bf5caa8e7,2021-07-07_09h17.10.521,Simcolourproject_2stim_asymm_v5,2020.2.10,Win32,60,60e52e7cfedb1dae636df45f,,,,,,,,,3358,-30,52,1,0,0,response7disk,,0,-2,3,1,0,0,rectangle,-2,3,1,0,0,-2,3,1,0,0,0,65,65,156,1,,,,,,,,
,,,,,,,,,,,,,FF,,,,,,,,0.8679,,,,,,,,,,,,,,,,,,,,,,60e55bb59cfd0aa9803b4470,60e562e617f6596bf5caa8e7,2021-07-07_09h17.10.521,Simcolourproject_2stim_asymm_v5,2020.2.10,Win32,60,60e52e7cfedb1dae636df45f,,,,,,,,,3202,51,-30,1,0,0,response3disk,,5,-5,3,1,0,0,rectangle,-5,3,1,0,0,-5,3,1,0,0,0,66,66,135,1,,,,,,,,
,,,,,,,,,,,,,FF,,,,,,,,0.7518,,,,,,,,,,,,,,,,,,,,,,60e55bb59cfd0aa9803b4470,60e562e617f6596bf5caa8e7,2021-07-07_09h17.10.521,Simcolourproject_2stim_asymm_v5,2020.2.10,Win32,60,60e52e7cfedb1dae636df45f,,,,,,,,,1626,-52,-22,1,0,0,response5disk,,2,-6,6,1,0,0,rectangle,-6,6,1,0,0,-6,6,1,0,0,0,67,67,7,1,,,,,,,,
,,,,,,,,,,,,,FF,,,,,,,,1.3847,,,,,,,,,,,,,,,,,,,,,,60e55bb59cfd0aa9803b4470,60e562e617f6596bf5caa8e7,2021-07-07_09h17.10.521,Simcolourproject_2stim_asymm_v5,2020.2.10,Win32,60,60e52e7cfedb1dae636df45f,,,,,,,,,1204,-54,-29,1,0,0,response5disk,,2,-3,-4,1,0,0,rectangle,-3,-4,1,0,0,-3,-4,1,0,0,0,68,68,107,1,,,,,,,,
,,,,,,,,,,,,,FF,,,,,,,,1.3843,,,,,,,,,,,,,,,,,,,,,,60e55bb59cfd0aa9803b4470,60e562e617f6596bf5caa8e7,2021-07-07_09h17.10.521,Simcolourproject_2stim_asymm_v5,2020.2.10,Win32,60,60e52e7cfedb1dae636df45f,,,,,,,,,190,-20,-50,1,0,0,response5disk,,3,10,9,1,0,0,rectangle,10,9,1,0,0,10,9,1,0,0,0,69,69,157,1,,,,,,,,
,,,,,,,,,,,,,FF,,,,,,,,0.7844,,,,,,,,,,,,,,,,,,,,,,60e55bb59cfd0aa9803b4470,60e562e617f6596bf5caa8e7,2021-07-07_09h17.10.521,Simcolourproject_2stim_asymm_v5,2020.2.10,Win32,60,60e52e7cfedb1dae636df45f,,,,,,,,,1669,-16,44,1,0,0,response7disk,,0,3,-3,1,0,0,rectangle,3,-3,1,0,0,3,-3,1,0,0,0,70,70,82,1,,,,,,,,
,,,,,,,,,,,,,FF,,,,,,,,0.5335,,,,,,,,,,,,,,,,,,,,,,60e55bb59cfd0aa9803b4470,60e562e617f6596bf5caa8e7,2021-07-07_09h17.10.521,Simcolourproject_2stim_asymm_v5,2020.2.10,Win32,60,60e52e7cfedb1dae636df45f,,,,,,,,,2091,-28,37,1,0,0,response7disk,,0,4,-1,1,0,0,rectangle,4,-1,1,0,0,4,-1,1,0,0,0,71,71,92,1,,,,,,,,
,,,,,,,,,,,,,FF,,,,,,,,1.5845,,,,,,,,,,,,,,,,,,,,,,60e55bb59cfd0aa9803b4470,60e562e617f6596bf5caa8e7,2021-07-07_09h17.10.521,Simcolourproject_2stim_asymm_v5,2020.2.10,Win32,60,60e52e7cfedb1dae636df45f,,,,,,,,,264,51,-39,1,0,0,response3disk,,5,-8,-4,1,0,0,rectangle,-8,-4,1,0,0,-8,-4,1,0,0,0,72,72,18,1,,,,,,,,
,,,,,,,,,,,,,FF,,,,,,,,0.7009,,,,,,,,,,,,,,,,,,,,,,60e55bb59cfd0aa9803b4470,60e562e617f6596bf5caa8e7,2021-07-07_09h17.10.521,Simcolourproject_2stim_asymm_v5,2020.2.10,Win32,60,60e52e7cfedb1dae636df45f,,,,,,,,,3406,-28,58,1,0,0,response7disk,,0,2,8,1,0,0,rectangle,2,8,1,0,0,2,8,1,0,0,0,73,73,63,1,,,,,,,,
,,,,,,,,,,,,,FF,,,,,,,,40.2314,,,,,,,,,,,,,,,,,,,,,,60e55bb59cfd0aa9803b4470,60e562e617f6596bf5caa8e7,2021-07-07_09h17.10.521,Simcolourproject_2stim_asymm_v5,2020.2.10,Win32,60,60e52e7cfedb1dae636df45f,,,,,,,,,744,-45,-21,1,0,0,response5disk,,2,-5,4,1,0,0,rectangle,-5,4,1,0,0,-5,4,1,0,0,0,74,74,39,1,,,,,,,,
,,,,,,,,,,,,,FF,,,,,,,,1.7132,,,,,,,,,,,,,,,,,,,,,,60e55bb59cfd0aa9803b4470,60e562e617f6596bf5caa8e7,2021-07-07_09h17.10.521,Simcolourproject_2stim_asymm_v5,2020.2.10,Win32,60,60e52e7cfedb1dae636df45f,,,,,,,,,2317,-35,53,1,0,0,response7disk,,0,-2,2,1,0,0,rectangle,-2,2,1,0,0,-2,2,1,0,0,0,75,75,46,1,,,,,,,,
,,,,,,,,,,,,,FF,,,,,,,,1.0522,,,,,,,,,,,,,,,,,,,,,,60e55bb59cfd0aa9803b4470,60e562e617f6596bf5caa8e7,2021-07-07_09h17.10.521,Simcolourproject_2stim_asymm_v5,2020.2.10,Win32,60,60e52e7cfedb1dae636df45f,,,,,,,,,652,-17,-46,1,0,0,response5disk,,3,7,2,1,0,0,rectangle,7,2,1,0,0,7,2,1,0,0,0,76,76,56,1,,,,,,,,
,,,,,,,,,,,,,FF,,,,,,,,0.7675,,,,,,,,,,,,,,,,,,,,,,60e55bb59cfd0aa9803b4470,60e562e617f6596bf5caa8e7,2021-07-07_09h17.10.521,Simcolourproject_2stim_asymm_v5,2020.2.10,Win32,60,60e52e7cfedb1dae636df45f,,,,,,,,,3727,-22,51,1,0,0,response7disk,,0,-4,9,1,0,0,rectangle,-4,9,1,0,0,-4,9,1,0,0,0,77,77,142,1,,,,,,,,
,,,,,,,,,,,,,FF,,,,,,,,0.8174,,,,,,,,,,,,,,,,,,,,,,60e55bb59cfd0aa9803b4470,60e562e617f6596bf5caa8e7,2021-07-07_09h17.10.521,Simcolourproject_2stim_asymm_v5,2020.2.10,Win32,60,60e52e7cfedb1dae636df45f,,,,,,,,,1648,-29,55,1,0,0,response7disk,,0,-1,-9,1,0,0,rectangle,-1,-9,1,0,0,-1,-9,1,0,0,0,78,78,71,1,,,,,,,,
,,,,,,,,,,,,,FF,,,,,,,,0.6009,,,,,,,,,,,,,,,,,,,,,,60e55bb59cfd0aa9803b4470,60e562e617f6596bf5caa8e7,2021-07-07_09h17.10.521,Simcolourproject_2stim_asymm_v5,2020.2.10,Win32,60,60e52e7cfedb1dae636df45f,,,,,,,,,496,-35,66,1,0,0,response7disk,,0,3,1,1,0,0,rectangle,3,1,1,0,0,3,1,1,0,0,0,79,79,62,1,,,,,,,,
,,,,,,,,,,,,,FF,,,,,,,,0.6009,,,,,,,,,,,,,,,,,,,,,,60e55bb59cfd0aa9803b4470,60e562e617f6596bf5caa8e7,2021-07-07_09h17.10.521,Simcolourproject_2stim_asymm_v5,2020.2.10,Win32,60,60e52e7cfedb1dae636df45f,,,,,,,,,71,-32,58,1,0,0,response7disk,,0,9,12,1,0,0,rectangle,9,12,1,0,0,9,12,1,0,0,0,80,80,91,1,,,,,,,,
,,,,,,,,,,,,,FF,,,,,,,,1.2339,,,,,,,,,,,,,,,,,,,,,,60e55bb59cfd0aa9803b4470,60e562e617f6596bf5caa8e7,2021-07-07_09h17.10.521,Simcolourproject_2stim_asymm_v5,2020.2.10,Win32,60,60e52e7cfedb1dae636df45f,,,,,,,,,1517,-19,58,1,0,0,response7disk,,0,-2,4,1,0,0,rectangle,-2,4,1,0,0,-2,4,1,0,0,0,81,81,38,1,,,,,,,,
,,,,,,,,,,,,,FF,,,,,,,,1.0345,,,,,,,,,,,,,,,,,,,,,,60e55bb59cfd0aa9803b4470,60e562e617f6596bf5caa8e7,2021-07-07_09h17.10.521,Simcolourproject_2stim_asymm_v5,2020.2.10,Win32,60,60e52e7cfedb1dae636df45f,,,,,,,,,1637,-20,58,1,0,0,response7disk,,0,-11,9,1,0,0,rectangle,-11,9,1,0,0,-11,9,1,0,0,0,82,82,131,1,,,,,,,,
,,,,,,,,,,,,,FF,,,,,,,,1.2027,,,,,,,,,,,,,,,,,,,,,,60e55bb59cfd0aa9803b4470,60e562e617f6596bf5caa8e7,2021-07-07_09h17.10.521,Simcolourproject_2stim_asymm_v5,2020.2.10,Win32,60,60e52e7cfedb1dae636df45f,,,,,,,,,2288,14,-58,1,0,0,response3disk,,4,-15,7,1,0,0,rectangle,-15,7,1,0,0,-15,7,1,0,0,0,83,83,93,1,,,,,,,,
,,,,,,,,,,,,,FF,,,,,,,,1.1016,,,,,,,,,,,,,,,,,,,,,,60e55bb59cfd0aa9803b4470,60e562e617f6596bf5caa8e7,2021-07-07_09h17.10.521,Simcolourproject_2stim_asymm_v5,2020.2.10,Win32,60,60e52e7cfedb1dae636df45f,,,,,,,,,990,41,-28,1,0,0,response3disk,,5,-7,8,1,0,0,rectangle,-7,8,1,0,0,-7,8,1,0,0,0,84,84,119,1,,,,,,,,
,,,,,,,,,,,,,FF,,,,,,,,1.7323,,,,,,,,,,,,,,,,,,,,,,60e55bb59cfd0aa9803b4470,60e562e617f6596bf5caa8e7,2021-07-07_09h17.10.521,Simcolourproject_2stim_asymm_v5,2020.2.10,Win32,60,60e52e7cfedb1dae636df45f,,,,,,,,,324,-45,23,1,0,0,response7disk,,1,4,3,1,0,0,rectangle,4,3,1,0,0,4,3,1,0,0,0,85,85,4,1,,,,,,,,
,,,,,,,,,,,,,FF,,,,,,,,2.2312,,,,,,,,,,,,,,,,,,,,,,60e55bb59cfd0aa9803b4470,60e562e617f6596bf5caa8e7,2021-07-07_09h17.10.521,Simcolourproject_2stim_asymm_v5,2020.2.10,Win32,60,60e52e7cfedb1dae636df45f,,,,,,,,,1580,-48,21,1,0,0,response7disk,,1,11,-11,1,0,0,rectangle,11,-11,1,0,0,11,-11,1,0,0,0,86,86,6,1,,,,,,,,
,,,,,,,,,,,,,FF,,,,,,,,0.657,,,,,,,,,,,,,,,,,,,,,,60e55bb59cfd0aa9803b4470,60e562e617f6596bf5caa8e7,2021-07-07_09h17.10.521,Simcolourproject_2stim_asymm_v5,2020.2.10,Win32,60,60e52e7cfedb1dae636df45f,,,,,,,,,2807,-30,54,1,0,0,response7disk,,0,-6,10,1,0,0,rectangle,-6,10,1,0,0,-6,10,1,0,0,0,87,87,70,1,,,,,,,,
,,,,,,,,,,,,,FF,,,,,,,,0.6498,,,,,,,,,,,,,,,,,,,,,,60e55bb59cfd0aa9803b4470,60e562e617f6596bf5caa8e7,2021-07-07_09h17.10.521,Simcolourproject_2stim_asymm_v5,2020.2.10,Win32,60,60e52e7cfedb1dae636df45f,,,,,,,,,182,-31,47,1,0,0,response7disk,,0,-11,-1,1,0,0,rectangle,-11,-1,1,0,0,-11,-1,1,0,0,0,88,88,9,1,,,,,,,,
,,,,,,,,,,,,,FF,,,,,,,,0.8326,,,,,,,,,,,,,,,,,,,,,,60e55bb59cfd0aa9803b4470,60e562e617f6596bf5caa8e7,2021-07-07_09h17.10.521,Simcolourproject_2stim_asymm_v5,2020.2.10,Win32,60,60e52e7cfedb1dae636df45f,,,,,,,,,754,-26,54,1,0,0,response7disk,,0,-1,-3,1,0,0,rectangle,-1,-3,1,0,0,-1,-3,1,0,0,0,89,89,145,1,,,,,,,,
,,,,,,,,,,,,,FF,,,,,,,,0.6834,,,,,,,,,,,,,,,,,,,,,,60e55bb59cfd0aa9803b4470,60e562e617f6596bf5caa8e7,2021-07-07_09h17.10.521,Simcolourproject_2stim_asymm_v5,2020.2.10,Win32,60,60e52e7cfedb1dae636df45f,,,,,,,,,4325,-30,66,1,0,0,response7disk,,0,-4,-1,1,0,0,rectangle,-4,-1,1,0,0,-4,-1,1,0,0,0,90,90,44,1,,,,,,,,
,,,,,,,,,,,,,FF,,,,,,,,0.9179,,,,,,,,,,,,,,,,,,,,,,60e55bb59cfd0aa9803b4470,60e562e617f6596bf5caa8e7,2021-07-07_09h17.10.521,Simcolourproject_2stim_asymm_v5,2020.2.10,Win32,60,60e52e7cfedb1dae636df45f,,,,,,,,,1651,-47,-22,1,0,0,response5disk,,2,0,1,1,0,0,rectangle,0,1,1,0,0,0,1,1,0,0,0,91,91,139,1,,,,,,,,
,,,,,,,,,,,,,FF,,,,,,,,1.0686,,,,,,,,,,,,,,,,,,,,,,60e55bb59cfd0aa9803b4470,60e562e617f6596bf5caa8e7,2021-07-07_09h17.10.521,Simcolourproject_2stim_asymm_v5,2020.2.10,Win32,60,60e52e7cfedb1dae636df45f,,,,,,,,,1099,-19,41,1,0,0,response7disk,,0,8,3,1,0,0,rectangle,8,3,1,0,0,8,3,1,0,0,0,92,92,100,1,,,,,,,,
,,,,,,,,,,,,,FF,,,,,,,,1.0492,,,,,,,,,,,,,,,,,,,,,,60e55bb59cfd0aa9803b4470,60e562e617f6596bf5caa8e7,2021-07-07_09h17.10.521,Simcolourproject_2stim_asymm_v5,2020.2.10,Win32,60,60e52e7cfedb1dae636df45f,,,,,,,,,4229,-49,24,1,0,0,response7disk,,1,5,6,1,0,0,rectangle,5,6,1,0,0,5,6,1,0,0,0,93,93,120,1,,,,,,,,
,,,,,,,,,,,,,FF,,,,,,,,0.6491,,,,,,,,,,,,,,,,,,,,,,60e55bb59cfd0aa9803b4470,60e562e617f6596bf5caa8e7,2021-07-07_09h17.10.521,Simcolourproject_2stim_asymm_v5,2020.2.10,Win32,60,60e52e7cfedb1dae636df45f,,,,,,,,,3354,-29,49,1,0,0,response7disk,,0,-1,-3,1,0,0,rectangle,-1,-3,1,0,0,-1,-3,1,0,0,0,94,94,154,1,,,,,,,,
,,,,,,,,,,,,,FF,,,,,,,,0.5005,,,,,,,,,,,,,,,,,,,,,,60e55bb59cfd0aa9803b4470,60e562e617f6596bf5caa8e7,2021-07-07_09h17.10.521,Simcolourproject_2stim_asymm_v5,2020.2.10,Win32,60,60e52e7cfedb1dae636df45f,,,,,,,,,2574,-31,48,1,0,0,response7disk,,0,-1,0,1,0,0,rectangle,-1,0,1,0,0,-1,0,1,0,0,0,95,95,146,1,,,,,,,,
,,,,,,,,,,,,,FF,,,,,,,,1.0511,,,,,,,,,,,,,,,,,,,,,,60e55bb59cfd0aa9803b4470,60e562e617f6596bf5caa8e7,2021-07-07_09h17.10.521,Simcolourproject_2stim_asymm_v5,2020.2.10,Win32,60,60e52e7cfedb1dae636df45f,,,,,,,,,3863,-30,-53,1,0,0,response5disk,,3,-6,-12,1,0,0,rectangle,-6,-12,1,0,0,-6,-12,1,0,0,0,96,96,101,1,,,,,,,,
,,,,,,,,,,,,,FF,,,,,,,,1.7689,,,,,,,,,,,,,,,,,,,,,,60e55bb59cfd0aa9803b4470,60e562e617f6596bf5caa8e7,2021-07-07_09h17.10.521,Simcolourproject_2stim_asymm_v5,2020.2.10,Win32,60,60e52e7cfedb1dae636df45f,,,,,,,,,1912,-40,-17,1,0,0,response5disk,,2,13,13,1,0,0,rectangle,13,13,1,0,0,13,13,1,0,0,0,97,97,20,1,,,,,,,,
,,,,,,,,,,,,,FF,,,,,,,,1.3015,,,,,,,,,,,,,,,,,,,,,,60e55bb59cfd0aa9803b4470,60e562e617f6596bf5caa8e7,2021-07-07_09h17.10.521,Simcolourproject_2stim_asymm_v5,2020.2.10,Win32,60,60e52e7cfedb1dae636df45f,,,,,,,,,23,-30,-57,1,0,0,response5disk,,3,-3,-9,1,0,0,rectangle,-3,-9,1,0,0,-3,-9,1,0,0,0,98,98,42,1,,,,,,,,
,,,,,,,,,,,,,FF,,,,,,,,1.3158,,,,,,,,,,,,,,,,,,,,,,60e55bb59cfd0aa9803b4470,60e562e617f6596bf5caa8e7,2021-07-07_09h17.10.521,Simcolourproject_2stim_asymm_v5,2020.2.10,Win32,60,60e52e7cfedb1dae636df45f,,,,,,,,,1025,-25,-46,1,0,0,response5disk,,3,9,4,1,0,0,rectangle,9,4,1,0,0,9,4,1,0,0,0,99,99,53,1,,,,,,,,
,,,,,,,,,,,,,FF,,,,,,,,1.0627,,,,,,,,,,,,,,,,,,,,,,60e55bb59cfd0aa9803b4470,60e562e617f6596bf5caa8e7,2021-07-07_09h17.10.521,Simcolourproject_2stim_asymm_v5,2020.2.10,Win32,60,60e52e7cfedb1dae636df45f,,,,,,,,,4309,-50,23,1,0,0,response7disk,,1,-14,3,1,0,0,rectangle,-14,3,1,0,0,-14,3,1,0,0,0,100,100,59,1,,,,,,,,
,,,,,,,,,,,,,FF,,,,,,,,1.0321,,,,,,,,,,,,,,,,,,,,,,60e55bb59cfd0aa9803b4470,60e562e617f6596bf5caa8e7,2021-07-07_09h17.10.521,Simcolourproject_2stim_asymm_v5,2020.2.10,Win32,60,60e52e7cfedb1dae636df45f,,,,,,,,,4185,-41,67,1,0,0,response7disk,,0,-3,2,1,0,0,rectangle,-3,2,1,0,0,-3,2,1,0,0,0,101,101,134,1,,,,,,,,
,,,,,,,,,,,,,FF,,,,,,,,1.3492,,,,,,,,,,,,,,,,,,,,,,60e55bb59cfd0aa9803b4470,60e562e617f6596bf5caa8e7,2021-07-07_09h17.10.521,Simcolourproject_2stim_asymm_v5,2020.2.10,Win32,60,60e52e7cfedb1dae636df45f,,,,,,,,,2406,-26,50,1,0,0,response7disk,,0,2,0,1,0,0,rectangle,2,0,1,0,0,2,0,1,0,0,0,102,102,27,1,,,,,,,,
,,,,,,,,,,,,,FF,,,,,,,,0.899,,,,,,,,,,,,,,,,,,,,,,60e55bb59cfd0aa9803b4470,60e562e617f6596bf5caa8e7,2021-07-07_09h17.10.521,Simcolourproject_2stim_asymm_v5,2020.2.10,Win32,60,60e52e7cfedb1dae636df45f,,,,,,,,,3417,-26,49,1,0,0,response7disk,,0,5,-13,1,0,0,rectangle,5,-13,1,0,0,5,-13,1,0,0,0,103,103,152,1,,,,,,,,
,,,,,,,,,,,,,FF,,,,,,,,0.5164,,,,,,,,,,,,,,,,,,,,,,60e55bb59cfd0aa9803b4470,60e562e617f6596bf5caa8e7,2021-07-07_09h17.10.521,Simcolourproject_2stim_asymm_v5,2020.2.10,Win32,60,60e52e7cfedb1dae636df45f,,,,,,,,,3308,-26,51,1,0,0,response7disk,,0,1,2,1,0,0,rectangle,1,2,1,0,0,1,2,1,0,0,0,104,104,122,1,,,,,,,,
,,,,,,,,,,,,,FF,,,,,,,,0.6009,,,,,,,,,,,,,,,,,,,,,,60e55bb59cfd0aa9803b4470,60e562e617f6596bf5caa8e7,2021-07-07_09h17.10.521,Simcolourproject_2stim_asymm_v5,2020.2.10,Win32,60,60e52e7cfedb1dae636df45f,,,,,,,,,2454,-27,50,1,0,0,response7disk,,0,5,0,1,0,0,rectangle,5,0,1,0,0,5,0,1,0,0,0,105,105,129,1,,,,,,,,
,,,,,,,,,,,,,FF,,,,,,,,0.5511,,,,,,,,,,,,,,,,,,,,,,60e55bb59cfd0aa9803b4470,60e562e617f6596bf5caa8e7,2021-07-07_09h17.10.521,Simcolourproject_2stim_asymm_v5,2020.2.10,Win32,60,60e52e7cfedb1dae636df45f,,,,,,,,,24,-26,60,1,0,0,response7disk,,0,-5,10,1,0,0,rectangle,-5,10,1,0,0,-5,10,1,0,0,0,106,106,147,1,,,,,,,,
,,,,,,,,,,,,,FF,,,,,,,,0.5007,,,,,,,,,,,,,,,,,,,,,,60e55bb59cfd0aa9803b4470,60e562e617f6596bf5caa8e7,2021-07-07_09h17.10.521,Simcolourproject_2stim_asymm_v5,2020.2.10,Win32,60,60e52e7cfedb1dae636df45f,,,,,,,,,2210,-25,58,1,0,0,response7disk,,0,0,7,1,0,0,rectangle,0,7,1,0,0,0,7,1,0,0,0,107,107,141,1,,,,,,,,
,,,,,,,,,,,,,FF,,,,,,,,0.9326,,,,,,,,,,,,,,,,,,,,,,60e55bb59cfd0aa9803b4470,60e562e617f6596bf5caa8e7,2021-07-07_09h17.10.521,Simcolourproject_2stim_asymm_v5,2020.2.10,Win32,60,60e52e7cfedb1dae636df45f,,,,,,,,,895,58,-26,1,0,0,response3disk,,5,-1,7,1,0,0,rectangle,-61,21,1,0,0,0,1,1,0,0,0,108,108,124,1,,response7disk_3,TRUE,1,1,"[227,109,220,264,25,115,209,17,131,38,47,2,15,3,300,53,195,309,281,220]",1.2989,rectangle
,,,,,,,,,,,,,FF,,,,,,,,2.2852,,,,,,,,,,,,,,,,,,,,,,60e55bb59cfd0aa9803b4470,60e562e617f6596bf5caa8e7,2021-07-07_09h17.10.521,Simcolourproject_2stim_asymm_v5,2020.2.10,Win32,60,60e52e7cfedb1dae636df45f,,,,,,,,,255,66,-22,1,0,0,response3disk,,5,-11,11,1,0,0,rectangle,-11,11,1,0,0,-11,11,1,0,0,0,109,109,50,1,,,,,,,,
,,,,,,,,,,,,,FF,,,,,,,,0.8164,,,,,,,,,,,,,,,,,,,,,,60e55bb59cfd0aa9803b4470,60e562e617f6596bf5caa8e7,2021-07-07_09h17.10.521,Simcolourproject_2stim_asymm_v5,2020.2.10,Win32,60,60e52e7cfedb1dae636df45f,,,,,,,,,172,81,-33,1,0,0,response3disk,,5,-6,9,1,0,0,rectangle,-6,9,1,0,0,-6,9,1,0,0,0,110,110,73,1,,,,,,,,
,,,,,,,,,,,,,FF,,,,,,,,1.1185,,,,,,,,,,,,,,,,,,,,,,60e55bb59cfd0aa9803b4470,60e562e617f6596bf5caa8e7,2021-07-07_09h17.10.521,Simcolourproject_2stim_asymm_v5,2020.2.10,Win32,60,60e52e7cfedb1dae636df45f,,,,,,,,,3402,-19,-45,1,0,0,response5disk,,3,0,-6,1,0,0,rectangle,0,-6,1,0,0,0,-6,1,0,0,0,111,111,30,1,,,,,,,,
,,,,,,,,,,,,,FF,,,,,,,,0.6666,,,,,,,,,,,,,,,,,,,,,,60e55bb59cfd0aa9803b4470,60e562e617f6596bf5caa8e7,2021-07-07_09h17.10.521,Simcolourproject_2stim_asymm_v5,2020.2.10,Win32,60,60e52e7cfedb1dae636df45f,,,,,,,,,2557,-39,41,1,0,0,response7disk,,0,-9,7,1,0,0,rectangle,-9,7,1,0,0,-9,7,1,0,0,0,112,112,34,1,,,,,,,,
,,,,,,,,,,,,,FF,,,,,,,,1.5987,,,,,,,,,,,,,,,,,,,,,,60e55bb59cfd0aa9803b4470,60e562e617f6596bf5caa8e7,2021-07-07_09h17.10.521,Simcolourproject_2stim_asymm_v5,2020.2.10,Win32,60,60e52e7cfedb1dae636df45f,,,,,,,,,313,-54,26,1,0,0,response7disk,,1,-7,8,1,0,0,rectangle,-7,8,1,0,0,-7,8,1,0,0,0,113,113,74,1,,,,,,,,
,,,,,,,,,,,,,FF,,,,,,,,1.0211,,,,,,,,,,,,,,,,,,,,,,60e55bb59cfd0aa9803b4470,60e562e617f6596bf5caa8e7,2021-07-07_09h17.10.521,Simcolourproject_2stim_asymm_v5,2020.2.10,Win32,60,60e52e7cfedb1dae636df45f,,,,,,,,,1531,42,-14,1,0,0,response3disk,,5,7,4,1,0,0,rectangle,-41,70,1,0,0,-5,-4,1,0,0,0,114,114,111,1,,response7disk_3,TRUE,0,0,"[227,109,220,264,25,115,209,17,131,38,47,2,15,3,300,53,195,309,281,220]",0.9598,rectangle
,,,,,,,,,,,,,FF,,,,,,,,0.923,,,,,,,,,,,,,,,,,,,,,,60e55bb59cfd0aa9803b4470,60e562e617f6596bf5caa8e7,2021-07-07_09h17.10.521,Simcolourproject_2stim_asymm_v5,2020.2.10,Win32,60,60e52e7cfedb1dae636df45f,,,,,,,,,1270,-39,-26,1,0,0,response5disk,,2,-3,-14,1,0,0,rectangle,-3,-14,1,0,0,-3,-14,1,0,0,0,115,115,128,1,,,,,,,,
,,,,,,,,,,,,,FF,,,,,,,,0.8989,,,,,,,,,,,,,,,,,,,,,,60e55bb59cfd0aa9803b4470,60e562e617f6596bf5caa8e7,2021-07-07_09h17.10.521,Simcolourproject_2stim_asymm_v5,2020.2.10,Win32,60,60e52e7cfedb1dae636df45f,,,,,,,,,469,18,-47,1,0,0,response3disk,,4,-10,13,1,0,0,rectangle,-10,13,1,0,0,-10,13,1,0,0,0,116,116,87,1,,,,,,,,
,,,,,,,,,,,,,FF,,,,,,,,0.8829,,,,,,,,,,,,,,,,,,,,,,60e55bb59cfd0aa9803b4470,60e562e617f6596bf5caa8e7,2021-07-07_09h17.10.521,Simcolourproject_2stim_asymm_v5,2020.2.10,Win32,60,60e52e7cfedb1dae636df45f,,,,,,,,,871,30,-32,1,0,0,response3disk,,4,-8,-1,1,0,0,rectangle,-8,-1,1,0,0,-8,-1,1,0,0,0,117,117,137,1,,,,,,,,
,,,,,,,,,,,,,FF,,,,,,,,1.3378,,,,,,,,,,,,,,,,,,,,,,60e55bb59cfd0aa9803b4470,60e562e617f6596bf5caa8e7,2021-07-07_09h17.10.521,Simcolourproject_2stim_asymm_v5,2020.2.10,Win32,60,60e52e7cfedb1dae636df45f,,,,,,,,,1649,-47,15,1,0,0,response7disk,,1,-4,7,1,0,0,rectangle,-4,7,1,0,0,-4,7,1,0,0,0,118,118,125,1,,,,,,,,
,,,,,,,,,,,,,FF,,,,,,,,0.9486,,,,,,,,,,,,,,,,,,,,,,60e55bb59cfd0aa9803b4470,60e562e617f6596bf5caa8e7,2021-07-07_09h17.10.521,Simcolourproject_2stim_asymm_v5,2020.2.10,Win32,60,60e52e7cfedb1dae636df45f,,,,,,,,,3955,-15,58,1,0,0,response7disk,,0,1,16,1,0,0,rectangle,1,16,1,0,0,1,16,1,0,0,0,119,119,19,1,,,,,,,,
,,,,,,,,,,,,,FF,,,,,,,,1.5214,,,,,,,,,,,,,,,,,,,,,,60e55bb59cfd0aa9803b4470,60e562e617f6596bf5caa8e7,2021-07-07_09h17.10.521,Simcolourproject_2stim_asymm_v5,2020.2.10,Win32,60,60e52e7cfedb1dae636df45f,,,,,,,,,2219,27,-53,1,0,0,response3disk,,4,0,-7,1,0,0,rectangle,0,-7,1,0,0,0,-7,1,0,0,0,120,120,49,1,,,,,,,,
,,,,,,,,,,,,,FF,,,,,,,,1.0319,,,,,,,,,,,,,,,,,,,,,,60e55bb59cfd0aa9803b4470,60e562e617f6596bf5caa8e7,2021-07-07_09h17.10.521,Simcolourproject_2stim_asymm_v5,2020.2.10,Win32,60,60e52e7cfedb1dae636df45f,,,,,,,,,1937,-47,24,1,0,0,response7disk,,1,1,12,1,0,0,rectangle,1,12,1,0,0,1,12,1,0,0,0,121,121,159,1,,,,,,,,
,,,,,,,,,,,,,FF,,,,,,,,1.0665,,,,,,,,,,,,,,,,,,,,,,60e55bb59cfd0aa9803b4470,60e562e617f6596bf5caa8e7,2021-07-07_09h17.10.521,Simcolourproject_2stim_asymm_v5,2020.2.10,Win32,60,60e52e7cfedb1dae636df45f,,,,,,,,,2552,51,-17,1,0,0,response3disk,,5,-3,5,1,0,0,rectangle,-3,5,1,0,0,-3,5,1,0,0,0,122,122,96,1,,,,,,,,
,,,,,,,,,,,,,FF,,,,,,,,0.9826,,,,,,,,,,,,,,,,,,,,,,60e55bb59cfd0aa9803b4470,60e562e617f6596bf5caa8e7,2021-07-07_09h17.10.521,Simcolourproject_2stim_asymm_v5,2020.2.10,Win32,60,60e52e7cfedb1dae636df45f,,,,,,,,,1866,-55,25,1,0,0,response7disk,,1,0,3,1,0,0,rectangle,0,3,1,0,0,0,3,1,0,0,0,123,123,66,1,,,,,,,,
,,,,,,,,,,,,,FF,,,,,,,,1.4156,,,,,,,,,,,,,,,,,,,,,,60e55bb59cfd0aa9803b4470,60e562e617f6596bf5caa8e7,2021-07-07_09h17.10.521,Simcolourproject_2stim_asymm_v5,2020.2.10,Win32,60,60e52e7cfedb1dae636df45f,,,,,,,,,2984,-49,25,1,0,0,response7disk,,1,-7,-2,1,0,0,rectangle,-7,-2,1,0,0,-7,-2,1,0,0,0,124,124,26,1,,,,,,,,
,,,,,,,,,,,,,FF,,,,,,,,0.7157,,,,,,,,,,,,,,,,,,,,,,60e55bb59cfd0aa9803b4470,60e562e617f6596bf5caa8e7,2021-07-07_09h17.10.521,Simcolourproject_2stim_asymm_v5,2020.2.10,Win32,60,60e52e7cfedb1dae636df45f,,,,,,,,,2498,-28,49,1,0,0,response7disk,,0,3,-8,1,0,0,rectangle,3,-8,1,0,0,3,-8,1,0,0,0,125,125,72,1,,,,,,,,
,,,,,,,,,,,,,FF,,,,,,,,0.984,,,,,,,,,,,,,,,,,,,,,,60e55bb59cfd0aa9803b4470,60e562e617f6596bf5caa8e7,2021-07-07_09h17.10.521,Simcolourproject_2stim_asymm_v5,2020.2.10,Win32,60,60e52e7cfedb1dae636df45f,,,,,,,,,1686,-24,-38,1,0,0,response5disk,,3,-1,4,1,0,0,rectangle,-1,4,1,0,0,-1,4,1,0,0,0,126,126,108,1,,,,,,,,
,,,,,,,,,,,,,FF,,,,,,,,1.2181,,,,,,,,,,,,,,,,,,,,,,60e55bb59cfd0aa9803b4470,60e562e617f6596bf5caa8e7,2021-07-07_09h17.10.521,Simcolourproject_2stim_asymm_v5,2020.2.10,Win32,60,60e52e7cfedb1dae636df45f,,,,,,,,,118,-37,18,1,0,0,response7disk,,1,-4,6,1,0,0,rectangle,-4,6,1,0,0,-4,6,1,0,0,0,127,127,68,1,,,,,,,,
,,,,,,,,,,,,,FF,,,,,,,,1.4181,,,,,,,,,,,,,,,,,,,,,,60e55bb59cfd0aa9803b4470,60e562e617f6596bf5caa8e7,2021-07-07_09h17.10.521,Simcolourproject_2stim_asymm_v5,2020.2.10,Win32,60,60e52e7cfedb1dae636df45f,,,,,,,,,984,38,-18,1,0,0,response3disk,,5,-3,11,1,0,0,rectangle,-3,11,1,0,0,-3,11,1,0,0,0,128,128,11,1,,,,,,,,
,,,,,,,,,,,,,FF,,,,,,,,0.6005,,,,,,,,,,,,,,,,,,,,,,60e55bb59cfd0aa9803b4470,60e562e617f6596bf5caa8e7,2021-07-07_09h17.10.521,Simcolourproject_2stim_asymm_v5,2020.2.10,Win32,60,60e52e7cfedb1dae636df45f,,,,,,,,,1595,-27,50,1,0,0,response7disk,,0,-5,9,1,0,0,rectangle,-5,9,1,0,0,-5,9,1,0,0,0,129,129,106,1,,,,,,,,
,,,,,,,,,,,,,FF,,,,,,,,0.9498,,,,,,,,,,,,,,,,,,,,,,60e55bb59cfd0aa9803b4470,60e562e617f6596bf5caa8e7,2021-07-07_09h17.10.521,Simcolourproject_2stim_asymm_v5,2020.2.10,Win32,60,60e52e7cfedb1dae636df45f,,,,,,,,,3264,-59,-13,1,0,0,response5disk,,2,-3,-2,1,0,0,rectangle,-30,44,1,0,0,9,-5,1,0,0,0,130,130,65,1,,response7disk_3,TRUE,0,0,"[227,109,220,264,25,115,209,17,131,38,47,2,15,3,300,53,195,309,281,220]",0.9173,rectangle
,,,,,,,,,,,,,FF,,,,,,,,1.0515,,,,,,,,,,,,,,,,,,,,,,60e55bb59cfd0aa9803b4470,60e562e617f6596bf5caa8e7,2021-07-07_09h17.10.521,Simcolourproject_2stim_asymm_v5,2020.2.10,Win32,60,60e52e7cfedb1dae636df45f,,,,,,,,,2170,17,-47,1,0,0,response3disk,,4,-3,-2,1,0,0,rectangle,-3,-2,1,0,0,-3,-2,1,0,0,0,131,131,48,1,,,,,,,,
,,,,,,,,,,,,,FF,,,,,,,,0.9845,,,,,,,,,,,,,,,,,,,,,,60e55bb59cfd0aa9803b4470,60e562e617f6596bf5caa8e7,2021-07-07_09h17.10.521,Simcolourproject_2stim_asymm_v5,2020.2.10,Win32,60,60e52e7cfedb1dae636df45f,,,,,,,,,4003,-60,-19,1,0,0,response5disk,,2,-15,3,1,0,0,rectangle,-15,3,1,0,0,-15,3,1,0,0,0,132,132,97,1,,,,,,,,
,,,,,,,,,,,,,FF,,,,,,,,2.7365,,,,,,,,,,,,,,,,,,,,,,60e55bb59cfd0aa9803b4470,60e562e617f6596bf5caa8e7,2021-07-07_09h17.10.521,Simcolourproject_2stim_asymm_v5,2020.2.10,Win32,60,60e52e7cfedb1dae636df45f,,,,,,,,,2761,-29,-44,1,0,0,response5disk,,3,5,-5,1,0,0,rectangle,5,-5,1,0,0,5,-5,1,0,0,0,133,133,36,1,,,,,,,,
,,,,,,,,,,,,,FF,,,,,,,,0.5679,,,,,,,,,,,,,,,,,,,,,,60e55bb59cfd0aa9803b4470,60e562e617f6596bf5caa8e7,2021-07-07_09h17.10.521,Simcolourproject_2stim_asymm_v5,2020.2.10,Win32,60,60e52e7cfedb1dae636df45f,,,,,,,,,3732,-21,58,1,0,0,response7disk,,0,8,4,1,0,0,rectangle,8,4,1,0,0,8,4,1,0,0,0,134,134,80,1,,,,,,,,
,,,,,,,,,,,,,FF,,,,,,,,1.0013,,,,,,,,,,,,,,,,,,,,,,60e55bb59cfd0aa9803b4470,60e562e617f6596bf5caa8e7,2021-07-07_09h17.10.521,Simcolourproject_2stim_asymm_v5,2020.2.10,Win32,60,60e52e7cfedb1dae636df45f,,,,,,,,,2562,-18,-51,1,0,0,response5disk,,3,5,-21,1,0,0,rectangle,5,-21,1,0,0,5,-21,1,0,0,0,135,135,35,1,,,,,,,,
,,,,,,,,,,,,,FF,,,,,,,,1.9521,,,,,,,,,,,,,,,,,,,,,,60e55bb59cfd0aa9803b4470,60e562e617f6596bf5caa8e7,2021-07-07_09h17.10.521,Simcolourproject_2stim_asymm_v5,2020.2.10,Win32,60,60e52e7cfedb1dae636df45f,,,,,,,,,2447,-47,-20,1,0,0,response5disk,,2,6,-2,1,0,0,rectangle,6,-2,1,0,0,6,-2,1,0,0,0,136,136,84,1,,,,,,,,
,,,,,,,,,,,,,FF,,,,,,,,1.3382,,,,,,,,,,,,,,,,,,,,,,60e55bb59cfd0aa9803b4470,60e562e617f6596bf5caa8e7,2021-07-07_09h17.10.521,Simcolourproject_2stim_asymm_v5,2020.2.10,Win32,60,60e52e7cfedb1dae636df45f,,,,,,,,,1980,-30,-41,1,0,0,response5disk,,3,10,-4,1,0,0,rectangle,10,-4,1,0,0,10,-4,1,0,0,0,137,137,5,1,,,,,,,,
,,,,,,,,,,,,,FF,,,,,,,,0.9997,,,,,,,,,,,,,,,,,,,,,,60e55bb59cfd0aa9803b4470,60e562e617f6596bf5caa8e7,2021-07-07_09h17.10.521,Simcolourproject_2stim_asymm_v5,2020.2.10,Win32,60,60e52e7cfedb1dae636df45f,,,,,,,,,2268,-24,-46,1,0,0,response5disk,,3,1,-3,1,0,0,rectangle,1,-3,1,0,0,1,-3,1,0,0,0,138,138,47,1,,,,,,,,
,,,,,,,,,,,,,FF,,,,,,,,1.0493,,,,,,,,,,,,,,,,,,,,,,60e55bb59cfd0aa9803b4470,60e562e617f6596bf5caa8e7,2021-07-07_09h17.10.521,Simcolourproject_2stim_asymm_v5,2020.2.10,Win32,60,60e52e7cfedb1dae636df45f,,,,,,,,,1233,55,-26,1,0,0,response3disk,,5,-2,9,1,0,0,rectangle,-2,9,1,0,0,-2,9,1,0,0,0,139,139,77,1,,,,,,,,
,,,,,,,,,,,,,FF,,,,,,,,1.0489,,,,,,,,,,,,,,,,,,,,,,60e55bb59cfd0aa9803b4470,60e562e617f6596bf5caa8e7,2021-07-07_09h17.10.521,Simcolourproject_2stim_asymm_v5,2020.2.10,Win32,60,60e52e7cfedb1dae636df45f,,,,,,,,,2844,-26,64,1,0,0,response7disk,,0,2,8,1,0,0,rectangle,2,8,1,0,0,2,8,1,0,0,0,140,140,148,1,,,,,,,,
,,,,,,,,,,,,,FF,,,,,,,,0.9324,,,,,,,,,,,,,,,,,,,,,,60e55bb59cfd0aa9803b4470,60e562e617f6596bf5caa8e7,2021-07-07_09h17.10.521,Simcolourproject_2stim_asymm_v5,2020.2.10,Win32,60,60e52e7cfedb1dae636df45f,,,,,,,,,3167,-48,-26,1,0,0,response5disk,,2,-2,-5,1,0,0,rectangle,-2,-5,1,0,0,-2,-5,1,0,0,0,141,141,98,1,,,,,,,,
,,,,,,,,,,,,,FF,,,,,,,,0.6667,,,,,,,,,,,,,,,,,,,,,,60e55bb59cfd0aa9803b4470,60e562e617f6596bf5caa8e7,2021-07-07_09h17.10.521,Simcolourproject_2stim_asymm_v5,2020.2.10,Win32,60,60e52e7cfedb1dae636df45f,,,,,,,,,1797,-30,56,1,0,0,response7disk,,0,3,2,1,0,0,rectangle,3,2,1,0,0,3,2,1,0,0,0,142,142,40,1,,,,,,,,
,,,,,,,,,,,,,FF,,,,,,,,1.1492,,,,,,,,,,,,,,,,,,,,,,60e55bb59cfd0aa9803b4470,60e562e617f6596bf5caa8e7,2021-07-07_09h17.10.521,Simcolourproject_2stim_asymm_v5,2020.2.10,Win32,60,60e52e7cfedb1dae636df45f,,,,,,,,,1116,-26,51,1,0,0,response7disk,,0,-10,11,1,0,0,rectangle,-10,11,1,0,0,-10,11,1,0,0,0,143,143,86,1,,,,,,,,
,,,,,,,,,,,,,FF,,,,,,,,1.0491,,,,,,,,,,,,,,,,,,,,,,60e55bb59cfd0aa9803b4470,60e562e617f6596bf5caa8e7,2021-07-07_09h17.10.521,Simcolourproject_2stim_asymm_v5,2020.2.10,Win32,60,60e52e7cfedb1dae636df45f,,,,,,,,,76,-25,51,1,0,0,response7disk,,0,-7,6,1,0,0,rectangle,-7,6,1,0,0,-7,6,1,0,0,0,144,144,85,1,,,,,,,,
,,,,,,,,,,,,,FF,,,,,,,,0.7994,,,,,,,,,,,,,,,,,,,,,,60e55bb59cfd0aa9803b4470,60e562e617f6596bf5caa8e7,2021-07-07_09h17.10.521,Simcolourproject_2stim_asymm_v5,2020.2.10,Win32,60,60e52e7cfedb1dae636df45f,,,,,,,,,2421,41,23,1,0,0,response1disk,,6,-10,-2,1,0,0,rectangle,-10,-2,1,0,0,-10,-2,1,0,0,0,145,145,12,1,,,,,,,,
,,,,,,,,,,,,,FF,,,,,,,,1.1493,,,,,,,,,,,,,,,,,,,,,,60e55bb59cfd0aa9803b4470,60e562e617f6596bf5caa8e7,2021-07-07_09h17.10.521,Simcolourproject_2stim_asymm_v5,2020.2.10,Win32,60,60e52e7cfedb1dae636df45f,,,,,,,,,3911,-26,-65,1,0,0,response5disk,,3,-4,-4,1,0,0,rectangle,-4,-4,1,0,0,-4,-4,1,0,0,0,146,146,33,1,,,,,,,,
,,,,,,,,,,,,,FF,,,,,,,,0.9373,,,,,,,,,,,,,,,,,,,,,,60e55bb59cfd0aa9803b4470,60e562e617f6596bf5caa8e7,2021-07-07_09h17.10.521,Simcolourproject_2stim_asymm_v5,2020.2.10,Win32,60,60e52e7cfedb1dae636df45f,,,,,,,,,1034,-30,-43,1,0,0,response5disk,,3,-11,6,1,0,0,rectangle,-11,6,1,0,0,-11,6,1,0,0,0,147,147,22,1,,,,,,,,
,,,,,,,,,,,,,FF,,,,,,,,0.7342,,,,,,,,,,,,,,,,,,,,,,60e55bb59cfd0aa9803b4470,60e562e617f6596bf5caa8e7,2021-07-07_09h17.10.521,Simcolourproject_2stim_asymm_v5,2020.2.10,Win32,60,60e52e7cfedb1dae636df45f,,,,,,,,,455,24,49,1,0,0,response1disk,,7,-5,-5,1,0,0,rectangle,-5,-5,1,0,0,-5,-5,1,0,0,0,148,148,21,1,,,,,,,,
,,,,,,,,,,,,,FF,,,,,,,,1.5489,,,,,,,,,,,,,,,,,,,,,,60e55bb59cfd0aa9803b4470,60e562e617f6596bf5caa8e7,2021-07-07_09h17.10.521,Simcolourproject_2stim_asymm_v5,2020.2.10,Win32,60,60e52e7cfedb1dae636df45f,,,,,,,,,781,-53,-26,1,0,0,response5disk,,2,-9,3,1,0,0,rectangle,-9,3,1,0,0,-9,3,1,0,0,0,149,149,32,1,,,,,,,,
,,,,,,,,,,,,,FF,,,,,,,,0.8096,,,,,,,,,,,,,,,,,,,,,,60e55bb59cfd0aa9803b4470,60e562e617f6596bf5caa8e7,2021-07-07_09h17.10.521,Simcolourproject_2stim_asymm_v5,2020.2.10,Win32,60,60e52e7cfedb1dae636df45f,,,,,,,,,3513,17,-42,1,0,0,response3disk,,4,2,4,1,0,0,rectangle,2,4,1,0,0,2,4,1,0,0,0,150,150,132,1,,,,,,,,
,,,,,,,,,,,,,FF,,,,,,,,0.9825,,,,,,,,,,,,,,,,,,,,,,60e55bb59cfd0aa9803b4470,60e562e617f6596bf5caa8e7,2021-07-07_09h17.10.521,Simcolourproject_2stim_asymm_v5,2020.2.10,Win32,60,60e52e7cfedb1dae636df45f,,,,,,,,,3097,40,20,1,0,0,response1disk,,6,-13,1,1,0,0,rectangle,-13,1,1,0,0,-13,1,1,0,0,0,151,151,43,1,,,,,,,,
,,,,,,,,,,,,,FF,,,,,,,,1.2854,,,,,,,,,,,,,,,,,,,,,,60e55bb59cfd0aa9803b4470,60e562e617f6596bf5caa8e7,2021-07-07_09h17.10.521,Simcolourproject_2stim_asymm_v5,2020.2.10,Win32,60,60e52e7cfedb1dae636df45f,,,,,,,,,1262,23,-43,1,0,0,response3disk,,4,-11,6,1,0,0,rectangle,-11,6,1,0,0,-11,6,1,0,0,0,152,152,151,1,,,,,,,,
,,,,,,,,,,,,,FF,,,,,,,,0.8003,,,,,,,,,,,,,,,,,,,,,,60e55bb59cfd0aa9803b4470,60e562e617f6596bf5caa8e7,2021-07-07_09h17.10.521,Simcolourproject_2stim_asymm_v5,2020.2.10,Win32,60,60e52e7cfedb1dae636df45f,,,,,,,,,2461,-24,-43,1,0,0,response5disk,,3,-11,1,1,0,0,rectangle,-11,1,1,0,0,-11,1,1,0,0,0,153,153,14,1,,,,,,,,
,,,,,,,,,,,,,FF,,,,,,,,1.3681,,,,,,,,,,,,,,,,,,,,,,60e55bb59cfd0aa9803b4470,60e562e617f6596bf5caa8e7,2021-07-07_09h17.10.521,Simcolourproject_2stim_asymm_v5,2020.2.10,Win32,60,60e52e7cfedb1dae636df45f,,,,,,,,,554,-44,-24,1,0,0,response5disk,,2,-8,-4,1,0,0,rectangle,-8,-4,1,0,0,-8,-4,1,0,0,0,154,154,57,1,,,,,,,,
,,,,,,,,,,,,,FF,,,,,,,,0.8676,,,,,,,,,,,,,,,,,,,,,,60e55bb59cfd0aa9803b4470,60e562e617f6596bf5caa8e7,2021-07-07_09h17.10.521,Simcolourproject_2stim_asymm_v5,2020.2.10,Win32,60,60e52e7cfedb1dae636df45f,,,,,,,,,1968,50,-27,1,0,0,response3disk,,5,6,-2,1,0,0,rectangle,6,-2,1,0,0,6,-2,1,0,0,0,155,155,31,1,,,,,,,,
,,,,,,,,,,,,,FF,,,,,,,,1.2844,,,,,,,,,,,,,,,,,,,,,,60e55bb59cfd0aa9803b4470,60e562e617f6596bf5caa8e7,2021-07-07_09h17.10.521,Simcolourproject_2stim_asymm_v5,2020.2.10,Win32,60,60e52e7cfedb1dae636df45f,,,,,,,,,2814,-59,21,1,0,0,response7disk,,1,-3,3,1,0,0,rectangle,-3,3,1,0,0,-3,3,1,0,0,0,156,156,118,1,,,,,,,,
,,,,,,,,,,,,,FF,,,,,,,,1.0158,,,,,,,,,,,,,,,,,,,,,,60e55bb59cfd0aa9803b4470,60e562e617f6596bf5caa8e7,2021-07-07_09h17.10.521,Simcolourproject_2stim_asymm_v5,2020.2.10,Win32,60,60e52e7cfedb1dae636df45f,,,,,,,,,2757,-40,-28,1,0,0,response5disk,,2,-3,7,1,0,0,rectangle,-3,7,1,0,0,-3,7,1,0,0,0,157,157,99,1,,,,,,,,
,,,,,,,,,,,,,FF,,,,,,,,1.0017,,,,,,,,,,,,,,,,,,,,,,60e55bb59cfd0aa9803b4470,60e562e617f6596bf5caa8e7,2021-07-07_09h17.10.521,Simcolourproject_2stim_asymm_v5,2020.2.10,Win32,60,60e52e7cfedb1dae636df45f,,,,,,,,,3792,-24,43,1,0,0,response7disk,,0,6,6,1,0,0,rectangle,6,6,1,0,0,6,6,1,0,0,0,158,158,8,1,,,,,,,,
,,,,,,,,,,,,,FF,,,,,,,,1.4012,,,,,,,,,,,,,,,,,,,,,,60e55bb59cfd0aa9803b4470,60e562e617f6596bf5caa8e7,2021-07-07_09h17.10.521,Simcolourproject_2stim_asymm_v5,2020.2.10,Win32,60,60e52e7cfedb1dae636df45f,,,,,,,,,2452,-43,27,1,0,0,response7disk,,1,-1,-2,1,0,0,rectangle,-1,-2,1,0,0,-1,-2,1,0,0,0,159,159,1,1,,,,,,,,
,,,,,,,,,,,,,FF,,,,,,,,1.0013,,,,,,,,,,,,,,,,,,,,,,60e55bb59cfd0aa9803b4470,60e562e617f6596bf5caa8e7,2021-07-07_09h17.10.521,Simcolourproject_2stim_asymm_v5,2020.2.10,Win32,60,60e52e7cfedb1dae636df45f,,,,,,,,,1188,-18,54,1,0,0,response7disk,,0,7,2,1,0,0,rectangle,7,2,1,0,0,7,2,1,0,0,1,0,160,36,1,,,,,,,,
,,,,,,,,,,,,,FF,,,,,,,,1.1182,,,,,,,,,,,,,,,,,,,,,,60e55bb59cfd0aa9803b4470,60e562e617f6596bf5caa8e7,2021-07-07_09h17.10.521,Simcolourproject_2stim_asymm_v5,2020.2.10,Win32,60,60e52e7cfedb1dae636df45f,,,,,,,,,3101,22,-49,1,0,0,response3disk,,4,3,-13,1,0,0,rectangle,3,-13,1,0,0,3,-13,1,0,0,1,1,161,93,1,,,,,,,,
,,,,,,,,,,,,,FF,,,,,,,,1.7824,,,,,,,,,,,,,,,,,,,,,,60e55bb59cfd0aa9803b4470,60e562e617f6596bf5caa8e7,2021-07-07_09h17.10.521,Simcolourproject_2stim_asymm_v5,2020.2.10,Win32,60,60e52e7cfedb1dae636df45f,,,,,,,,,1571,-41,28,1,0,0,response7disk,,1,1,3,1,0,0,rectangle,1,3,1,0,0,1,3,1,0,0,1,2,162,140,1,,,,,,,,
,,,,,,,,,,,,,FF,,,,,,,,1.5152,,,,,,,,,,,,,,,,,,,,,,60e55bb59cfd0aa9803b4470,60e562e617f6596bf5caa8e7,2021-07-07_09h17.10.521,Simcolourproject_2stim_asymm_v5,2020.2.10,Win32,60,60e52e7cfedb1dae636df45f,,,,,,,,,3207,-13,56,1,0,0,response7disk,,0,8,18,1,0,0,rectangle,8,18,1,0,0,8,18,1,0,0,1,3,163,156,1,,,,,,,,
,,,,,,,,,,,,,FF,,,,,,,,1.0327,,,,,,,,,,,,,,,,,,,,,,60e55bb59cfd0aa9803b4470,60e562e617f6596bf5caa8e7,2021-07-07_09h17.10.521,Simcolourproject_2stim_asymm_v5,2020.2.10,Win32,60,60e52e7cfedb1dae636df45f,,,,,,,,,2261,-52,-30,1,0,0,response5disk,,2,-7,5,1,0,0,rectangle,-7,5,1,0,0,-7,5,1,0,0,1,4,164,23,1,,,,,,,,
,,,,,,,,,,,,,FF,,,,,,,,1.1319,,,,,,,,,,,,,,,,,,,,,,60e55bb59cfd0aa9803b4470,60e562e617f6596bf5caa8e7,2021-07-07_09h17.10.521,Simcolourproject_2stim_asymm_v5,2020.2.10,Win32,60,60e52e7cfedb1dae636df45f,,,,,,,,,833,-23,-43,1,0,0,response5disk,,3,18,11,1,0,0,rectangle,18,11,1,0,0,18,11,1,0,0,1,5,165,27,1,,,,,,,,
,,,,,,,,,,,,,FF,,,,,,,,1.0161,,,,,,,,,,,,,,,,,,,,,,60e55bb59cfd0aa9803b4470,60e562e617f6596bf5caa8e7,2021-07-07_09h17.10.521,Simcolourproject_2stim_asymm_v5,2020.2.10,Win32,60,60e52e7cfedb1dae636df45f,,,,,,,,,4340,20,-44,1,0,0,response3disk,,4,-3,9,1,0,0,rectangle,-3,9,1,0,0,-3,9,1,0,0,1,6,166,153,1,,,,,,,,
,,,,,,,,,,,,,FF,,,,,,,,1.0986,,,,,,,,,,,,,,,,,,,,,,60e55bb59cfd0aa9803b4470,60e562e617f6596bf5caa8e7,2021-07-07_09h17.10.521,Simcolourproject_2stim_asymm_v5,2020.2.10,Win32,60,60e52e7cfedb1dae636df45f,,,,,,,,,1706,-35,55,1,0,0,response7disk,,0,-16,9,1,0,0,rectangle,-16,9,1,0,0,-16,9,1,0,0,1,7,167,40,1,,,,,,,,
,,,,,,,,,,,,,FF,,,,,,,,0.7163,,,,,,,,,,,,,,,,,,,,,,60e55bb59cfd0aa9803b4470,60e562e617f6596bf5caa8e7,2021-07-07_09h17.10.521,Simcolourproject_2stim_asymm_v5,2020.2.10,Win32,60,60e52e7cfedb1dae636df45f,,,,,,,,,331,-18,37,1,0,0,response7disk,,0,8,-11,1,0,0,rectangle,8,-11,1,0,0,8,-11,1,0,0,1,8,168,134,1,,,,,,,,
,,,,,,,,,,,,,FF,,,,,,,,0.7409,,,,,,,,,,,,,,,,,,,,,,60e55bb59cfd0aa9803b4470,60e562e617f6596bf5caa8e7,2021-07-07_09h17.10.521,Simcolourproject_2stim_asymm_v5,2020.2.10,Win32,60,60e52e7cfedb1dae636df45f,,,,,,,,,3307,-19,38,1,0,0,response7disk,,0,5,0,1,0,0,rectangle,5,0,1,0,0,5,0,1,0,0,1,9,169,10,1,,,,,,,,
,,,,,,,,,,,,,FF,,,,,,,,0.6162,,,,,,,,,,,,,,,,,,,,,,60e55bb59cfd0aa9803b4470,60e562e617f6596bf5caa8e7,2021-07-07_09h17.10.521,Simcolourproject_2stim_asymm_v5,2020.2.10,Win32,60,60e52e7cfedb1dae636df45f,,,,,,,,,2050,-27,46,1,0,0,response7disk,,0,-1,-1,1,0,0,rectangle,-1,-1,1,0,0,-1,-1,1,0,0,1,10,170,106,1,,,,,,,,
,,,,,,,,,,,,,FF,,,,,,,,0.8159,,,,,,,,,,,,,,,,,,,,,,60e55bb59cfd0aa9803b4470,60e562e617f6596bf5caa8e7,2021-07-07_09h17.10.521,Simcolourproject_2stim_asymm_v5,2020.2.10,Win32,60,60e52e7cfedb1dae636df45f,,,,,,,,,1578,-40,-21,1,0,0,response5disk,,2,-4,3,1,0,0,rectangle,-4,3,1,0,0,-4,3,1,0,0,1,11,171,48,1,,,,,,,,
,,,,,,,,,,,,,FF,,,,,,,,1.1165,,,,,,,,,,,,,,,,,,,,,,60e55bb59cfd0aa9803b4470,60e562e617f6596bf5caa8e7,2021-07-07_09h17.10.521,Simcolourproject_2stim_asymm_v5,2020.2.10,Win32,60,60e52e7cfedb1dae636df45f,,,,,,,,,2638,-14,48,1,0,0,response7disk,,0,2,6,1,0,0,rectangle,2,6,1,0,0,2,6,1,0,0,1,12,172,54,1,,,,,,,,
,,,,,,,,,,,,,FF,,,,,,,,1.1491,,,,,,,,,,,,,,,,,,,,,,60e55bb59cfd0aa9803b4470,60e562e617f6596bf5caa8e7,2021-07-07_09h17.10.521,Simcolourproject_2stim_asymm_v5,2020.2.10,Win32,60,60e52e7cfedb1dae636df45f,,,,,,,,,3819,21,-49,1,0,0,response3disk,,4,5,-3,1,0,0,rectangle,5,-3,1,0,0,5,-3,1,0,0,1,13,173,30,1,,,,,,,,
,,,,,,,,,,,,,FF,,,,,,,,0.8663,,,,,,,,,,,,,,,,,,,,,,60e55bb59cfd0aa9803b4470,60e562e617f6596bf5caa8e7,2021-07-07_09h17.10.521,Simcolourproject_2stim_asymm_v5,2020.2.10,Win32,60,60e52e7cfedb1dae636df45f,,,,,,,,,3031,-25,57,1,0,0,response7disk,,0,6,6,1,0,0,rectangle,6,6,1,0,0,6,6,1,0,0,1,14,174,152,1,,,,,,,,
,,,,,,,,,,,,,FF,,,,,,,,0.7326,,,,,,,,,,,,,,,,,,,,,,60e55bb59cfd0aa9803b4470,60e562e617f6596bf5caa8e7,2021-07-07_09h17.10.521,Simcolourproject_2stim_asymm_v5,2020.2.10,Win32,60,60e52e7cfedb1dae636df45f,,,,,,,,,732,43,-21,1,0,0,response3disk,,5,-1,17,1,0,0,rectangle,-1,17,1,0,0,-1,17,1,0,0,1,15,175,102,1,,,,,,,,
,,,,,,,,,,,,,FF,,,,,,,,1.0323,,,,,,,,,,,,,,,,,,,,,,60e55bb59cfd0aa9803b4470,60e562e617f6596bf5caa8e7,2021-07-07_09h17.10.521,Simcolourproject_2stim_asymm_v5,2020.2.10,Win32,60,60e52e7cfedb1dae636df45f,,,,,,,,,1464,37,-21,1,0,0,response3disk,,5,-11,13,1,0,0,rectangle,-11,13,1,0,0,-11,13,1,0,0,1,16,176,67,1,,,,,,,,
,,,,,,,,,,,,,FF,,,,,,,,0.8994,,,,,,,,,,,,,,,,,,,,,,60e55bb59cfd0aa9803b4470,60e562e617f6596bf5caa8e7,2021-07-07_09h17.10.521,Simcolourproject_2stim_asymm_v5,2020.2.10,Win32,60,60e52e7cfedb1dae636df45f,,,,,,,,,3540,-20,44,1,0,0,response7disk,,0,1,2,1,0,0,rectangle,1,2,1,0,0,1,2,1,0,0,1,17,177,64,1,,,,,,,,
,,,,,,,,,,,,,FF,,,,,,,,1.3322,,,,,,,,,,,,,,,,,,,,,,60e55bb59cfd0aa9803b4470,60e562e617f6596bf5caa8e7,2021-07-07_09h17.10.521,Simcolourproject_2stim_asymm_v5,2020.2.10,Win32,60,60e52e7cfedb1dae636df45f,,,,,,,,,4012,-25,51,1,0,0,response7disk,,0,1,2,1,0,0,rectangle,1,2,1,0,0,1,2,1,0,0,1,18,178,115,1,,,,,,,,
,,,,,,,,,,,,,FF,,,,,,,,0.8326,,,,,,,,,,,,,,,,,,,,,,60e55bb59cfd0aa9803b4470,60e562e617f6596bf5caa8e7,2021-07-07_09h17.10.521,Simcolourproject_2stim_asymm_v5,2020.2.10,Win32,60,60e52e7cfedb1dae636df45f,,,,,,,,,3788,-49,-23,1,0,0,response5disk,,2,4,-2,1,0,0,rectangle,4,-2,1,0,0,4,-2,1,0,0,1,19,179,114,1,,,,,,,,
,,,,,,,,,,,,,FF,,,,,,,,1.166,,,,,,,,,,,,,,,,,,,,,,60e55bb59cfd0aa9803b4470,60e562e617f6596bf5caa8e7,2021-07-07_09h17.10.521,Simcolourproject_2stim_asymm_v5,2020.2.10,Win32,60,60e52e7cfedb1dae636df45f,,,,,,,,,3638,-21,43,1,0,0,response7disk,,0,0,-9,1,0,0,rectangle,0,-9,1,0,0,0,-9,1,0,0,1,20,180,9,1,,,,,,,,
,,,,,,,,,,,,,FF,,,,,,,,0.716,,,,,,,,,,,,,,,,,,,,,,60e55bb59cfd0aa9803b4470,60e562e617f6596bf5caa8e7,2021-07-07_09h17.10.521,Simcolourproject_2stim_asymm_v5,2020.2.10,Win32,60,60e52e7cfedb1dae636df45f,,,,,,,,,1523,56,29,1,0,0,response1disk,,6,-3,-1,1,0,0,rectangle,-3,-1,1,0,0,-3,-1,1,0,0,1,21,181,157,1,,,,,,,,
,,,,,,,,,,,,,FF,,,,,,,,1.0166,,,,,,,,,,,,,,,,,,,,,,60e55bb59cfd0aa9803b4470,60e562e617f6596bf5caa8e7,2021-07-07_09h17.10.521,Simcolourproject_2stim_asymm_v5,2020.2.10,Win32,60,60e52e7cfedb1dae636df45f,,,,,,,,,3484,50,-27,1,0,0,response3disk,,5,-1,7,1,0,0,rectangle,-1,7,1,0,0,-1,7,1,0,0,1,22,182,81,1,,,,,,,,
,,,,,,,,,,,,,FF,,,,,,,,0.8492,,,,,,,,,,,,,,,,,,,,,,60e55bb59cfd0aa9803b4470,60e562e617f6596bf5caa8e7,2021-07-07_09h17.10.521,Simcolourproject_2stim_asymm_v5,2020.2.10,Win32,60,60e52e7cfedb1dae636df45f,,,,,,,,,225,-26,55,1,0,0,response7disk,,0,-6,3,1,0,0,rectangle,-6,3,1,0,0,-6,3,1,0,0,1,23,183,39,1,,,,,,,,
,,,,,,,,,,,,,FF,,,,,,,,0.6413,,,,,,,,,,,,,,,,,,,,,,60e55bb59cfd0aa9803b4470,60e562e617f6596bf5caa8e7,2021-07-07_09h17.10.521,Simcolourproject_2stim_asymm_v5,2020.2.10,Win32,60,60e52e7cfedb1dae636df45f,,,,,,,,,2624,-30,51,1,0,0,response7disk,,0,2,-13,1,0,0,rectangle,2,-13,1,0,0,2,-13,1,0,0,1,24,184,28,1,,,,,,,,
,,,,,,,,,,,,,FF,,,,,,,,1.0151,,,,,,,,,,,,,,,,,,,,,,60e55bb59cfd0aa9803b4470,60e562e617f6596bf5caa8e7,2021-07-07_09h17.10.521,Simcolourproject_2stim_asymm_v5,2020.2.10,Win32,60,60e52e7cfedb1dae636df45f,,,,,,,,,2713,22,-40,1,0,0,response3disk,,4,0,18,1,0,0,rectangle,0,18,1,0,0,0,18,1,0,0,1,25,185,146,1,,,,,,,,
,,,,,,,,,,,,,FF,,,,,,,,0.9179,,,,,,,,,,,,,,,,,,,,,,60e55bb59cfd0aa9803b4470,60e562e617f6596bf5caa8e7,2021-07-07_09h17.10.521,Simcolourproject_2stim_asymm_v5,2020.2.10,Win32,60,60e52e7cfedb1dae636df45f,,,,,,,,,2951,25,-36,1,0,0,response3disk,,4,4,11,1,0,0,rectangle,4,11,1,0,0,4,11,1,0,0,1,26,186,122,1,,,,,,,,
,,,,,,,,,,,,,FF,,,,,,,,0.8008,,,,,,,,,,,,,,,,,,,,,,60e55bb59cfd0aa9803b4470,60e562e617f6596bf5caa8e7,2021-07-07_09h17.10.521,Simcolourproject_2stim_asymm_v5,2020.2.10,Win32,60,60e52e7cfedb1dae636df45f,,,,,,,,,3064,-45,-15,1,0,0,response5disk,,2,-10,17,1,0,0,rectangle,-10,17,1,0,0,-10,17,1,0,0,1,27,187,83,1,,,,,,,,
,,,,,,,,,,,,,FF,,,,,,,,1.1024,,,,,,,,,,,,,,,,,,,,,,60e55bb59cfd0aa9803b4470,60e562e617f6596bf5caa8e7,2021-07-07_09h17.10.521,Simcolourproject_2stim_asymm_v5,2020.2.10,Win32,60,60e52e7cfedb1dae636df45f,,,,,,,,,3594,-25,-46,1,0,0,response5disk,,3,-6,11,1,0,0,rectangle,-6,11,1,0,0,-6,11,1,0,0,1,28,188,148,1,,,,,,,,
,,,,,,,,,,,,,FF,,,,,,,,0.7342,,,,,,,,,,,,,,,,,,,,,,60e55bb59cfd0aa9803b4470,60e562e617f6596bf5caa8e7,2021-07-07_09h17.10.521,Simcolourproject_2stim_asymm_v5,2020.2.10,Win32,60,60e52e7cfedb1dae636df45f,,,,,,,,,1506,-24,57,1,0,0,response7disk,,0,4,4,1,0,0,rectangle,4,4,1,0,0,4,4,1,0,0,1,29,189,128,1,,,,,,,,
,,,,,,,,,,,,,FF,,,,,,,,0.8337,,,,,,,,,,,,,,,,,,,,,,60e55bb59cfd0aa9803b4470,60e562e617f6596bf5caa8e7,2021-07-07_09h17.10.521,Simcolourproject_2stim_asymm_v5,2020.2.10,Win32,60,60e52e7cfedb1dae636df45f,,,,,,,,,2031,53,26,1,0,0,response1disk,,6,4,6,1,0,0,rectangle,4,6,1,0,0,4,6,1,0,0,1,30,190,37,1,,,,,,,,
,,,,,,,,,,,,,FF,,,,,,,,0.9347,,,,,,,,,,,,,,,,,,,,,,60e55bb59cfd0aa9803b4470,60e562e617f6596bf5caa8e7,2021-07-07_09h17.10.521,Simcolourproject_2stim_asymm_v5,2020.2.10,Win32,60,60e52e7cfedb1dae636df45f,,,,,,,,,513,-24,46,1,0,0,response7disk,,0,-7,-5,1,0,0,rectangle,-7,-5,1,0,0,-7,-5,1,0,0,1,31,191,63,1,,,,,,,,
,,,,,,,,,,,,,FF,,,,,,,,0.7348,,,,,,,,,,,,,,,,,,,,,,60e55bb59cfd0aa9803b4470,60e562e617f6596bf5caa8e7,2021-07-07_09h17.10.521,Simcolourproject_2stim_asymm_v5,2020.2.10,Win32,60,60e52e7cfedb1dae636df45f,,,,,,,,,986,43,-20,1,0,0,response3disk,,5,0,12,1,0,0,rectangle,0,12,1,0,0,0,12,1,0,0,1,32,192,100,1,,,,,,,,
,,,,,,,,,,,,,FF,,,,,,,,0.834,,,,,,,,,,,,,,,,,,,,,,60e55bb59cfd0aa9803b4470,60e562e617f6596bf5caa8e7,2021-07-07_09h17.10.521,Simcolourproject_2stim_asymm_v5,2020.2.10,Win32,60,60e52e7cfedb1dae636df45f,,,,,,,,,471,-18,53,1,0,0,response7disk,,0,-3,5,1,0,0,rectangle,-3,5,1,0,0,-3,5,1,0,0,1,33,193,132,1,,,,,,,,
,,,,,,,,,,,,,FF,,,,,,,,1.0019,,,,,,,,,,,,,,,,,,,,,,60e55bb59cfd0aa9803b4470,60e562e617f6596bf5caa8e7,2021-07-07_09h17.10.521,Simcolourproject_2stim_asymm_v5,2020.2.10,Win32,60,60e52e7cfedb1dae636df45f,,,,,,,,,2715,50,-27,1,0,0,response3disk,,5,-2,-1,1,0,0,rectangle,26,61,1,0,0,-6,2,1,0,0,1,34,194,117,1,,response1disk_3,TRUE,7,7,"[227,109,220,264,25,115,209,17,131,38,47,2,15,3,300,53,195,309,281,220]",1.4684,rectangle
,,,,,,,,,,,,,FF,,,,,,,,0.852,,,,,,,,,,,,,,,,,,,,,,60e55bb59cfd0aa9803b4470,60e562e617f6596bf5caa8e7,2021-07-07_09h17.10.521,Simcolourproject_2stim_asymm_v5,2020.2.10,Win32,60,60e52e7cfedb1dae636df45f,,,,,,,,,1753,26,16,1,0,0,response1disk,,6,-10,-4,1,0,0,rectangle,-10,-4,1,0,0,-10,-4,1,0,0,1,35,195,58,1,,,,,,,,
,,,,,,,,,,,,,FF,,,,,,,,0.733,,,,,,,,,,,,,,,,,,,,,,60e55bb59cfd0aa9803b4470,60e562e617f6596bf5caa8e7,2021-07-07_09h17.10.521,Simcolourproject_2stim_asymm_v5,2020.2.10,Win32,60,60e52e7cfedb1dae636df45f,,,,,,,,,1400,-18,48,1,0,0,response7disk,,0,0,7,1,0,0,rectangle,0,7,1,0,0,0,7,1,0,0,1,36,196,13,1,,,,,,,,
,,,,,,,,,,,,,FF,,,,,,,,0.5494,,,,,,,,,,,,,,,,,,,,,,60e55bb59cfd0aa9803b4470,60e562e617f6596bf5caa8e7,2021-07-07_09h17.10.521,Simcolourproject_2stim_asymm_v5,2020.2.10,Win32,60,60e52e7cfedb1dae636df45f,,,,,,,,,3231,-26,39,1,0,0,response7disk,,0,0,-9,1,0,0,rectangle,0,-9,1,0,0,0,-9,1,0,0,1,37,197,108,1,,,,,,,,
,,,,,,,,,,,,,FF,,,,,,,,0.7826,,,,,,,,,,,,,,,,,,,,,,60e55bb59cfd0aa9803b4470,60e562e617f6596bf5caa8e7,2021-07-07_09h17.10.521,Simcolourproject_2stim_asymm_v5,2020.2.10,Win32,60,60e52e7cfedb1dae636df45f,,,,,,,,,1142,53,26,1,0,0,response1disk,,6,8,2,1,0,0,rectangle,8,2,1,0,0,8,2,1,0,0,1,38,198,61,1,,,,,,,,
,,,,,,,,,,,,,FF,,,,,,,,0.6667,,,,,,,,,,,,,,,,,,,,,,60e55bb59cfd0aa9803b4470,60e562e617f6596bf5caa8e7,2021-07-07_09h17.10.521,Simcolourproject_2stim_asymm_v5,2020.2.10,Win32,60,60e52e7cfedb1dae636df45f,,,,,,,,,1998,-14,47,1,0,0,response7disk,,0,2,0,1,0,0,rectangle,2,0,1,0,0,2,0,1,0,0,1,39,199,95,1,,,,,,,,
,,,,,,,,,,,,,FF,,,,,,,,1.2152,,,,,,,,,,,,,,,,,,,,,,60e55bb59cfd0aa9803b4470,60e562e617f6596bf5caa8e7,2021-07-07_09h17.10.521,Simcolourproject_2stim_asymm_v5,2020.2.10,Win32,60,60e52e7cfedb1dae636df45f,,,,,,,,,3752,-48,-20,1,0,0,response5disk,,2,-5,3,1,0,0,rectangle,-5,3,1,0,0,-5,3,1,0,0,1,40,200,68,1,,,,,,,,
,,,,,,,,,,,,,FF,,,,,,,,0.5829,,,,,,,,,,,,,,,,,,,,,,60e55bb59cfd0aa9803b4470,60e562e617f6596bf5caa8e7,2021-07-07_09h17.10.521,Simcolourproject_2stim_asymm_v5,2020.2.10,Win32,60,60e52e7cfedb1dae636df45f,,,,,,,,,4257,-32,60,1,0,0,response7disk,,0,1,4,1,0,0,rectangle,1,4,1,0,0,1,4,1,0,0,1,41,201,71,1,,,,,,,,
,,,,,,,,,,,,,FF,,,,,,,,1.3009,,,,,,,,,,,,,,,,,,,,,,60e55bb59cfd0aa9803b4470,60e562e617f6596bf5caa8e7,2021-07-07_09h17.10.521,Simcolourproject_2stim_asymm_v5,2020.2.10,Win32,60,60e52e7cfedb1dae636df45f,,,,,,,,,1397,-18,64,1,0,0,response7disk,,0,-8,-1,1,0,0,rectangle,-8,-1,1,0,0,-8,-1,1,0,0,1,42,202,5,1,,,,,,,,
,,,,,,,,,,,,,FF,,,,,,,,0.7011,,,,,,,,,,,,,,,,,,,,,,60e55bb59cfd0aa9803b4470,60e562e617f6596bf5caa8e7,2021-07-07_09h17.10.521,Simcolourproject_2stim_asymm_v5,2020.2.10,Win32,60,60e52e7cfedb1dae636df45f,,,,,,,,,1570,-20,48,1,0,0,response7disk,,0,1,0,1,0,0,rectangle,1,0,1,0,0,1,0,1,0,0,1,43,203,35,1,,,,,,,,
,,,,,,,,,,,,,FF,,,,,,,,0.6175,,,,,,,,,,,,,,,,,,,,,,60e55bb59cfd0aa9803b4470,60e562e617f6596bf5caa8e7,2021-07-07_09h17.10.521,Simcolourproject_2stim_asymm_v5,2020.2.10,Win32,60,60e52e7cfedb1dae636df45f,,,,,,,,,2804,-32,46,1,0,0,response7disk,,0,-1,-6,1,0,0,rectangle,-1,-6,1,0,0,-1,-6,1,0,0,1,44,204,125,1,,,,,,,,
,,,,,,,,,,,,,FF,,,,,,,,1.4019,,,,,,,,,,,,,,,,,,,,,,60e55bb59cfd0aa9803b4470,60e562e617f6596bf5caa8e7,2021-07-07_09h17.10.521,Simcolourproject_2stim_asymm_v5,2020.2.10,Win32,60,60e52e7cfedb1dae636df45f,,,,,,,,,3006,40,-14,1,0,0,response3disk,,5,-9,12,1,0,0,rectangle,-9,12,1,0,0,-9,12,1,0,0,1,45,205,127,1,,,,,,,,
,,,,,,,,,,,,,FF,,,,,,,,0.5671,,,,,,,,,,,,,,,,,,,,,,60e55bb59cfd0aa9803b4470,60e562e617f6596bf5caa8e7,2021-07-07_09h17.10.521,Simcolourproject_2stim_asymm_v5,2020.2.10,Win32,60,60e52e7cfedb1dae636df45f,,,,,,,,,3768,-20,73,1,0,0,response7disk,,0,-1,2,1,0,0,rectangle,-1,2,1,0,0,-1,2,1,0,0,1,46,206,47,1,,,,,,,,
,,,,,,,,,,,,,FF,,,,,,,,0.634,,,,,,,,,,,,,,,,,,,,,,60e55bb59cfd0aa9803b4470,60e562e617f6596bf5caa8e7,2021-07-07_09h17.10.521,Simcolourproject_2stim_asymm_v5,2020.2.10,Win32,60,60e52e7cfedb1dae636df45f,,,,,,,,,3498,-20,48,1,0,0,response7disk,,0,2,-1,1,0,0,rectangle,2,-1,1,0,0,2,-1,1,0,0,1,47,207,121,1,,,,,,,,
,,,,,,,,,,,,,FF,,,,,,,,0.6503,,,,,,,,,,,,,,,,,,,,,,60e55bb59cfd0aa9803b4470,60e562e617f6596bf5caa8e7,2021-07-07_09h17.10.521,Simcolourproject_2stim_asymm_v5,2020.2.10,Win32,60,60e52e7cfedb1dae636df45f,,,,,,,,,1444,-26,55,1,0,0,response7disk,,0,-3,-3,1,0,0,rectangle,84,-16,1,0,0,20,-5,1,0,0,1,48,208,1,1,,response3disk_3,TRUE,5,5,"[227,109,220,264,25,115,209,17,131,38,47,2,15,3,300,53,195,309,281,220]",1.2855,rectangle
,,,,,,,,,,,,,FF,,,,,,,,1.0015,,,,,,,,,,,,,,,,,,,,,,60e55bb59cfd0aa9803b4470,60e562e617f6596bf5caa8e7,2021-07-07_09h17.10.521,Simcolourproject_2stim_asymm_v5,2020.2.10,Win32,60,60e52e7cfedb1dae636df45f,,,,,,,,,2090,-18,-37,1,0,0,response5disk,,3,0,-2,1,0,0,rectangle,0,-2,1,0,0,0,-2,1,0,0,1,49,209,155,1,,,,,,,,
,,,,,,,,,,,,,FF,,,,,,,,0.8505,,,,,,,,,,,,,,,,,,,,,,60e55bb59cfd0aa9803b4470,60e562e617f6596bf5caa8e7,2021-07-07_09h17.10.521,Simcolourproject_2stim_asymm_v5,2020.2.10,Win32,60,60e52e7cfedb1dae636df45f,,,,,,,,,4192,-26,75,1,0,0,response7disk,,0,2,10,1,0,0,rectangle,2,10,1,0,0,2,10,1,0,0,1,50,210,77,1,,,,,,,,
,,,,,,,,,,,,,FF,,,,,,,,1.4842,,,,,,,,,,,,,,,,,,,,,,60e55bb59cfd0aa9803b4470,60e562e617f6596bf5caa8e7,2021-07-07_09h17.10.521,Simcolourproject_2stim_asymm_v5,2020.2.10,Win32,60,60e52e7cfedb1dae636df45f,,,,,,,,,2048,-26,-46,1,0,0,response5disk,,3,14,-5,1,0,0,rectangle,14,-5,1,0,0,14,-5,1,0,0,1,51,211,98,1,,,,,,,,
,,,,,,,,,,,,,FF,,,,,,,,0.7009,,,,,,,,,,,,,,,,,,,,,,60e55bb59cfd0aa9803b4470,60e562e617f6596bf5caa8e7,2021-07-07_09h17.10.521,Simcolourproject_2stim_asymm_v5,2020.2.10,Win32,60,60e52e7cfedb1dae636df45f,,,,,,,,,926,-26,51,1,0,0,response7disk,,0,6,9,1,0,0,rectangle,6,9,1,0,0,6,9,1,0,0,1,52,212,86,1,,,,,,,,
,,,,,,,,,,,,,FF,,,,,,,,0.9517,,,,,,,,,,,,,,,,,,,,,,60e55bb59cfd0aa9803b4470,60e562e617f6596bf5caa8e7,2021-07-07_09h17.10.521,Simcolourproject_2stim_asymm_v5,2020.2.10,Win32,60,60e52e7cfedb1dae636df45f,,,,,,,,,3376,40,-17,1,0,0,response3disk,,5,3,3,1,0,0,rectangle,3,3,1,0,0,3,3,1,0,0,1,53,213,14,1,,,,,,,,
,,,,,,,,,,,,,FF,,,,,,,,0.9676,,,,,,,,,,,,,,,,,,,,,,60e55bb59cfd0aa9803b4470,60e562e617f6596bf5caa8e7,2021-07-07_09h17.10.521,Simcolourproject_2stim_asymm_v5,2020.2.10,Win32,60,60e52e7cfedb1dae636df45f,,,,,,,,,996,-57,-25,1,0,0,response5disk,,2,-6,-5,1,0,0,rectangle,-6,-5,1,0,0,-6,-5,1,0,0,1,54,214,15,1,,,,,,,,
,,,,,,,,,,,,,FF,,,,,,,,0.8672,,,,,,,,,,,,,,,,,,,,,,60e55bb59cfd0aa9803b4470,60e562e617f6596bf5caa8e7,2021-07-07_09h17.10.521,Simcolourproject_2stim_asymm_v5,2020.2.10,Win32,60,60e52e7cfedb1dae636df45f,,,,,,,,,3933,-14,-44,1,0,0,response5disk,,3,0,-2,1,0,0,rectangle,0,-2,1,0,0,0,-2,1,0,0,1,55,215,25,1,,,,,,,,
,,,,,,,,,,,,,FF,,,,,,,,0.634,,,,,,,,,,,,,,,,,,,,,,60e55bb59cfd0aa9803b4470,60e562e617f6596bf5caa8e7,2021-07-07_09h17.10.521,Simcolourproject_2stim_asymm_v5,2020.2.10,Win32,60,60e52e7cfedb1dae636df45f,,,,,,,,,2082,-37,61,1,0,0,response7disk,,0,-13,15,1,0,0,rectangle,-13,15,1,0,0,-13,15,1,0,0,1,56,216,90,1,,,,,,,,
,,,,,,,,,,,,,FF,,,,,,,,1.0155,,,,,,,,,,,,,,,,,,,,,,60e55bb59cfd0aa9803b4470,60e562e617f6596bf5caa8e7,2021-07-07_09h17.10.521,Simcolourproject_2stim_asymm_v5,2020.2.10,Win32,60,60e52e7cfedb1dae636df45f,,,,,,,,,3212,21,-39,1,0,0,response3disk,,4,0,-3,1,0,0,rectangle,0,-3,1,0,0,0,-3,1,0,0,1,57,217,154,1,,,,,,,,
,,,,,,,,,,,,,FF,,,,,,,,1.6152,,,,,,,,,,,,,,,,,,,,,,60e55bb59cfd0aa9803b4470,60e562e617f6596bf5caa8e7,2021-07-07_09h17.10.521,Simcolourproject_2stim_asymm_v5,2020.2.10,Win32,60,60e52e7cfedb1dae636df45f,,,,,,,,,4054,59,32,1,0,0,response1disk,,6,-15,-6,1,0,0,rectangle,-15,-6,1,0,0,-15,-6,1,0,0,1,58,218,75,1,,,,,,,,
,,,,,,,,,,,,,FF,,,,,,,,1.0329,,,,,,,,,,,,,,,,,,,,,,60e55bb59cfd0aa9803b4470,60e562e617f6596bf5caa8e7,2021-07-07_09h17.10.521,Simcolourproject_2stim_asymm_v5,2020.2.10,Win32,60,60e52e7cfedb1dae636df45f,,,,,,,,,3931,-19,-59,1,0,0,response5disk,,3,1,5,1,0,0,rectangle,-24,68,1,0,0,-1,-5,1,0,0,1,59,219,143,1,,response7disk_3,TRUE,0,0,"[227,109,220,264,25,115,209,17,131,38,47,2,15,3,300,53,195,309,281,220]",1.0987,rectangle
,,,,,,,,,,,,,FF,,,,,,,,0.6847,,,,,,,,,,,,,,,,,,,,,,60e55bb59cfd0aa9803b4470,60e562e617f6596bf5caa8e7,2021-07-07_09h17.10.521,Simcolourproject_2stim_asymm_v5,2020.2.10,Win32,60,60e52e7cfedb1dae636df45f,,,,,,,,,2049,-19,57,1,0,0,response7disk,,0,-8,5,1,0,0,rectangle,-8,5,1,0,0,-8,5,1,0,0,1,60,220,96,1,,,,,,,,
,,,,,,,,,,,,,FF,,,,,,,,0.6999,,,,,,,,,,,,,,,,,,,,,,60e55bb59cfd0aa9803b4470,60e562e617f6596bf5caa8e7,2021-07-07_09h17.10.521,Simcolourproject_2stim_asymm_v5,2020.2.10,Win32,60,60e52e7cfedb1dae636df45f,,,,,,,,,319,-28,58,1,0,0,response7disk,,0,2,13,1,0,0,rectangle,2,13,1,0,0,2,13,1,0,0,1,61,221,139,1,,,,,,,,
,,,,,,,,,,,,,FF,,,,,,,,1.1854,,,,,,,,,,,,,,,,,,,,,,60e55bb59cfd0aa9803b4470,60e562e617f6596bf5caa8e7,2021-07-07_09h17.10.521,Simcolourproject_2stim_asymm_v5,2020.2.10,Win32,60,60e52e7cfedb1dae636df45f,,,,,,,,,107,21,-49,1,0,0,response3disk,,4,-1,4,1,0,0,rectangle,-1,4,1,0,0,-1,4,1,0,0,1,62,222,50,1,,,,,,,,
,,,,,,,,,,,,,FF,,,,,,,,0.5843,,,,,,,,,,,,,,,,,,,,,,60e55bb59cfd0aa9803b4470,60e562e617f6596bf5caa8e7,2021-07-07_09h17.10.521,Simcolourproject_2stim_asymm_v5,2020.2.10,Win32,60,60e52e7cfedb1dae636df45f,,,,,,,,,4037,-24,59,1,0,0,response7disk,,0,4,5,1,0,0,rectangle,4,5,1,0,0,4,5,1,0,0,1,63,223,12,1,,,,,,,,
,,,,,,,,,,,,,FF,,,,,,,,1.7694,,,,,,,,,,,,,,,,,,,,,,60e55bb59cfd0aa9803b4470,60e562e617f6596bf5caa8e7,2021-07-07_09h17.10.521,Simcolourproject_2stim_asymm_v5,2020.2.10,Win32,60,60e52e7cfedb1dae636df45f,,,,,,,,,371,-23,-61,1,0,0,response5disk,,3,-9,-8,1,0,0,rectangle,-9,-8,1,0,0,-9,-8,1,0,0,1,64,224,87,1,,,,,,,,
,,,,,,,,,,,,,FF,,,,,,,,1.2682,,,,,,,,,,,,,,,,,,,,,,60e55bb59cfd0aa9803b4470,60e562e617f6596bf5caa8e7,2021-07-07_09h17.10.521,Simcolourproject_2stim_asymm_v5,2020.2.10,Win32,60,60e52e7cfedb1dae636df45f,,,,,,,,,3358,-15,50,1,0,0,response7disk,,0,-2,5,1,0,0,rectangle,-2,5,1,0,0,-2,5,1,0,0,1,65,225,59,1,,,,,,,,
,,,,,,,,,,,,,FF,,,,,,,,1.102,,,,,,,,,,,,,,,,,,,,,,60e55bb59cfd0aa9803b4470,60e562e617f6596bf5caa8e7,2021-07-07_09h17.10.521,Simcolourproject_2stim_asymm_v5,2020.2.10,Win32,60,60e52e7cfedb1dae636df45f,,,,,,,,,3202,69,-29,1,0,0,response3disk,,5,-4,5,1,0,0,rectangle,29,48,1,0,0,-6,-7,1,0,0,1,66,226,0,1,,response1disk_3,TRUE,7,7,"[227,109,220,264,25,115,209,17,131,38,47,2,15,3,300,53,195,309,281,220]",1.2847,rectangle
,,,,,,,,,,,,,FF,,,,,,,,0.7019,,,,,,,,,,,,,,,,,,,,,,60e55bb59cfd0aa9803b4470,60e562e617f6596bf5caa8e7,2021-07-07_09h17.10.521,Simcolourproject_2stim_asymm_v5,2020.2.10,Win32,60,60e52e7cfedb1dae636df45f,,,,,,,,,1626,-23,49,1,0,0,response7disk,,0,-5,-9,1,0,0,rectangle,-5,-9,1,0,0,-5,-9,1,0,0,1,67,227,76,1,,,,,,,,
,,,,,,,,,,,,,FF,,,,,,,,1.7846,,,,,,,,,,,,,,,,,,,,,,60e55bb59cfd0aa9803b4470,60e562e617f6596bf5caa8e7,2021-07-07_09h17.10.521,Simcolourproject_2stim_asymm_v5,2020.2.10,Win32,60,60e52e7cfedb1dae636df45f,,,,,,,,,1204,-25,-56,1,0,0,response5disk,,3,1,5,1,0,0,rectangle,1,5,1,0,0,1,5,1,0,0,1,68,228,34,1,,,,,,,,
,,,,,,,,,,,,,FF,,,,,,,,0.7798,,,,,,,,,,,,,,,,,,,,,,60e55bb59cfd0aa9803b4470,60e562e617f6596bf5caa8e7,2021-07-07_09h17.10.521,Simcolourproject_2stim_asymm_v5,2020.2.10,Win32,60,60e52e7cfedb1dae636df45f,,,,,,,,,190,51,-29,1,0,0,response3disk,,5,-5,-6,1,0,0,rectangle,-5,-6,1,0,0,-5,-6,1,0,0,1,69,229,19,1,,,,,,,,
,,,,,,,,,,,,,FF,,,,,,,,0.5831,,,,,,,,,,,,,,,,,,,,,,60e55bb59cfd0aa9803b4470,60e562e617f6596bf5caa8e7,2021-07-07_09h17.10.521,Simcolourproject_2stim_asymm_v5,2020.2.10,Win32,60,60e52e7cfedb1dae636df45f,,,,,,,,,1669,-16,61,1,0,0,response7disk,,0,2,7,1,0,0,rectangle,2,7,1,0,0,2,7,1,0,0,1,70,230,29,1,,,,,,,,
,,,,,,,,,,,,,FF,,,,,,,,0.6662,,,,,,,,,,,,,,,,,,,,,,60e55bb59cfd0aa9803b4470,60e562e617f6596bf5caa8e7,2021-07-07_09h17.10.521,Simcolourproject_2stim_asymm_v5,2020.2.10,Win32,60,60e52e7cfedb1dae636df45f,,,,,,,,,2091,-20,46,1,0,0,response7disk,,0,-3,-1,1,0,0,rectangle,-3,-1,1,0,0,-3,-1,1,0,0,1,71,231,45,1,,,,,,,,
,,,,,,,,,,,,,FF,,,,,,,,0.8165,,,,,,,,,,,,,,,,,,,,,,60e55bb59cfd0aa9803b4470,60e562e617f6596bf5caa8e7,2021-07-07_09h17.10.521,Simcolourproject_2stim_asymm_v5,2020.2.10,Win32,60,60e52e7cfedb1dae636df45f,,,,,,,,,264,59,-21,1,0,0,response3disk,,5,5,2,1,0,0,rectangle,5,2,1,0,0,5,2,1,0,0,1,72,232,84,1,,,,,,,,
,,,,,,,,,,,,,FF,,,,,,,,0.5663,,,,,,,,,,,,,,,,,,,,,,60e55bb59cfd0aa9803b4470,60e562e617f6596bf5caa8e7,2021-07-07_09h17.10.521,Simcolourproject_2stim_asymm_v5,2020.2.10,Win32,60,60e52e7cfedb1dae636df45f,,,,,,,,,3406,-24,56,1,0,0,response7disk,,0,-1,1,1,0,0,rectangle,-1,1,1,0,0,-1,1,1,0,0,1,73,233,126,1,,,,,,,,
,,,,,,,,,,,,,FF,,,,,,,,0.7994,,,,,,,,,,,,,,,,,,,,,,60e55bb59cfd0aa9803b4470,60e562e617f6596bf5caa8e7,2021-07-07_09h17.10.521,Simcolourproject_2stim_asymm_v5,2020.2.10,Win32,60,60e52e7cfedb1dae636df45f,,,,,,,,,744,-35,-47,1,0,0,response5disk,,3,-8,7,1,0,0,rectangle,-8,7,1,0,0,-8,7,1,0,0,1,74,234,18,1,,,,,,,,
,,,,,,,,,,,,,FF,,,,,,,,0.5499,,,,,,,,,,,,,,,,,,,,,,60e55bb59cfd0aa9803b4470,60e562e617f6596bf5caa8e7,2021-07-07_09h17.10.521,Simcolourproject_2stim_asymm_v5,2020.2.10,Win32,60,60e52e7cfedb1dae636df45f,,,,,,,,,2317,-24,44,1,0,0,response7disk,,0,4,-8,1,0,0,rectangle,4,-8,1,0,0,4,-8,1,0,0,1,75,235,142,1,,,,,,,,
,,,,,,,,,,,,,FF,,,,,,,,1.0162,,,,,,,,,,,,,,,,,,,,,,60e55bb59cfd0aa9803b4470,60e562e617f6596bf5caa8e7,2021-07-07_09h17.10.521,Simcolourproject_2stim_asymm_v5,2020.2.10,Win32,60,60e52e7cfedb1dae636df45f,,,,,,,,,652,-20,-51,1,0,0,response5disk,,3,1,18,1,0,0,rectangle,1,18,1,0,0,1,18,1,0,0,1,76,236,141,1,,,,,,,,
,,,,,,,,,,,,,FF,,,,,,,,0.5248,,,,,,,,,,,,,,,,,,,,,,60e55bb59cfd0aa9803b4470,60e562e617f6596bf5caa8e7,2021-07-07_09h17.10.521,Simcolourproject_2stim_asymm_v5,2020.2.10,Win32,60,60e52e7cfedb1dae636df45f,,,,,,,,,3727,-26,48,1,0,0,response7disk,,0,-1,-2,1,0,0,rectangle,-1,-2,1,0,0,-1,-2,1,0,0,1,77,237,131,1,,,,,,,,
,,,,,,,,,,,,,FF,,,,,,,,0.4997,,,,,,,,,,,,,,,,,,,,,,60e55bb59cfd0aa9803b4470,60e562e617f6596bf5caa8e7,2021-07-07_09h17.10.521,Simcolourproject_2stim_asymm_v5,2020.2.10,Win32,60,60e52e7cfedb1dae636df45f,,,,,,,,,1648,-28,56,1,0,0,response7disk,,0,-11,5,1,0,0,rectangle,-11,5,1,0,0,-11,5,1,0,0,1,78,238,42,1,,,,,,,,
,,,,,,,,,,,,,FF,,,,,,,,0.9532,,,,,,,,,,,,,,,,,,,,,,60e55bb59cfd0aa9803b4470,60e562e617f6596bf5caa8e7,2021-07-07_09h17.10.521,Simcolourproject_2stim_asymm_v5,2020.2.10,Win32,60,60e52e7cfedb1dae636df45f,,,,,,,,,496,-18,68,1,0,0,response7disk,,0,-8,10,1,0,0,rectangle,-8,10,1,0,0,-8,10,1,0,0,1,79,239,69,1,,,,,,,,
,,,,,,,,,,,,,FF,,,,,,,,0.9678,,,,,,,,,,,,,,,,,,,,,,60e55bb59cfd0aa9803b4470,60e562e617f6596bf5caa8e7,2021-07-07_09h17.10.521,Simcolourproject_2stim_asymm_v5,2020.2.10,Win32,60,60e52e7cfedb1dae636df45f,,,,,,,,,71,-45,-31,1,0,0,response5disk,,2,3,5,1,0,0,rectangle,3,5,1,0,0,3,5,1,0,0,1,80,240,82,1,,,,,,,,
,,,,,,,,,,,,,FF,,,,,,,,0.7673,,,,,,,,,,,,,,,,,,,,,,60e55bb59cfd0aa9803b4470,60e562e617f6596bf5caa8e7,2021-07-07_09h17.10.521,Simcolourproject_2stim_asymm_v5,2020.2.10,Win32,60,60e52e7cfedb1dae636df45f,,,,,,,,,1517,-21,39,1,0,0,response7disk,,0,7,-10,1,0,0,rectangle,7,-10,1,0,0,7,-10,1,0,0,1,81,241,22,1,,,,,,,,
,,,,,,,,,,,,,FF,,,,,,,,0.4838,,,,,,,,,,,,,,,,,,,,,,60e55bb59cfd0aa9803b4470,60e562e617f6596bf5caa8e7,2021-07-07_09h17.10.521,Simcolourproject_2stim_asymm_v5,2020.2.10,Win32,60,60e52e7cfedb1dae636df45f,,,,,,,,,1637,-29,54,1,0,0,response7disk,,0,-12,11,1,0,0,rectangle,-12,11,1,0,0,-12,11,1,0,0,1,82,242,32,1,,,,,,,,
,,,,,,,,,,,,,FF,,,,,,,,1.0837,,,,,,,,,,,,,,,,,,,,,,60e55bb59cfd0aa9803b4470,60e562e617f6596bf5caa8e7,2021-07-07_09h17.10.521,Simcolourproject_2stim_asymm_v5,2020.2.10,Win32,60,60e52e7cfedb1dae636df45f,,,,,,,,,2288,24,-50,1,0,0,response3disk,,4,8,-6,1,0,0,rectangle,8,-6,1,0,0,8,-6,1,0,0,1,83,243,89,1,,,,,,,,
,,,,,,,,,,,,,FF,,,,,,,,0.784,,,,,,,,,,,,,,,,,,,,,,60e55bb59cfd0aa9803b4470,60e562e617f6596bf5caa8e7,2021-07-07_09h17.10.521,Simcolourproject_2stim_asymm_v5,2020.2.10,Win32,60,60e52e7cfedb1dae636df45f,,,,,,,,,990,50,16,1,0,0,response1disk,,6,6,10,1,0,0,rectangle,6,10,1,0,0,6,10,1,0,0,1,84,244,101,1,,,,,,,,
,,,,,,,,,,,,,FF,,,,,,,,0.5497,,,,,,,,,,,,,,,,,,,,,,60e55bb59cfd0aa9803b4470,60e562e617f6596bf5caa8e7,2021-07-07_09h17.10.521,Simcolourproject_2stim_asymm_v5,2020.2.10,Win32,60,60e52e7cfedb1dae636df45f,,,,,,,,,324,-24,58,1,0,0,response7disk,,0,0,14,1,0,0,rectangle,0,14,1,0,0,0,14,1,0,0,1,85,245,4,1,,,,,,,,
,,,,,,,,,,,,,FF,,,,,,,,0.6174,,,,,,,,,,,,,,,,,,,,,,60e55bb59cfd0aa9803b4470,60e562e617f6596bf5caa8e7,2021-07-07_09h17.10.521,Simcolourproject_2stim_asymm_v5,2020.2.10,Win32,60,60e52e7cfedb1dae636df45f,,,,,,,,,1580,-19,47,1,0,0,response7disk,,0,-6,-3,1,0,0,rectangle,-6,-3,1,0,0,-6,-3,1,0,0,1,86,246,20,1,,,,,,,,
,,,,,,,,,,,,,FF,,,,,,,,0.534,,,,,,,,,,,,,,,,,,,,,,60e55bb59cfd0aa9803b4470,60e562e617f6596bf5caa8e7,2021-07-07_09h17.10.521,Simcolourproject_2stim_asymm_v5,2020.2.10,Win32,60,60e52e7cfedb1dae636df45f,,,,,,,,,2807,-28,53,1,0,0,response7disk,,0,1,0,1,0,0,rectangle,1,0,1,0,0,1,0,1,0,0,1,87,247,94,1,,,,,,,,
,,,,,,,,,,,,,FF,,,,,,,,1.3184,,,,,,,,,,,,,,,,,,,,,,60e55bb59cfd0aa9803b4470,60e562e617f6596bf5caa8e7,2021-07-07_09h17.10.521,Simcolourproject_2stim_asymm_v5,2020.2.10,Win32,60,60e52e7cfedb1dae636df45f,,,,,,,,,182,-32,52,1,0,0,response7disk,,0,-6,-3,1,0,0,rectangle,-6,-3,1,0,0,-6,-3,1,0,0,1,88,248,130,1,,,,,,,,
,,,,,,,,,,,,,FF,,,,,,,,1.0021,,,,,,,,,,,,,,,,,,,,,,60e55bb59cfd0aa9803b4470,60e562e617f6596bf5caa8e7,2021-07-07_09h17.10.521,Simcolourproject_2stim_asymm_v5,2020.2.10,Win32,60,60e52e7cfedb1dae636df45f,,,,,,,,,754,-15,48,1,0,0,response7disk,,0,22,-16,1,0,0,rectangle,22,-16,1,0,0,22,-16,1,0,0,1,89,249,6,1,,,,,,,,
,,,,,,,,,,,,,FF,,,,,,,,0.5665,,,,,,,,,,,,,,,,,,,,,,60e55bb59cfd0aa9803b4470,60e562e617f6596bf5caa8e7,2021-07-07_09h17.10.521,Simcolourproject_2stim_asymm_v5,2020.2.10,Win32,60,60e52e7cfedb1dae636df45f,,,,,,,,,4325,-20,58,1,0,0,response7disk,,0,5,10,1,0,0,rectangle,5,10,1,0,0,5,10,1,0,0,1,90,250,113,1,,,,,,,,
,,,,,,,,,,,,,FF,,,,,,,,1.034,,,,,,,,,,,,,,,,,,,,,,60e55bb59cfd0aa9803b4470,60e562e617f6596bf5caa8e7,2021-07-07_09h17.10.521,Simcolourproject_2stim_asymm_v5,2020.2.10,Win32,60,60e52e7cfedb1dae636df45f,,,,,,,,,1651,-40,-61,1,0,0,response5disk,,3,-8,-15,1,0,0,rectangle,-8,-15,1,0,0,-8,-15,1,0,0,1,91,251,65,1,,,,,,,,
,,,,,,,,,,,,,FF,,,,,,,,1.1178,,,,,,,,,,,,,,,,,,,,,,60e55bb59cfd0aa9803b4470,60e562e617f6596bf5caa8e7,2021-07-07_09h17.10.521,Simcolourproject_2stim_asymm_v5,2020.2.10,Win32,60,60e52e7cfedb1dae636df45f,,,,,,,,,1099,-53,-21,1,0,0,response5disk,,2,11,0,1,0,0,rectangle,11,0,1,0,0,11,0,1,0,0,1,92,252,104,1,,,,,,,,
,,,,,,,,,,,,,FF,,,,,,,,1.4841,,,,,,,,,,,,,,,,,,,,,,60e55bb59cfd0aa9803b4470,60e562e617f6596bf5caa8e7,2021-07-07_09h17.10.521,Simcolourproject_2stim_asymm_v5,2020.2.10,Win32,60,60e52e7cfedb1dae636df45f,,,,,,,,,4229,-37,-45,1,0,0,response5disk,,3,-11,18,1,0,0,rectangle,-11,18,1,0,0,-11,18,1,0,0,1,93,253,111,1,,,,,,,,
,,,,,,,,,,,,,FF,,,,,,,,0.5166,,,,,,,,,,,,,,,,,,,,,,60e55bb59cfd0aa9803b4470,60e562e617f6596bf5caa8e7,2021-07-07_09h17.10.521,Simcolourproject_2stim_asymm_v5,2020.2.10,Win32,60,60e52e7cfedb1dae636df45f,,,,,,,,,3354,-25,59,1,0,0,response7disk,,0,-3,13,1,0,0,rectangle,-3,13,1,0,0,-3,13,1,0,0,1,94,254,92,1,,,,,,,,
,,,,,,,,,,,,,FF,,,,,,,,0.468,,,,,,,,,,,,,,,,,,,,,,60e55bb59cfd0aa9803b4470,60e562e617f6596bf5caa8e7,2021-07-07_09h17.10.521,Simcolourproject_2stim_asymm_v5,2020.2.10,Win32,60,60e52e7cfedb1dae636df45f,,,,,,,,,2574,-31,58,1,0,0,response7disk,,0,-2,5,1,0,0,rectangle,-2,5,1,0,0,-2,5,1,0,0,1,95,255,110,1,,,,,,,,
,,,,,,,,,,,,,FF,,,,,,,,1.3171,,,,,,,,,,,,,,,,,,,,,,60e55bb59cfd0aa9803b4470,60e562e617f6596bf5caa8e7,2021-07-07_09h17.10.521,Simcolourproject_2stim_asymm_v5,2020.2.10,Win32,60,60e52e7cfedb1dae636df45f,,,,,,,,,3863,-57,-27,1,0,0,response5disk,,2,-10,-5,1,0,0,rectangle,-10,-5,1,0,0,-10,-5,1,0,0,1,96,256,56,1,,,,,,,,
,,,,,,,,,,,,,FF,,,,,,,,0.6837,,,,,,,,,,,,,,,,,,,,,,60e55bb59cfd0aa9803b4470,60e562e617f6596bf5caa8e7,2021-07-07_09h17.10.521,Simcolourproject_2stim_asymm_v5,2020.2.10,Win32,60,60e52e7cfedb1dae636df45f,,,,,,,,,1912,-19,45,1,0,0,response7disk,,0,10,-8,1,0,0,rectangle,10,-8,1,0,0,10,-8,1,0,0,1,97,257,60,1,,,,,,,,
,,,,,,,,,,,,,FF,,,,,,,,0.8699,,,,,,,,,,,,,,,,,,,,,,60e55bb59cfd0aa9803b4470,60e562e617f6596bf5caa8e7,2021-07-07_09h17.10.521,Simcolourproject_2stim_asymm_v5,2020.2.10,Win32,60,60e52e7cfedb1dae636df45f,,,,,,,,,23,26,-37,1,0,0,response3disk,,4,1,6,1,0,0,rectangle,1,6,1,0,0,1,6,1,0,0,1,98,258,136,1,,,,,,,,
,,,,,,,,,,,,,FF,,,,,,,,1.0676,,,,,,,,,,,,,,,,,,,,,,60e55bb59cfd0aa9803b4470,60e562e617f6596bf5caa8e7,2021-07-07_09h17.10.521,Simcolourproject_2stim_asymm_v5,2020.2.10,Win32,60,60e52e7cfedb1dae636df45f,,,,,,,,,1025,-27,-53,1,0,0,response5disk,,3,-4,-6,1,0,0,rectangle,-4,-6,1,0,0,-4,-6,1,0,0,1,99,259,43,1,,,,,,,,
,,,,,,,,,,,,,FF,,,,,,,,1.0185,,,,,,,,,,,,,,,,,,,,,,60e55bb59cfd0aa9803b4470,60e562e617f6596bf5caa8e7,2021-07-07_09h17.10.521,Simcolourproject_2stim_asymm_v5,2020.2.10,Win32,60,60e52e7cfedb1dae636df45f,,,,,,,,,4309,-31,-52,1,0,0,response5disk,,3,-7,5,1,0,0,rectangle,-7,5,1,0,0,-7,5,1,0,0,1,100,260,11,1,,,,,,,,
,,,,,,,,,,,,,FF,,,,,,,,1.116,,,,,,,,,,,,,,,,,,,,,,60e55bb59cfd0aa9803b4470,60e562e617f6596bf5caa8e7,2021-07-07_09h17.10.521,Simcolourproject_2stim_asymm_v5,2020.2.10,Win32,60,60e52e7cfedb1dae636df45f,,,,,,,,,4185,-33,-15,1,0,0,response5disk,,2,5,6,1,0,0,rectangle,5,6,1,0,0,5,6,1,0,0,1,101,261,26,1,,,,,,,,
,,,,,,,,,,,,,FF,,,,,,,,0.9004,,,,,,,,,,,,,,,,,,,,,,60e55bb59cfd0aa9803b4470,60e562e617f6596bf5caa8e7,2021-07-07_09h17.10.521,Simcolourproject_2stim_asymm_v5,2020.2.10,Win32,60,60e52e7cfedb1dae636df45f,,,,,,,,,2406,-18,56,1,0,0,response7disk,,0,6,6,1,0,0,rectangle,6,6,1,0,0,6,6,1,0,0,1,102,262,158,1,,,,,,,,
,,,,,,,,,,,,,FF,,,,,,,,1.1519,,,,,,,,,,,,,,,,,,,,,,60e55bb59cfd0aa9803b4470,60e562e617f6596bf5caa8e7,2021-07-07_09h17.10.521,Simcolourproject_2stim_asymm_v5,2020.2.10,Win32,60,60e52e7cfedb1dae636df45f,,,,,,,,,3417,-16,-51,1,0,0,response5disk,,3,4,2,1,0,0,rectangle,11,-54,1,0,0,1,-3,1,0,0,1,103,263,105,1,,response3disk_3,TRUE,4,4,"[227,109,220,264,25,115,209,17,131,38,47,2,15,3,300,53,195,309,281,220]",1.5016,rectangle
,,,,,,,,,,,,,FF,,,,,,,,1.3323,,,,,,,,,,,,,,,,,,,,,,60e55bb59cfd0aa9803b4470,60e562e617f6596bf5caa8e7,2021-07-07_09h17.10.521,Simcolourproject_2stim_asymm_v5,2020.2.10,Win32,60,60e52e7cfedb1dae636df45f,,,,,,,,,3308,-18,57,1,0,0,response7disk,,0,-8,16,1,0,0,rectangle,-8,16,1,0,0,-8,16,1,0,0,1,104,264,79,1,,,,,,,,
,,,,,,,,,,,,,FF,,,,,,,,0.5329,,,,,,,,,,,,,,,,,,,,,,60e55bb59cfd0aa9803b4470,60e562e617f6596bf5caa8e7,2021-07-07_09h17.10.521,Simcolourproject_2stim_asymm_v5,2020.2.10,Win32,60,60e52e7cfedb1dae636df45f,,,,,,,,,2454,-21,69,1,0,0,response7disk,,0,2,4,1,0,0,rectangle,2,4,1,0,0,2,4,1,0,0,1,105,265,7,1,,,,,,,,
,,,,,,,,,,,,,FF,,,,,,,,1.1768,,,,,,,,,,,,,,,,,,,,,,60e55bb59cfd0aa9803b4470,60e562e617f6596bf5caa8e7,2021-07-07_09h17.10.521,Simcolourproject_2stim_asymm_v5,2020.2.10,Win32,60,60e52e7cfedb1dae636df45f,,,,,,,,,24,-61,-28,1,0,0,response5disk,,2,5,-3,1,0,0,rectangle,5,-3,1,0,0,5,-3,1,0,0,1,106,266,49,1,,,,,,,,
,,,,,,,,,,,,,FF,,,,,,,,1.699,,,,,,,,,,,,,,,,,,,,,,60e55bb59cfd0aa9803b4470,60e562e617f6596bf5caa8e7,2021-07-07_09h17.10.521,Simcolourproject_2stim_asymm_v5,2020.2.10,Win32,60,60e52e7cfedb1dae636df45f,,,,,,,,,2210,-56,-35,1,0,0,response5disk,,2,-4,-4,1,0,0,rectangle,-4,-4,1,0,0,-4,-4,1,0,0,1,107,267,66,1,,,,,,,,
,,,,,,,,,,,,,FF,,,,,,,,1.0658,,,,,,,,,,,,,,,,,,,,,,60e55bb59cfd0aa9803b4470,60e562e617f6596bf5caa8e7,2021-07-07_09h17.10.521,Simcolourproject_2stim_asymm_v5,2020.2.10,Win32,60,60e52e7cfedb1dae636df45f,,,,,,,,,895,67,-19,1,0,0,response3disk,,5,-4,9,1,0,0,rectangle,-4,9,1,0,0,-4,9,1,0,0,1,108,268,135,1,,,,,,,,
,,,,,,,,,,,,,FF,,,,,,,,0.7999,,,,,,,,,,,,,,,,,,,,,,60e55bb59cfd0aa9803b4470,60e562e617f6596bf5caa8e7,2021-07-07_09h17.10.521,Simcolourproject_2stim_asymm_v5,2020.2.10,Win32,60,60e52e7cfedb1dae636df45f,,,,,,,,,255,56,27,1,0,0,response1disk,,6,3,-2,1,0,0,rectangle,3,-2,1,0,0,3,-2,1,0,0,1,109,269,133,1,,,,,,,,
,,,,,,,,,,,,,FF,,,,,,,,0.9494,,,,,,,,,,,,,,,,,,,,,,60e55bb59cfd0aa9803b4470,60e562e617f6596bf5caa8e7,2021-07-07_09h17.10.521,Simcolourproject_2stim_asymm_v5,2020.2.10,Win32,60,60e52e7cfedb1dae636df45f,,,,,,,,,172,53,33,1,0,0,response1disk,,6,-4,-4,1,0,0,rectangle,-4,-4,1,0,0,-4,-4,1,0,0,1,110,270,31,1,,,,,,,,
,,,,,,,,,,,,,FF,,,,,,,,0.9159,,,,,,,,,,,,,,,,,,,,,,60e55bb59cfd0aa9803b4470,60e562e617f6596bf5caa8e7,2021-07-07_09h17.10.521,Simcolourproject_2stim_asymm_v5,2020.2.10,Win32,60,60e52e7cfedb1dae636df45f,,,,,,,,,3402,30,-52,1,0,0,response3disk,,4,-7,-3,1,0,0,rectangle,-7,-3,1,0,0,-7,-3,1,0,0,1,111,271,16,1,,,,,,,,
,,,,,,,,,,,,,FF,,,,,,,,1.4949,,,,,,,,,,,,,,,,,,,,,,60e55bb59cfd0aa9803b4470,60e562e617f6596bf5caa8e7,2021-07-07_09h17.10.521,Simcolourproject_2stim_asymm_v5,2020.2.10,Win32,60,60e52e7cfedb1dae636df45f,,,,,,,,,2557,-47,24,1,0,0,response7disk,,1,7,-21,1,0,0,rectangle,7,-21,1,0,0,7,-21,1,0,0,1,112,272,70,1,,,,,,,,
,,,,,,,,,,,,,FF,,,,,,,,0.9498,,,,,,,,,,,,,,,,,,,,,,60e55bb59cfd0aa9803b4470,60e562e617f6596bf5caa8e7,2021-07-07_09h17.10.521,Simcolourproject_2stim_asymm_v5,2020.2.10,Win32,60,60e52e7cfedb1dae636df45f,,,,,,,,,313,-44,-26,1,0,0,response5disk,,2,-8,6,1,0,0,rectangle,-8,6,1,0,0,-8,6,1,0,0,1,113,273,97,1,,,,,,,,
,,,,,,,,,,,,,FF,,,,,,,,1.0007,,,,,,,,,,,,,,,,,,,,,,60e55bb59cfd0aa9803b4470,60e562e617f6596bf5caa8e7,2021-07-07_09h17.10.521,Simcolourproject_2stim_asymm_v5,2020.2.10,Win32,60,60e52e7cfedb1dae636df45f,,,,,,,,,1531,49,-19,1,0,0,response3disk,,5,3,-1,1,0,0,rectangle,3,-1,1,0,0,3,-1,1,0,0,1,114,274,46,1,,,,,,,,
,,,,,,,,,,,,,FF,,,,,,,,0.8673,,,,,,,,,,,,,,,,,,,,,,60e55bb59cfd0aa9803b4470,60e562e617f6596bf5caa8e7,2021-07-07_09h17.10.521,Simcolourproject_2stim_asymm_v5,2020.2.10,Win32,60,60e52e7cfedb1dae636df45f,,,,,,,,,1270,-51,-25,1,0,0,response5disk,,2,2,14,1,0,0,rectangle,2,14,1,0,0,2,14,1,0,0,1,115,275,51,1,,,,,,,,
,,,,,,,,,,,,,FF,,,,,,,,0.9345,,,,,,,,,,,,,,,,,,,,,,60e55bb59cfd0aa9803b4470,60e562e617f6596bf5caa8e7,2021-07-07_09h17.10.521,Simcolourproject_2stim_asymm_v5,2020.2.10,Win32,60,60e52e7cfedb1dae636df45f,,,,,,,,,469,53,-23,1,0,0,response3disk,,5,4,6,1,0,0,rectangle,4,6,1,0,0,4,6,1,0,0,1,116,276,119,1,,,,,,,,
,,,,,,,,,,,,,FF,,,,,,,,0.7183,,,,,,,,,,,,,,,,,,,,,,60e55bb59cfd0aa9803b4470,60e562e617f6596bf5caa8e7,2021-07-07_09h17.10.521,Simcolourproject_2stim_asymm_v5,2020.2.10,Win32,60,60e52e7cfedb1dae636df45f,,,,,,,,,871,20,-52,1,0,0,response3disk,,4,-4,6,1,0,0,rectangle,-4,6,1,0,0,-4,6,1,0,0,1,117,277,150,1,,,,,,,,
,,,,,,,,,,,,,FF,,,,,,,,0.9328,,,,,,,,,,,,,,,,,,,,,,60e55bb59cfd0aa9803b4470,60e562e617f6596bf5caa8e7,2021-07-07_09h17.10.521,Simcolourproject_2stim_asymm_v5,2020.2.10,Win32,60,60e52e7cfedb1dae636df45f,,,,,,,,,1649,-61,-26,1,0,0,response5disk,,2,-9,8,1,0,0,rectangle,-9,8,1,0,0,-9,8,1,0,0,1,118,278,147,1,,,,,,,,
,,,,,,,,,,,,,FF,,,,,,,,0.8016,,,,,,,,,,,,,,,,,,,,,,60e55bb59cfd0aa9803b4470,60e562e617f6596bf5caa8e7,2021-07-07_09h17.10.521,Simcolourproject_2stim_asymm_v5,2020.2.10,Win32,60,60e52e7cfedb1dae636df45f,,,,,,,,,3955,-26,64,1,0,0,response7disk,,0,-4,9,1,0,0,rectangle,-4,9,1,0,0,-4,9,1,0,0,1,119,279,137,1,,,,,,,,
,,,,,,,,,,,,,FF,,,,,,,,0.8503,,,,,,,,,,,,,,,,,,,,,,60e55bb59cfd0aa9803b4470,60e562e617f6596bf5caa8e7,2021-07-07_09h17.10.521,Simcolourproject_2stim_asymm_v5,2020.2.10,Win32,60,60e52e7cfedb1dae636df45f,,,,,,,,,2219,-56,-22,1,0,0,response5disk,,2,-2,6,1,0,0,rectangle,68,28,1,0,0,15,-2,1,0,0,1,120,280,112,1,,response1disk_3,TRUE,6,6,"[227,109,220,264,25,115,209,17,131,38,47,2,15,3,300,53,195,309,281,220]",1.3359,rectangle
,,,,,,,,,,,,,FF,,,,,,,,0.9995,,,,,,,,,,,,,,,,,,,,,,60e55bb59cfd0aa9803b4470,60e562e617f6596bf5caa8e7,2021-07-07_09h17.10.521,Simcolourproject_2stim_asymm_v5,2020.2.10,Win32,60,60e52e7cfedb1dae636df45f,,,,,,,,,1937,-51,-21,1,0,0,response5disk,,2,-3,5,1,0,0,rectangle,-3,5,1,0,0,-3,5,1,0,0,1,121,281,149,1,,,,,,,,
,,,,,,,,,,,,,FF,,,,,,,,0.833,,,,,,,,,,,,,,,,,,,,,,60e55bb59cfd0aa9803b4470,60e562e617f6596bf5caa8e7,2021-07-07_09h17.10.521,Simcolourproject_2stim_asymm_v5,2020.2.10,Win32,60,60e52e7cfedb1dae636df45f,,,,,,,,,2552,-38,-46,1,0,0,response5disk,,3,-16,5,1,0,0,rectangle,-16,5,1,0,0,-16,5,1,0,0,1,122,282,24,1,,,,,,,,
,,,,,,,,,,,,,FF,,,,,,,,0.8178,,,,,,,,,,,,,,,,,,,,,,60e55bb59cfd0aa9803b4470,60e562e617f6596bf5caa8e7,2021-07-07_09h17.10.521,Simcolourproject_2stim_asymm_v5,2020.2.10,Win32,60,60e52e7cfedb1dae636df45f,,,,,,,,,1866,-52,26,1,0,0,response7disk,,1,-13,0,1,0,0,rectangle,-13,0,1,0,0,-13,0,1,0,0,1,123,283,103,1,,,,,,,,
,,,,,,,,,,,,,FF,,,,,,,,0.9343,,,,,,,,,,,,,,,,,,,,,,60e55bb59cfd0aa9803b4470,60e562e617f6596bf5caa8e7,2021-07-07_09h17.10.521,Simcolourproject_2stim_asymm_v5,2020.2.10,Win32,60,60e52e7cfedb1dae636df45f,,,,,,,,,2984,-58,-26,1,0,0,response5disk,,2,3,12,1,0,0,rectangle,3,12,1,0,0,3,12,1,0,0,1,124,284,21,1,,,,,,,,
,,,,,,,,,,,,,FF,,,,,,,,0.6014,,,,,,,,,,,,,,,,,,,,,,60e55bb59cfd0aa9803b4470,60e562e617f6596bf5caa8e7,2021-07-07_09h17.10.521,Simcolourproject_2stim_asymm_v5,2020.2.10,Win32,60,60e52e7cfedb1dae636df45f,,,,,,,,,2498,-31,62,1,0,0,response7disk,,0,1,-4,1,0,0,rectangle,1,-4,1,0,0,1,-4,1,0,0,1,125,285,38,1,,,,,,,,
,,,,,,,,,,,,,FF,,,,,,,,0.8849,,,,,,,,,,,,,,,,,,,,,,60e55bb59cfd0aa9803b4470,60e562e617f6596bf5caa8e7,2021-07-07_09h17.10.521,Simcolourproject_2stim_asymm_v5,2020.2.10,Win32,60,60e52e7cfedb1dae636df45f,,,,,,,,,1686,-21,-47,1,0,0,response5disk,,3,3,5,1,0,0,rectangle,3,5,1,0,0,3,5,1,0,0,1,126,286,33,1,,,,,,,,
,,,,,,,,,,,,,FF,,,,,,,,0.784,,,,,,,,,,,,,,,,,,,,,,60e55bb59cfd0aa9803b4470,60e562e617f6596bf5caa8e7,2021-07-07_09h17.10.521,Simcolourproject_2stim_asymm_v5,2020.2.10,Win32,60,60e52e7cfedb1dae636df45f,,,,,,,,,118,-48,-22,1,0,0,response5disk,,2,-8,-5,1,0,0,rectangle,-8,-5,1,0,0,-8,-5,1,0,0,1,127,287,3,1,,,,,,,,
,,,,,,,,,,,,,FF,,,,,,,,0.9487,,,,,,,,,,,,,,,,,,,,,,60e55bb59cfd0aa9803b4470,60e562e617f6596bf5caa8e7,2021-07-07_09h17.10.521,Simcolourproject_2stim_asymm_v5,2020.2.10,Win32,60,60e52e7cfedb1dae636df45f,,,,,,,,,984,46,20,1,0,0,response1disk,,6,5,2,1,0,0,rectangle,5,2,1,0,0,5,2,1,0,0,1,128,288,17,1,,,,,,,,
,,,,,,,,,,,,,FF,,,,,,,,0.7329,,,,,,,,,,,,,,,,,,,,,,60e55bb59cfd0aa9803b4470,60e562e617f6596bf5caa8e7,2021-07-07_09h17.10.521,Simcolourproject_2stim_asymm_v5,2020.2.10,Win32,60,60e52e7cfedb1dae636df45f,,,,,,,,,1595,-30,55,1,0,0,response7disk,,0,-3,7,1,0,0,rectangle,-3,7,1,0,0,-3,7,1,0,0,1,129,289,138,1,,,,,,,,
,,,,,,,,,,,,,FF,,,,,,,,0.7994,,,,,,,,,,,,,,,,,,,,,,60e55bb59cfd0aa9803b4470,60e562e617f6596bf5caa8e7,2021-07-07_09h17.10.521,Simcolourproject_2stim_asymm_v5,2020.2.10,Win32,60,60e52e7cfedb1dae636df45f,,,,,,,,,3264,-53,-29,1,0,0,response5disk,,2,-4,5,1,0,0,rectangle,-4,5,1,0,0,-4,5,1,0,0,1,130,290,107,1,,,,,,,,
,,,,,,,,,,,,,FF,,,,,,,,1.166,,,,,,,,,,,,,,,,,,,,,,60e55bb59cfd0aa9803b4470,60e562e617f6596bf5caa8e7,2021-07-07_09h17.10.521,Simcolourproject_2stim_asymm_v5,2020.2.10,Win32,60,60e52e7cfedb1dae636df45f,,,,,,,,,2170,-49,-32,1,0,0,response5disk,,2,-8,-8,1,0,0,rectangle,-8,-8,1,0,0,-8,-8,1,0,0,1,131,291,73,1,,,,,,,,
,,,,,,,,,,,,,FF,,,,,,,,0.9321,,,,,,,,,,,,,,,,,,,,,,60e55bb59cfd0aa9803b4470,60e562e617f6596bf5caa8e7,2021-07-07_09h17.10.521,Simcolourproject_2stim_asymm_v5,2020.2.10,Win32,60,60e52e7cfedb1dae636df45f,,,,,,,,,4003,-64,-33,1,0,0,response5disk,,2,6,4,1,0,0,rectangle,6,4,1,0,0,6,4,1,0,0,1,132,292,2,1,,,,,,,,
,,,,,,,,,,,,,FF,,,,,,,,0.8335,,,,,,,,,,,,,,,,,,,,,,60e55bb59cfd0aa9803b4470,60e562e617f6596bf5caa8e7,2021-07-07_09h17.10.521,Simcolourproject_2stim_asymm_v5,2020.2.10,Win32,60,60e52e7cfedb1dae636df45f,,,,,,,,,2761,-17,-45,1,0,0,response5disk,,3,-3,9,1,0,0,rectangle,-3,9,1,0,0,-3,9,1,0,0,1,133,293,144,1,,,,,,,,
,,,,,,,,,,,,,FF,,,,,,,,0.5839,,,,,,,,,,,,,,,,,,,,,,60e55bb59cfd0aa9803b4470,60e562e617f6596bf5caa8e7,2021-07-07_09h17.10.521,Simcolourproject_2stim_asymm_v5,2020.2.10,Win32,60,60e52e7cfedb1dae636df45f,,,,,,,,,3732,-31,72,1,0,0,response7disk,,0,-6,2,1,0,0,rectangle,-6,2,1,0,0,-6,2,1,0,0,1,134,294,74,1,,,,,,,,
,,,,,,,,,,,,,FF,,,,,,,,0.7011,,,,,,,,,,,,,,,,,,,,,,60e55bb59cfd0aa9803b4470,60e562e617f6596bf5caa8e7,2021-07-07_09h17.10.521,Simcolourproject_2stim_asymm_v5,2020.2.10,Win32,60,60e52e7cfedb1dae636df45f,,,,,,,,,2562,-19,52,1,0,0,response7disk,,0,0,-2,1,0,0,rectangle,0,-2,1,0,0,0,-2,1,0,0,1,135,295,41,1,,,,,,,,
,,,,,,,,,,,,,FF,,,,,,,,0.6515,,,,,,,,,,,,,,,,,,,,,,60e55bb59cfd0aa9803b4470,60e562e617f6596bf5caa8e7,2021-07-07_09h17.10.521,Simcolourproject_2stim_asymm_v5,2020.2.10,Win32,60,60e52e7cfedb1dae636df45f,,,,,,,,,2447,-33,53,1,0,0,response7disk,,0,4,-8,1,0,0,rectangle,4,-8,1,0,0,4,-8,1,0,0,1,136,296,88,1,,,,,,,,
,,,,,,,,,,,,,FF,,,,,,,,1.0674,,,,,,,,,,,,,,,,,,,,,,60e55bb59cfd0aa9803b4470,60e562e617f6596bf5caa8e7,2021-07-07_09h17.10.521,Simcolourproject_2stim_asymm_v5,2020.2.10,Win32,60,60e52e7cfedb1dae636df45f,,,,,,,,,1980,-52,25,1,0,0,response7disk,,1,15,-7,1,0,0,rectangle,15,-7,1,0,0,15,-7,1,0,0,1,137,297,53,1,,,,,,,,
,,,,,,,,,,,,,FF,,,,,,,,0.8517,,,,,,,,,,,,,,,,,,,,,,60e55bb59cfd0aa9803b4470,60e562e617f6596bf5caa8e7,2021-07-07_09h17.10.521,Simcolourproject_2stim_asymm_v5,2020.2.10,Win32,60,60e52e7cfedb1dae636df45f,,,,,,,,,2268,-23,-37,1,0,0,response5disk,,3,1,7,1,0,0,rectangle,1,7,1,0,0,1,7,1,0,0,1,138,298,120,1,,,,,,,,
,,,,,,,,,,,,,FF,,,,,,,,0.8672,,,,,,,,,,,,,,,,,,,,,,60e55bb59cfd0aa9803b4470,60e562e617f6596bf5caa8e7,2021-07-07_09h17.10.521,Simcolourproject_2stim_asymm_v5,2020.2.10,Win32,60,60e52e7cfedb1dae636df45f,,,,,,,,,1233,27,-48,1,0,0,response3disk,,4,6,12,1,0,0,rectangle,-19,-55,1,0,0,-3,2,1,0,0,1,139,299,85,1,,response5disk_3,TRUE,3,3,"[227,109,220,264,25,115,209,17,131,38,47,2,15,3,300,53,195,309,281,220]",1.6014,rectangle
,,,,,,,,,,,,,FF,,,,,,,,0.9018,,,,,,,,,,,,,,,,,,,,,,60e55bb59cfd0aa9803b4470,60e562e617f6596bf5caa8e7,2021-07-07_09h17.10.521,Simcolourproject_2stim_asymm_v5,2020.2.10,Win32,60,60e52e7cfedb1dae636df45f,,,,,,,,,2844,-50,-32,1,0,0,response5disk,,2,-13,-4,1,0,0,rectangle,-13,-4,1,0,0,-13,-4,1,0,0,1,140,300,124,1,,,,,,,,
,,,,,,,,,,,,,FF,,,,,,,,0.8682,,,,,,,,,,,,,,,,,,,,,,60e55bb59cfd0aa9803b4470,60e562e617f6596bf5caa8e7,2021-07-07_09h17.10.521,Simcolourproject_2stim_asymm_v5,2020.2.10,Win32,60,60e52e7cfedb1dae636df45f,,,,,,,,,3167,-51,20,1,0,0,response7disk,,1,-7,-7,1,0,0,rectangle,-7,-7,1,0,0,-7,-7,1,0,0,1,141,301,8,1,,,,,,,,
,,,,,,,,,,,,,FF,,,,,,,,0.8518,,,,,,,,,,,,,,,,,,,,,,60e55bb59cfd0aa9803b4470,60e562e617f6596bf5caa8e7,2021-07-07_09h17.10.521,Simcolourproject_2stim_asymm_v5,2020.2.10,Win32,60,60e52e7cfedb1dae636df45f,,,,,,,,,1797,-29,72,1,0,0,response7disk,,0,-10,1,1,0,0,rectangle,-10,1,1,0,0,-10,1,1,0,0,1,142,302,55,1,,,,,,,,
,,,,,,,,,,,,,FF,,,,,,,,0.8172,,,,,,,,,,,,,,,,,,,,,,60e55bb59cfd0aa9803b4470,60e562e617f6596bf5caa8e7,2021-07-07_09h17.10.521,Simcolourproject_2stim_asymm_v5,2020.2.10,Win32,60,60e52e7cfedb1dae636df45f,,,,,,,,,1116,-59,-30,1,0,0,response5disk,,2,9,1,1,0,0,rectangle,9,1,1,0,0,9,1,1,0,0,1,143,303,91,1,,,,,,,,
