key_resp.keys,key_resp.rt,key_resp_14.keys,key_resp_14.rt,key_resp_15.keys,key_resp_15.rt,key_resp_17.keys,key_resp_17.rt,key_resp_9.keys,key_resp_9.rt,key_resp_10.keys,key_resp_10.rt,practice_comparison,Ecc,mouse_5.x,mouse_5.y,mouse_5.leftButton,mouse_5.midButton,mouse_5.rightButton,mouse_5.clicked_name,pracsimilarity,response_time,mouse_10.x,mouse_10.y,mouse_10.leftButton,mouse_10.midButton,mouse_10.rightButton,mouse_10.clicked_name,mouse_7.x,mouse_7.y,mouse_7.leftButton,mouse_7.midButton,mouse_7.rightButton,mouse_6.x,mouse_6.y,mouse_6.leftButton,mouse_6.midButton,mouse_6.rightButton,duringprac.thisRepN,duringprac.thisTrialN,duringprac.thisN,duringprac.thisIndex,duringprac.ran,participant,session,date,expName,psychopyVersion,OS,frameRate,study_id,mouse_7.clicked_name,catchpracsimilarity,catch_response_time,catchnumberprac,catchtrialorderprac,mouse_6.clicked_name,key_resp_22.keys,key_resp_22.rt,realcomparison,mouse.x,mouse.y,mouse.leftButton,mouse.midButton,mouse.rightButton,mouse.clicked_name,Colour2,similarity,mouse_2.x,mouse_2.y,mouse_2.leftButton,mouse_2.midButton,mouse_2.rightButton,mouse_2.clicked_name,mouse_3.x,mouse_3.y,mouse_3.leftButton,mouse_3.midButton,mouse_3.rightButton,mouse_11.x,mouse_11.y,mouse_11.leftButton,mouse_11.midButton,mouse_11.rightButton,trials_2.thisRepN,trials_2.thisTrialN,trials_2.thisN,trials_2.thisIndex,trials_2.ran,Colour1,mouse_3.clicked_name,catchornah,catchsimilarity,catchnumber,catchtrialorder,catchRT,mouse_11.clicked_name
space,1.5995,space,9.9672,space,13.9803,space,10.236,space,2.8865,space,4.2486,73,FF,-42,66,1,0,0,response7disk_5,0,7.6259,6,-2,1,0,0,rectangle_8,6,-2,1,0,0,6,-2,1,0,0,0,0,0,0,1,60e544249db8e7a552141a95,60e562ef1b6a9b637eb94bef,2021-07-07_10h26.45.475,Simcolourproject_2stim_asymm_v5,2020.2.10,Win32,60,60e52e7cfedb1dae636df45f,,,,,,,,,,,,,,,,,,,,,,,,,,,,,,,,,,,,,,,,,,,,,,
,,,,,,,,,,,,138,FF,-30,75,1,0,0,response7disk_5,0,8.0127,-6,1,1,0,0,rectangle_8,-52,-94,1,0,0,-18,-6,1,0,0,0,1,1,5,1,60e544249db8e7a552141a95,60e562ef1b6a9b637eb94bef,2021-07-07_10h26.45.475,Simcolourproject_2stim_asymm_v5,2020.2.10,Win32,60,60e52e7cfedb1dae636df45f,response5disk_7,3,5.6054,3,"[2,5]",rectangle_4,,,,,,,,,,,,,,,,,,,,,,,,,,,,,,,,,,,,,,,,
,,,,,,,,,,,,134,PF,48,96,1,0,0,response1disk_5,7,6.0069,-8,1,1,0,0,rectangle_8,-8,1,1,0,0,-8,1,1,0,0,0,2,2,2,1,60e544249db8e7a552141a95,60e562ef1b6a9b637eb94bef,2021-07-07_10h26.45.475,Simcolourproject_2stim_asymm_v5,2020.2.10,Win32,60,60e52e7cfedb1dae636df45f,,,,,,,,,,,,,,,,,,,,,,,,,,,,,,,,,,,,,,,,,,,,,,
,,,,,,,,,,,,89,PF,44,93,1,0,0,response1disk_5,7,2.4866,-1,-11,1,0,0,rectangle_8,-1,-11,1,0,0,-1,-11,1,0,0,0,3,3,1,1,60e544249db8e7a552141a95,60e562ef1b6a9b637eb94bef,2021-07-07_10h26.45.475,Simcolourproject_2stim_asymm_v5,2020.2.10,Win32,60,60e52e7cfedb1dae636df45f,,,,,,,,,,,,,,,,,,,,,,,,,,,,,,,,,,,,,,,,,,,,,,
,,,,,,,,,,,,103,PF,-33,-55,1,0,0,response5disk_5,3,4.4028,8,3,1,0,0,rectangle_8,-48,-96,1,0,0,-9,-9,1,0,0,0,4,4,4,1,60e544249db8e7a552141a95,60e562ef1b6a9b637eb94bef,2021-07-07_10h26.45.475,Simcolourproject_2stim_asymm_v5,2020.2.10,Win32,60,60e52e7cfedb1dae636df45f,response5disk_7,3,2.9502,3,"[2,5]",rectangle_4,,,,,,,,,,,,,,,,,,,,,,,,,,,,,,,,,,,,,,,,
,,,,,,,,,,,,37,FF,87,-45,1,0,0,response3disk_5,5,6.3439,13,-4,1,0,0,rectangle_8,13,-4,1,0,0,13,-4,1,0,0,0,5,5,3,1,60e544249db8e7a552141a95,60e562ef1b6a9b637eb94bef,2021-07-07_10h26.45.475,Simcolourproject_2stim_asymm_v5,2020.2.10,Win32,60,60e52e7cfedb1dae636df45f,,,,,,,,,,,,,,,,,,,,,,,,,,,,,,,,,,,,,,,,,,,,,,
,,,,,,,,,,,,117,PF,-33,72,1,0,0,response7disk_5,0,1.866,-7,2,1,0,0,rectangle_8,-7,2,1,0,0,-7,2,1,0,0,0,6,6,6,1,60e544249db8e7a552141a95,60e562ef1b6a9b637eb94bef,2021-07-07_10h26.45.475,Simcolourproject_2stim_asymm_v5,2020.2.10,Win32,60,60e52e7cfedb1dae636df45f,,,,,,,,,,,,,,,,,,,,,,,,,,,,,,,,,,,,,,,,,,,,,,
,,,,,,,,,,,,,FF,,,,,,,,2.725,,,,,,,,,,,,,,,,,,,,,,60e544249db8e7a552141a95,60e562ef1b6a9b637eb94bef,2021-07-07_10h26.45.475,Simcolourproject_2stim_asymm_v5,2020.2.10,Win32,60,60e52e7cfedb1dae636df45f,,,,,,,space,3.1803,3076,-28,49,1,0,0,response7disk,,0,1,-7,1,0,0,rectangle,1,-7,1,0,0,1,-7,1,0,0,0,0,0,48,1,,,,,,,,
,,,,,,,,,,,,,FF,,,,,,,,1.569,,,,,,,,,,,,,,,,,,,,,,60e544249db8e7a552141a95,60e562ef1b6a9b637eb94bef,2021-07-07_10h26.45.475,Simcolourproject_2stim_asymm_v5,2020.2.10,Win32,60,60e52e7cfedb1dae636df45f,,,,,,,,,3112,-54,97,1,0,0,response7disk,,0,-9,10,1,0,0,rectangle,-9,10,1,0,0,-9,10,1,0,0,0,1,1,62,1,,,,,,,,
,,,,,,,,,,,,,FF,,,,,,,,2.1048,,,,,,,,,,,,,,,,,,,,,,60e544249db8e7a552141a95,60e562ef1b6a9b637eb94bef,2021-07-07_10h26.45.475,Simcolourproject_2stim_asymm_v5,2020.2.10,Win32,60,60e52e7cfedb1dae636df45f,,,,,,,,,943,-31,73,1,0,0,response7disk,,0,-13,12,1,0,0,rectangle,-13,12,1,0,0,-13,12,1,0,0,0,2,2,107,1,,,,,,,,
,,,,,,,,,,,,,FF,,,,,,,,1.738,,,,,,,,,,,,,,,,,,,,,,60e544249db8e7a552141a95,60e562ef1b6a9b637eb94bef,2021-07-07_10h26.45.475,Simcolourproject_2stim_asymm_v5,2020.2.10,Win32,60,60e52e7cfedb1dae636df45f,,,,,,,,,4236,30,-60,1,0,0,response3disk,,4,3,4,1,0,0,rectangle,3,4,1,0,0,3,4,1,0,0,0,3,3,89,1,,,,,,,,
,,,,,,,,,,,,,FF,,,,,,,,3.1337,,,,,,,,,,,,,,,,,,,,,,60e544249db8e7a552141a95,60e562ef1b6a9b637eb94bef,2021-07-07_10h26.45.475,Simcolourproject_2stim_asymm_v5,2020.2.10,Win32,60,60e52e7cfedb1dae636df45f,,,,,,,,,3744,93,-45,1,0,0,response3disk,,5,4,-10,1,0,0,rectangle,4,-10,1,0,0,4,-10,1,0,0,0,4,4,92,1,,,,,,,,
,,,,,,,,,,,,,FF,,,,,,,,1.2346,,,,,,,,,,,,,,,,,,,,,,60e544249db8e7a552141a95,60e562ef1b6a9b637eb94bef,2021-07-07_10h26.45.475,Simcolourproject_2stim_asymm_v5,2020.2.10,Win32,60,60e52e7cfedb1dae636df45f,,,,,,,,,2206,-55,109,1,0,0,response7disk,,0,-3,3,1,0,0,rectangle,-3,3,1,0,0,-3,3,1,0,0,0,5,5,43,1,,,,,,,,
,,,,,,,,,,,,,FF,,,,,,,,1.4187,,,,,,,,,,,,,,,,,,,,,,60e544249db8e7a552141a95,60e562ef1b6a9b637eb94bef,2021-07-07_10h26.45.475,Simcolourproject_2stim_asymm_v5,2020.2.10,Win32,60,60e52e7cfedb1dae636df45f,,,,,,,,,4253,32,-93,1,0,0,response3disk,,4,-1,12,1,0,0,rectangle,-1,12,1,0,0,-1,12,1,0,0,0,6,6,64,1,,,,,,,,
,,,,,,,,,,,,,FF,,,,,,,,1.5359,,,,,,,,,,,,,,,,,,,,,,60e544249db8e7a552141a95,60e562ef1b6a9b637eb94bef,2021-07-07_10h26.45.475,Simcolourproject_2stim_asymm_v5,2020.2.10,Win32,60,60e52e7cfedb1dae636df45f,,,,,,,,,3375,79,35,1,0,0,response1disk,,6,1,-11,1,0,0,rectangle,1,-11,1,0,0,1,-11,1,0,0,0,7,7,34,1,,,,,,,,
,,,,,,,,,,,,,FF,,,,,,,,1.1175,,,,,,,,,,,,,,,,,,,,,,60e544249db8e7a552141a95,60e562ef1b6a9b637eb94bef,2021-07-07_10h26.45.475,Simcolourproject_2stim_asymm_v5,2020.2.10,Win32,60,60e52e7cfedb1dae636df45f,,,,,,,,,339,-32,73,1,0,0,response7disk,,0,-10,-4,1,0,0,rectangle,-10,-4,1,0,0,-10,-4,1,0,0,0,8,8,45,1,,,,,,,,
,,,,,,,,,,,,,FF,,,,,,,,1.5182,,,,,,,,,,,,,,,,,,,,,,60e544249db8e7a552141a95,60e562ef1b6a9b637eb94bef,2021-07-07_10h26.45.475,Simcolourproject_2stim_asymm_v5,2020.2.10,Win32,60,60e52e7cfedb1dae636df45f,,,,,,,,,671,-47,68,1,0,0,response7disk,,0,-15,-5,1,0,0,rectangle,-15,-5,1,0,0,-15,-5,1,0,0,0,9,9,61,1,,,,,,,,
,,,,,,,,,,,,,FF,,,,,,,,1.345,,,,,,,,,,,,,,,,,,,,,,60e544249db8e7a552141a95,60e562ef1b6a9b637eb94bef,2021-07-07_10h26.45.475,Simcolourproject_2stim_asymm_v5,2020.2.10,Win32,60,60e52e7cfedb1dae636df45f,,,,,,,,,3995,-25,-38,1,0,0,response5disk,,3,-10,0,1,0,0,rectangle,-10,0,1,0,0,-10,0,1,0,0,0,10,10,85,1,,,,,,,,
,,,,,,,,,,,,,FF,,,,,,,,1.2287,,,,,,,,,,,,,,,,,,,,,,60e544249db8e7a552141a95,60e562ef1b6a9b637eb94bef,2021-07-07_10h26.45.475,Simcolourproject_2stim_asymm_v5,2020.2.10,Win32,60,60e52e7cfedb1dae636df45f,,,,,,,,,1535,-23,-49,1,0,0,response5disk,,3,12,9,1,0,0,rectangle,12,9,1,0,0,12,9,1,0,0,0,11,11,131,1,,,,,,,,
,,,,,,,,,,,,,FF,,,,,,,,1.3368,,,,,,,,,,,,,,,,,,,,,,60e544249db8e7a552141a95,60e562ef1b6a9b637eb94bef,2021-07-07_10h26.45.475,Simcolourproject_2stim_asymm_v5,2020.2.10,Win32,60,60e52e7cfedb1dae636df45f,,,,,,,,,3080,-18,43,1,0,0,response7disk,,0,-3,8,1,0,0,rectangle,-3,8,1,0,0,-3,8,1,0,0,0,12,12,11,1,,,,,,,,
,,,,,,,,,,,,,FF,,,,,,,,1.149,,,,,,,,,,,,,,,,,,,,,,60e544249db8e7a552141a95,60e562ef1b6a9b637eb94bef,2021-07-07_10h26.45.475,Simcolourproject_2stim_asymm_v5,2020.2.10,Win32,60,60e52e7cfedb1dae636df45f,,,,,,,,,3497,-26,35,1,0,0,response7disk,,0,-7,2,1,0,0,rectangle,-7,2,1,0,0,-7,2,1,0,0,0,13,13,53,1,,,,,,,,
,,,,,,,,,,,,,FF,,,,,,,,1.2405,,,,,,,,,,,,,,,,,,,,,,60e544249db8e7a552141a95,60e562ef1b6a9b637eb94bef,2021-07-07_10h26.45.475,Simcolourproject_2stim_asymm_v5,2020.2.10,Win32,60,60e52e7cfedb1dae636df45f,,,,,,,,,4115,-51,79,1,0,0,response7disk,,0,-18,5,1,0,0,rectangle,-18,5,1,0,0,-18,5,1,0,0,0,14,14,153,1,,,,,,,,
,,,,,,,,,,,,,FF,,,,,,,,0.9854,,,,,,,,,,,,,,,,,,,,,,60e544249db8e7a552141a95,60e562ef1b6a9b637eb94bef,2021-07-07_10h26.45.475,Simcolourproject_2stim_asymm_v5,2020.2.10,Win32,60,60e52e7cfedb1dae636df45f,,,,,,,,,1432,-31,41,1,0,0,response7disk,,0,-18,7,1,0,0,rectangle,-18,7,1,0,0,-18,7,1,0,0,0,15,15,137,1,,,,,,,,
,,,,,,,,,,,,,FF,,,,,,,,1.1225,,,,,,,,,,,,,,,,,,,,,,60e544249db8e7a552141a95,60e562ef1b6a9b637eb94bef,2021-07-07_10h26.45.475,Simcolourproject_2stim_asymm_v5,2020.2.10,Win32,60,60e52e7cfedb1dae636df45f,,,,,,,,,2671,-26,45,1,0,0,response7disk,,0,-11,-1,1,0,0,rectangle,-11,-1,1,0,0,-11,-1,1,0,0,0,16,16,148,1,,,,,,,,
,,,,,,,,,,,,,FF,,,,,,,,1.4823,,,,,,,,,,,,,,,,,,,,,,60e544249db8e7a552141a95,60e562ef1b6a9b637eb94bef,2021-07-07_10h26.45.475,Simcolourproject_2stim_asymm_v5,2020.2.10,Win32,60,60e52e7cfedb1dae636df45f,,,,,,,,,4033,-30,69,1,0,0,response7disk,,0,-8,10,1,0,0,rectangle,-8,10,1,0,0,-8,10,1,0,0,0,17,17,32,1,,,,,,,,
,,,,,,,,,,,,,FF,,,,,,,,0.9341,,,,,,,,,,,,,,,,,,,,,,60e544249db8e7a552141a95,60e562ef1b6a9b637eb94bef,2021-07-07_10h26.45.475,Simcolourproject_2stim_asymm_v5,2020.2.10,Win32,60,60e52e7cfedb1dae636df45f,,,,,,,,,2506,-31,41,1,0,0,response7disk,,0,-13,5,1,0,0,rectangle,-13,5,1,0,0,-13,5,1,0,0,0,18,18,91,1,,,,,,,,
,,,,,,,,,,,,,FF,,,,,,,,1.5213,,,,,,,,,,,,,,,,,,,,,,60e544249db8e7a552141a95,60e562ef1b6a9b637eb94bef,2021-07-07_10h26.45.475,Simcolourproject_2stim_asymm_v5,2020.2.10,Win32,60,60e52e7cfedb1dae636df45f,,,,,,,,,1215,-49,-23,1,0,0,response5disk,,2,-26,-5,1,0,0,rectangle,-26,-5,1,0,0,-26,-5,1,0,0,0,19,19,125,1,,,,,,,,
,,,,,,,,,,,,,FF,,,,,,,,10.0764,,,,,,,,,,,,,,,,,,,,,,60e544249db8e7a552141a95,60e562ef1b6a9b637eb94bef,2021-07-07_10h26.45.475,Simcolourproject_2stim_asymm_v5,2020.2.10,Win32,60,60e52e7cfedb1dae636df45f,,,,,,,,,1452,-35,59,1,0,0,response7disk,,0,-7,7,1,0,0,rectangle,-7,7,1,0,0,-7,7,1,0,0,0,20,20,17,1,,,,,,,,
,,,,,,,,,,,,,FF,,,,,,,,6.4689,,,,,,,,,,,,,,,,,,,,,,60e544249db8e7a552141a95,60e562ef1b6a9b637eb94bef,2021-07-07_10h26.45.475,Simcolourproject_2stim_asymm_v5,2020.2.10,Win32,60,60e52e7cfedb1dae636df45f,,,,,,,,,1685,94,34,1,0,0,response1disk,,6,13,1,1,0,0,rectangle,13,1,1,0,0,13,1,1,0,0,0,21,21,84,1,,,,,,,,
,,,,,,,,,,,,,FF,,,,,,,,5.5707,,,,,,,,,,,,,,,,,,,,,,60e544249db8e7a552141a95,60e562ef1b6a9b637eb94bef,2021-07-07_10h26.45.475,Simcolourproject_2stim_asymm_v5,2020.2.10,Win32,60,60e52e7cfedb1dae636df45f,,,,,,,,,519,35,63,1,0,0,response1disk,,7,10,-6,1,0,0,rectangle,10,-6,1,0,0,10,-6,1,0,0,0,22,22,104,1,,,,,,,,
,,,,,,,,,,,,,FF,,,,,,,,1.6519,,,,,,,,,,,,,,,,,,,,,,60e544249db8e7a552141a95,60e562ef1b6a9b637eb94bef,2021-07-07_10h26.45.475,Simcolourproject_2stim_asymm_v5,2020.2.10,Win32,60,60e52e7cfedb1dae636df45f,,,,,,,,,1878,29,63,1,0,0,response1disk,,7,8,6,1,0,0,rectangle,8,6,1,0,0,8,6,1,0,0,0,23,23,112,1,,,,,,,,
,,,,,,,,,,,,,FF,,,,,,,,3.8866,,,,,,,,,,,,,,,,,,,,,,60e544249db8e7a552141a95,60e562ef1b6a9b637eb94bef,2021-07-07_10h26.45.475,Simcolourproject_2stim_asymm_v5,2020.2.10,Win32,60,60e52e7cfedb1dae636df45f,,,,,,,,,632,-88,20,1,0,0,response7disk,,1,-1,-4,1,0,0,rectangle,-1,-4,1,0,0,-1,-4,1,0,0,0,24,24,140,1,,,,,,,,
,,,,,,,,,,,,,FF,,,,,,,,1.733,,,,,,,,,,,,,,,,,,,,,,60e544249db8e7a552141a95,60e562ef1b6a9b637eb94bef,2021-07-07_10h26.45.475,Simcolourproject_2stim_asymm_v5,2020.2.10,Win32,60,60e52e7cfedb1dae636df45f,,,,,,,,,1472,-61,-49,1,0,0,response5disk,,2,-7,-6,1,0,0,rectangle,-7,-6,1,0,0,-7,-6,1,0,0,0,25,25,3,1,,,,,,,,
,,,,,,,,,,,,,FF,,,,,,,,1.72,,,,,,,,,,,,,,,,,,,,,,60e544249db8e7a552141a95,60e562ef1b6a9b637eb94bef,2021-07-07_10h26.45.475,Simcolourproject_2stim_asymm_v5,2020.2.10,Win32,60,60e52e7cfedb1dae636df45f,,,,,,,,,2968,49,78,1,0,0,response1disk,,7,1,5,1,0,0,rectangle,1,5,1,0,0,1,5,1,0,0,0,26,26,28,1,,,,,,,,
,,,,,,,,,,,,,FF,,,,,,,,1.3009,,,,,,,,,,,,,,,,,,,,,,60e544249db8e7a552141a95,60e562ef1b6a9b637eb94bef,2021-07-07_10h26.45.475,Simcolourproject_2stim_asymm_v5,2020.2.10,Win32,60,60e52e7cfedb1dae636df45f,,,,,,,,,1435,33,78,1,0,0,response1disk,,7,1,-2,1,0,0,rectangle,24,66,1,0,0,-6,-3,1,0,0,0,27,27,118,1,,response1disk_3,TRUE,7,7,"[52,28,162,92,160,188,188,300,250,171,217,83,32,248,200,187,63,109,51,232]",2.837,rectangle
,,,,,,,,,,,,,FF,,,,,,,,1.2568,,,,,,,,,,,,,,,,,,,,,,60e544249db8e7a552141a95,60e562ef1b6a9b637eb94bef,2021-07-07_10h26.45.475,Simcolourproject_2stim_asymm_v5,2020.2.10,Win32,60,60e52e7cfedb1dae636df45f,,,,,,,,,2705,29,55,1,0,0,response1disk,,7,6,9,1,0,0,rectangle,6,9,1,0,0,6,9,1,0,0,0,28,28,124,1,,,,,,,,
,,,,,,,,,,,,,FF,,,,,,,,1.4025,,,,,,,,,,,,,,,,,,,,,,60e544249db8e7a552141a95,60e562ef1b6a9b637eb94bef,2021-07-07_10h26.45.475,Simcolourproject_2stim_asymm_v5,2020.2.10,Win32,60,60e52e7cfedb1dae636df45f,,,,,,,,,713,-68,-83,1,0,0,response5disk,,3,-16,6,1,0,0,rectangle,-16,6,1,0,0,-16,6,1,0,0,0,29,29,41,1,,,,,,,,
,,,,,,,,,,,,,FF,,,,,,,,1.3033,,,,,,,,,,,,,,,,,,,,,,60e544249db8e7a552141a95,60e562ef1b6a9b637eb94bef,2021-07-07_10h26.45.475,Simcolourproject_2stim_asymm_v5,2020.2.10,Win32,60,60e52e7cfedb1dae636df45f,,,,,,,,,1949,54,84,1,0,0,response1disk,,7,22,8,1,0,0,rectangle,22,8,1,0,0,22,8,1,0,0,0,30,30,63,1,,,,,,,,
,,,,,,,,,,,,,FF,,,,,,,,1.1028,,,,,,,,,,,,,,,,,,,,,,60e544249db8e7a552141a95,60e562ef1b6a9b637eb94bef,2021-07-07_10h26.45.475,Simcolourproject_2stim_asymm_v5,2020.2.10,Win32,60,60e52e7cfedb1dae636df45f,,,,,,,,,1061,29,56,1,0,0,response1disk,,7,1,0,1,0,0,rectangle,63,-19,1,0,0,16,-7,1,0,0,0,31,31,159,1,,response3disk_3,TRUE,5,5,"[52,28,162,92,160,188,188,300,250,171,217,83,32,248,200,187,63,109,51,232]",2.3889,rectangle
,,,,,,,,,,,,,FF,,,,,,,,3.9519,,,,,,,,,,,,,,,,,,,,,,60e544249db8e7a552141a95,60e562ef1b6a9b637eb94bef,2021-07-07_10h26.45.475,Simcolourproject_2stim_asymm_v5,2020.2.10,Win32,60,60e52e7cfedb1dae636df45f,,,,,,,,,3067,38,60,1,0,0,response1disk,,7,5,6,1,0,0,rectangle,5,6,1,0,0,5,6,1,0,0,0,32,32,58,1,,,,,,,,
,,,,,,,,,,,,,FF,,,,,,,,1.6167,,,,,,,,,,,,,,,,,,,,,,60e544249db8e7a552141a95,60e562ef1b6a9b637eb94bef,2021-07-07_10h26.45.475,Simcolourproject_2stim_asymm_v5,2020.2.10,Win32,60,60e52e7cfedb1dae636df45f,,,,,,,,,1821,34,-77,1,0,0,response3disk,,4,-4,14,1,0,0,rectangle,-4,14,1,0,0,-4,14,1,0,0,0,33,33,115,1,,,,,,,,
,,,,,,,,,,,,,FF,,,,,,,,1.7719,,,,,,,,,,,,,,,,,,,,,,60e544249db8e7a552141a95,60e562ef1b6a9b637eb94bef,2021-07-07_10h26.45.475,Simcolourproject_2stim_asymm_v5,2020.2.10,Win32,60,60e52e7cfedb1dae636df45f,,,,,,,,,862,42,55,1,0,0,response1disk,,7,16,-6,1,0,0,rectangle,16,-6,1,0,0,16,-6,1,0,0,0,34,34,149,1,,,,,,,,
,,,,,,,,,,,,,FF,,,,,,,,1.6866,,,,,,,,,,,,,,,,,,,,,,60e544249db8e7a552141a95,60e562ef1b6a9b637eb94bef,2021-07-07_10h26.45.475,Simcolourproject_2stim_asymm_v5,2020.2.10,Win32,60,60e52e7cfedb1dae636df45f,,,,,,,,,58,27,56,1,0,0,response1disk,,7,-5,1,1,0,0,rectangle,-5,1,1,0,0,-5,1,1,0,0,0,35,35,35,1,,,,,,,,
,,,,,,,,,,,,,FF,,,,,,,,1.3688,,,,,,,,,,,,,,,,,,,,,,60e544249db8e7a552141a95,60e562ef1b6a9b637eb94bef,2021-07-07_10h26.45.475,Simcolourproject_2stim_asymm_v5,2020.2.10,Win32,60,60e52e7cfedb1dae636df45f,,,,,,,,,3616,37,81,1,0,0,response1disk,,7,-3,-10,1,0,0,rectangle,-3,-10,1,0,0,-3,-10,1,0,0,0,36,36,119,1,,,,,,,,
,,,,,,,,,,,,,FF,,,,,,,,2.1206,,,,,,,,,,,,,,,,,,,,,,60e544249db8e7a552141a95,60e562ef1b6a9b637eb94bef,2021-07-07_10h26.45.475,Simcolourproject_2stim_asymm_v5,2020.2.10,Win32,60,60e52e7cfedb1dae636df45f,,,,,,,,,2703,60,59,1,0,0,response1disk,,6,8,-4,1,0,0,rectangle,8,-4,1,0,0,8,-4,1,0,0,0,37,37,52,1,,,,,,,,
,,,,,,,,,,,,,FF,,,,,,,,1.1023,,,,,,,,,,,,,,,,,,,,,,60e544249db8e7a552141a95,60e562ef1b6a9b637eb94bef,2021-07-07_10h26.45.475,Simcolourproject_2stim_asymm_v5,2020.2.10,Win32,60,60e52e7cfedb1dae636df45f,,,,,,,,,2045,47,118,1,0,0,response1disk,,7,10,0,1,0,0,rectangle,10,0,1,0,0,10,0,1,0,0,0,38,38,76,1,,,,,,,,
,,,,,,,,,,,,,FF,,,,,,,,1.0023,,,,,,,,,,,,,,,,,,,,,,60e544249db8e7a552141a95,60e562ef1b6a9b637eb94bef,2021-07-07_10h26.45.475,Simcolourproject_2stim_asymm_v5,2020.2.10,Win32,60,60e52e7cfedb1dae636df45f,,,,,,,,,415,40,87,1,0,0,response1disk,,7,8,6,1,0,0,rectangle,8,6,1,0,0,8,6,1,0,0,0,39,39,25,1,,,,,,,,
,,,,,,,,,,,,,FF,,,,,,,,2.1694,,,,,,,,,,,,,,,,,,,,,,60e544249db8e7a552141a95,60e562ef1b6a9b637eb94bef,2021-07-07_10h26.45.475,Simcolourproject_2stim_asymm_v5,2020.2.10,Win32,60,60e52e7cfedb1dae636df45f,,,,,,,,,653,52,98,1,0,0,response1disk,,7,-4,-2,1,0,0,rectangle,-4,-2,1,0,0,-4,-2,1,0,0,0,40,40,150,1,,,,,,,,
,,,,,,,,,,,,,FF,,,,,,,,3.5023,,,,,,,,,,,,,,,,,,,,,,60e544249db8e7a552141a95,60e562ef1b6a9b637eb94bef,2021-07-07_10h26.45.475,Simcolourproject_2stim_asymm_v5,2020.2.10,Win32,60,60e52e7cfedb1dae636df45f,,,,,,,,,2104,87,-27,1,0,0,response3disk,,5,16,-1,1,0,0,rectangle,16,-1,1,0,0,16,-1,1,0,0,0,41,41,44,1,,,,,,,,
,,,,,,,,,,,,,FF,,,,,,,,2.2849,,,,,,,,,,,,,,,,,,,,,,60e544249db8e7a552141a95,60e562ef1b6a9b637eb94bef,2021-07-07_10h26.45.475,Simcolourproject_2stim_asymm_v5,2020.2.10,Win32,60,60e52e7cfedb1dae636df45f,,,,,,,,,3829,36,57,1,0,0,response1disk,,7,13,9,1,0,0,rectangle,13,9,1,0,0,13,9,1,0,0,0,42,42,105,1,,,,,,,,
,,,,,,,,,,,,,FF,,,,,,,,1.6217,,,,,,,,,,,,,,,,,,,,,,60e544249db8e7a552141a95,60e562ef1b6a9b637eb94bef,2021-07-07_10h26.45.475,Simcolourproject_2stim_asymm_v5,2020.2.10,Win32,60,60e52e7cfedb1dae636df45f,,,,,,,,,3993,-42,51,1,0,0,response7disk,,0,-7,-8,1,0,0,rectangle,-7,-8,1,0,0,-7,-8,1,0,0,0,43,43,135,1,,,,,,,,
,,,,,,,,,,,,,FF,,,,,,,,1.1675,,,,,,,,,,,,,,,,,,,,,,60e544249db8e7a552141a95,60e562ef1b6a9b637eb94bef,2021-07-07_10h26.45.475,Simcolourproject_2stim_asymm_v5,2020.2.10,Win32,60,60e52e7cfedb1dae636df45f,,,,,,,,,1701,57,73,1,0,0,response1disk,,7,0,7,1,0,0,rectangle,0,7,1,0,0,0,7,1,0,0,0,44,44,30,1,,,,,,,,
,,,,,,,,,,,,,FF,,,,,,,,1.3373,,,,,,,,,,,,,,,,,,,,,,60e544249db8e7a552141a95,60e562ef1b6a9b637eb94bef,2021-07-07_10h26.45.475,Simcolourproject_2stim_asymm_v5,2020.2.10,Win32,60,60e52e7cfedb1dae636df45f,,,,,,,,,3384,-93,39,1,0,0,response7disk,,1,-25,1,1,0,0,rectangle,-25,1,1,0,0,-25,1,1,0,0,0,45,45,109,1,,,,,,,,
,,,,,,,,,,,,,FF,,,,,,,,1.5341,,,,,,,,,,,,,,,,,,,,,,60e544249db8e7a552141a95,60e562ef1b6a9b637eb94bef,2021-07-07_10h26.45.475,Simcolourproject_2stim_asymm_v5,2020.2.10,Win32,60,60e52e7cfedb1dae636df45f,,,,,,,,,293,18,46,1,0,0,response1disk,,7,9,4,1,0,0,rectangle,9,4,1,0,0,9,4,1,0,0,0,46,46,2,1,,,,,,,,
,,,,,,,,,,,,,FF,,,,,,,,1.3036,,,,,,,,,,,,,,,,,,,,,,60e544249db8e7a552141a95,60e562ef1b6a9b637eb94bef,2021-07-07_10h26.45.475,Simcolourproject_2stim_asymm_v5,2020.2.10,Win32,60,60e52e7cfedb1dae636df45f,,,,,,,,,17,25,49,1,0,0,response1disk,,7,-4,-12,1,0,0,rectangle,-4,-12,1,0,0,-4,-12,1,0,0,0,47,47,95,1,,,,,,,,
,,,,,,,,,,,,,FF,,,,,,,,1.8666,,,,,,,,,,,,,,,,,,,,,,60e544249db8e7a552141a95,60e562ef1b6a9b637eb94bef,2021-07-07_10h26.45.475,Simcolourproject_2stim_asymm_v5,2020.2.10,Win32,60,60e52e7cfedb1dae636df45f,,,,,,,,,2352,28,41,1,0,0,response1disk,,7,20,-5,1,0,0,rectangle,20,-5,1,0,0,20,-5,1,0,0,0,48,48,111,1,,,,,,,,
,,,,,,,,,,,,,FF,,,,,,,,1.8346,,,,,,,,,,,,,,,,,,,,,,60e544249db8e7a552141a95,60e562ef1b6a9b637eb94bef,2021-07-07_10h26.45.475,Simcolourproject_2stim_asymm_v5,2020.2.10,Win32,60,60e52e7cfedb1dae636df45f,,,,,,,,,4069,24,56,1,0,0,response1disk,,7,-6,11,1,0,0,rectangle,-6,11,1,0,0,-6,11,1,0,0,0,49,49,98,1,,,,,,,,
,,,,,,,,,,,,,FF,,,,,,,,2.8841,,,,,,,,,,,,,,,,,,,,,,60e544249db8e7a552141a95,60e562ef1b6a9b637eb94bef,2021-07-07_10h26.45.475,Simcolourproject_2stim_asymm_v5,2020.2.10,Win32,60,60e52e7cfedb1dae636df45f,,,,,,,,,486,34,69,1,0,0,response1disk,,7,-2,1,1,0,0,rectangle,-84,42,1,0,0,-19,6,1,0,0,0,50,50,100,1,,response7disk_3,TRUE,1,1,"[52,28,162,92,160,188,188,300,250,171,217,83,32,248,200,187,63,109,51,232]",2.1369,rectangle
,,,,,,,,,,,,,FF,,,,,,,,2.2512,,,,,,,,,,,,,,,,,,,,,,60e544249db8e7a552141a95,60e562ef1b6a9b637eb94bef,2021-07-07_10h26.45.475,Simcolourproject_2stim_asymm_v5,2020.2.10,Win32,60,60e52e7cfedb1dae636df45f,,,,,,,,,165,-21,-38,1,0,0,response5disk,,3,-6,-2,1,0,0,rectangle,-81,-41,1,0,0,8,-9,1,0,0,0,51,51,122,1,,response5disk_3,TRUE,2,2,"[52,28,162,92,160,188,188,300,250,171,217,83,32,248,200,187,63,109,51,232]",1.9522,rectangle
,,,,,,,,,,,,,FF,,,,,,,,1.236,,,,,,,,,,,,,,,,,,,,,,60e544249db8e7a552141a95,60e562ef1b6a9b637eb94bef,2021-07-07_10h26.45.475,Simcolourproject_2stim_asymm_v5,2020.2.10,Win32,60,60e52e7cfedb1dae636df45f,,,,,,,,,3347,23,71,1,0,0,response1disk,,7,-5,-3,1,0,0,rectangle,-5,-3,1,0,0,-5,-3,1,0,0,0,52,52,128,1,,,,,,,,
,,,,,,,,,,,,,FF,,,,,,,,1.9025,,,,,,,,,,,,,,,,,,,,,,60e544249db8e7a552141a95,60e562ef1b6a9b637eb94bef,2021-07-07_10h26.45.475,Simcolourproject_2stim_asymm_v5,2020.2.10,Win32,60,60e52e7cfedb1dae636df45f,,,,,,,,,2582,58,-28,1,0,0,response3disk,,5,-13,15,1,0,0,rectangle,-13,15,1,0,0,-13,15,1,0,0,0,53,53,93,1,,,,,,,,
,,,,,,,,,,,,,FF,,,,,,,,2.0718,,,,,,,,,,,,,,,,,,,,,,60e544249db8e7a552141a95,60e562ef1b6a9b637eb94bef,2021-07-07_10h26.45.475,Simcolourproject_2stim_asymm_v5,2020.2.10,Win32,60,60e52e7cfedb1dae636df45f,,,,,,,,,275,107,-55,1,0,0,response3disk,,5,8,3,1,0,0,rectangle,8,3,1,0,0,8,3,1,0,0,0,54,54,81,1,,,,,,,,
,,,,,,,,,,,,,FF,,,,,,,,2.0354,,,,,,,,,,,,,,,,,,,,,,60e544249db8e7a552141a95,60e562ef1b6a9b637eb94bef,2021-07-07_10h26.45.475,Simcolourproject_2stim_asymm_v5,2020.2.10,Win32,60,60e52e7cfedb1dae636df45f,,,,,,,,,105,31,59,1,0,0,response1disk,,7,-7,-7,1,0,0,rectangle,-7,-7,1,0,0,-7,-7,1,0,0,0,55,55,123,1,,,,,,,,
,,,,,,,,,,,,,FF,,,,,,,,1.6397,,,,,,,,,,,,,,,,,,,,,,60e544249db8e7a552141a95,60e562ef1b6a9b637eb94bef,2021-07-07_10h26.45.475,Simcolourproject_2stim_asymm_v5,2020.2.10,Win32,60,60e52e7cfedb1dae636df45f,,,,,,,,,2428,53,-76,1,0,0,response3disk,,4,18,-13,1,0,0,rectangle,18,-13,1,0,0,18,-13,1,0,0,0,56,56,117,1,,,,,,,,
,,,,,,,,,,,,,FF,,,,,,,,1.857,,,,,,,,,,,,,,,,,,,,,,60e544249db8e7a552141a95,60e562ef1b6a9b637eb94bef,2021-07-07_10h26.45.475,Simcolourproject_2stim_asymm_v5,2020.2.10,Win32,60,60e52e7cfedb1dae636df45f,,,,,,,,,1213,-56,27,1,0,0,response7disk,,1,6,-9,1,0,0,rectangle,6,-9,1,0,0,6,-9,1,0,0,0,57,57,8,1,,,,,,,,
,,,,,,,,,,,,,FF,,,,,,,,1.1089,,,,,,,,,,,,,,,,,,,,,,60e544249db8e7a552141a95,60e562ef1b6a9b637eb94bef,2021-07-07_10h26.45.475,Simcolourproject_2stim_asymm_v5,2020.2.10,Win32,60,60e52e7cfedb1dae636df45f,,,,,,,,,3185,34,68,1,0,0,response1disk,,7,-3,6,1,0,0,rectangle,-3,6,1,0,0,-3,6,1,0,0,0,58,58,10,1,,,,,,,,
,,,,,,,,,,,,,FF,,,,,,,,2.5346,,,,,,,,,,,,,,,,,,,,,,60e544249db8e7a552141a95,60e562ef1b6a9b637eb94bef,2021-07-07_10h26.45.475,Simcolourproject_2stim_asymm_v5,2020.2.10,Win32,60,60e52e7cfedb1dae636df45f,,,,,,,,,1575,23,37,1,0,0,response1disk,,7,10,7,1,0,0,rectangle,10,7,1,0,0,10,7,1,0,0,0,59,59,74,1,,,,,,,,
,,,,,,,,,,,,,FF,,,,,,,,2.7367,,,,,,,,,,,,,,,,,,,,,,60e544249db8e7a552141a95,60e562ef1b6a9b637eb94bef,2021-07-07_10h26.45.475,Simcolourproject_2stim_asymm_v5,2020.2.10,Win32,60,60e52e7cfedb1dae636df45f,,,,,,,,,3264,114,31,1,0,0,response1disk,,6,-7,-1,1,0,0,rectangle,-7,-1,1,0,0,-7,-1,1,0,0,0,60,60,50,1,,,,,,,,
,,,,,,,,,,,,,FF,,,,,,,,1.3508,,,,,,,,,,,,,,,,,,,,,,60e544249db8e7a552141a95,60e562ef1b6a9b637eb94bef,2021-07-07_10h26.45.475,Simcolourproject_2stim_asymm_v5,2020.2.10,Win32,60,60e52e7cfedb1dae636df45f,,,,,,,,,3998,-42,88,1,0,0,response7disk,,0,-5,1,1,0,0,rectangle,-5,1,1,0,0,-5,1,1,0,0,0,61,61,129,1,,,,,,,,
,,,,,,,,,,,,,FF,,,,,,,,4.1535,,,,,,,,,,,,,,,,,,,,,,60e544249db8e7a552141a95,60e562ef1b6a9b637eb94bef,2021-07-07_10h26.45.475,Simcolourproject_2stim_asymm_v5,2020.2.10,Win32,60,60e52e7cfedb1dae636df45f,,,,,,,,,2412,25,45,1,0,0,response1disk,,7,12,9,1,0,0,rectangle,-55,15,1,0,0,-23,5,1,0,0,0,62,62,102,1,,response7disk_3,TRUE,1,1,"[52,28,162,92,160,188,188,300,250,171,217,83,32,248,200,187,63,109,51,232]",2.189,rectangle
,,,,,,,,,,,,,FF,,,,,,,,1.4699,,,,,,,,,,,,,,,,,,,,,,60e544249db8e7a552141a95,60e562ef1b6a9b637eb94bef,2021-07-07_10h26.45.475,Simcolourproject_2stim_asymm_v5,2020.2.10,Win32,60,60e52e7cfedb1dae636df45f,,,,,,,,,338,52,106,1,0,0,response1disk,,7,8,1,1,0,0,rectangle,8,1,1,0,0,8,1,1,0,0,0,63,63,106,1,,,,,,,,
,,,,,,,,,,,,,FF,,,,,,,,1.5364,,,,,,,,,,,,,,,,,,,,,,60e544249db8e7a552141a95,60e562ef1b6a9b637eb94bef,2021-07-07_10h26.45.475,Simcolourproject_2stim_asymm_v5,2020.2.10,Win32,60,60e52e7cfedb1dae636df45f,,,,,,,,,1739,-53,-31,1,0,0,response5disk,,2,4,9,1,0,0,rectangle,4,9,1,0,0,4,9,1,0,0,0,64,64,136,1,,,,,,,,
,,,,,,,,,,,,,FF,,,,,,,,1.2872,,,,,,,,,,,,,,,,,,,,,,60e544249db8e7a552141a95,60e562ef1b6a9b637eb94bef,2021-07-07_10h26.45.475,Simcolourproject_2stim_asymm_v5,2020.2.10,Win32,60,60e52e7cfedb1dae636df45f,,,,,,,,,2606,-21,-32,1,0,0,response5disk,,3,-5,0,1,0,0,rectangle,-5,0,1,0,0,-5,0,1,0,0,0,65,65,79,1,,,,,,,,
,,,,,,,,,,,,,FF,,,,,,,,1.1338,,,,,,,,,,,,,,,,,,,,,,60e544249db8e7a552141a95,60e562ef1b6a9b637eb94bef,2021-07-07_10h26.45.475,Simcolourproject_2stim_asymm_v5,2020.2.10,Win32,60,60e52e7cfedb1dae636df45f,,,,,,,,,530,-33,-50,1,0,0,response5disk,,3,-6,8,1,0,0,rectangle,-6,8,1,0,0,-6,8,1,0,0,0,66,66,116,1,,,,,,,,
,,,,,,,,,,,,,FF,,,,,,,,1.5677,,,,,,,,,,,,,,,,,,,,,,60e544249db8e7a552141a95,60e562ef1b6a9b637eb94bef,2021-07-07_10h26.45.475,Simcolourproject_2stim_asymm_v5,2020.2.10,Win32,60,60e52e7cfedb1dae636df45f,,,,,,,,,2819,41,19,1,0,0,response1disk,,6,-4,-2,1,0,0,rectangle,-4,-2,1,0,0,-4,-2,1,0,0,0,67,67,142,1,,,,,,,,
,,,,,,,,,,,,,FF,,,,,,,,2.9657,,,,,,,,,,,,,,,,,,,,,,60e544249db8e7a552141a95,60e562ef1b6a9b637eb94bef,2021-07-07_10h26.45.475,Simcolourproject_2stim_asymm_v5,2020.2.10,Win32,60,60e52e7cfedb1dae636df45f,,,,,,,,,2474,46,42,1,0,0,response1disk,,6,12,12,1,0,0,rectangle,12,12,1,0,0,12,12,1,0,0,0,68,68,70,1,,,,,,,,
,,,,,,,,,,,,,FF,,,,,,,,3.2522,,,,,,,,,,,,,,,,,,,,,,60e544249db8e7a552141a95,60e562ef1b6a9b637eb94bef,2021-07-07_10h26.45.475,Simcolourproject_2stim_asymm_v5,2020.2.10,Win32,60,60e52e7cfedb1dae636df45f,,,,,,,,,823,74,-64,1,0,0,response3disk,,5,9,-10,1,0,0,rectangle,9,-10,1,0,0,9,-10,1,0,0,0,69,69,14,1,,,,,,,,
,,,,,,,,,,,,,FF,,,,,,,,1.2201,,,,,,,,,,,,,,,,,,,,,,60e544249db8e7a552141a95,60e562ef1b6a9b637eb94bef,2021-07-07_10h26.45.475,Simcolourproject_2stim_asymm_v5,2020.2.10,Win32,60,60e52e7cfedb1dae636df45f,,,,,,,,,2526,52,76,1,0,0,response1disk,,7,1,-5,1,0,0,rectangle,1,-5,1,0,0,1,-5,1,0,0,0,70,70,86,1,,,,,,,,
,,,,,,,,,,,,,FF,,,,,,,,1.2907,,,,,,,,,,,,,,,,,,,,,,60e544249db8e7a552141a95,60e562ef1b6a9b637eb94bef,2021-07-07_10h26.45.475,Simcolourproject_2stim_asymm_v5,2020.2.10,Win32,60,60e52e7cfedb1dae636df45f,,,,,,,,,3357,-29,-45,1,0,0,response5disk,,3,6,5,1,0,0,rectangle,6,5,1,0,0,6,5,1,0,0,0,71,71,103,1,,,,,,,,
,,,,,,,,,,,,,FF,,,,,,,,1.7061,,,,,,,,,,,,,,,,,,,,,,60e544249db8e7a552141a95,60e562ef1b6a9b637eb94bef,2021-07-07_10h26.45.475,Simcolourproject_2stim_asymm_v5,2020.2.10,Win32,60,60e52e7cfedb1dae636df45f,,,,,,,,,503,23,42,1,0,0,response1disk,,7,14,1,1,0,0,rectangle,14,1,1,0,0,14,1,1,0,0,0,72,72,21,1,,,,,,,,
,,,,,,,,,,,,,FF,,,,,,,,1.6245,,,,,,,,,,,,,,,,,,,,,,60e544249db8e7a552141a95,60e562ef1b6a9b637eb94bef,2021-07-07_10h26.45.475,Simcolourproject_2stim_asymm_v5,2020.2.10,Win32,60,60e52e7cfedb1dae636df45f,,,,,,,,,280,-29,-49,1,0,0,response5disk,,3,-3,10,1,0,0,rectangle,-3,10,1,0,0,-3,10,1,0,0,0,73,73,99,1,,,,,,,,
,,,,,,,,,,,,,FF,,,,,,,,2.8918,,,,,,,,,,,,,,,,,,,,,,60e544249db8e7a552141a95,60e562ef1b6a9b637eb94bef,2021-07-07_10h26.45.475,Simcolourproject_2stim_asymm_v5,2020.2.10,Win32,60,60e52e7cfedb1dae636df45f,,,,,,,,,1931,23,30,1,0,0,response1disk,,7,6,-3,1,0,0,rectangle,6,-3,1,0,0,6,-3,1,0,0,0,74,74,145,1,,,,,,,,
,,,,,,,,,,,,,FF,,,,,,,,1.1539,,,,,,,,,,,,,,,,,,,,,,60e544249db8e7a552141a95,60e562ef1b6a9b637eb94bef,2021-07-07_10h26.45.475,Simcolourproject_2stim_asymm_v5,2020.2.10,Win32,60,60e52e7cfedb1dae636df45f,,,,,,,,,1671,26,48,1,0,0,response1disk,,7,7,11,1,0,0,rectangle,7,11,1,0,0,7,11,1,0,0,0,75,75,36,1,,,,,,,,
,,,,,,,,,,,,,FF,,,,,,,,1.3849,,,,,,,,,,,,,,,,,,,,,,60e544249db8e7a552141a95,60e562ef1b6a9b637eb94bef,2021-07-07_10h26.45.475,Simcolourproject_2stim_asymm_v5,2020.2.10,Win32,60,60e52e7cfedb1dae636df45f,,,,,,,,,1558,24,40,1,0,0,response1disk,,7,7,-3,1,0,0,rectangle,7,-3,1,0,0,7,-3,1,0,0,0,76,76,71,1,,,,,,,,
,,,,,,,,,,,,,FF,,,,,,,,0.9673,,,,,,,,,,,,,,,,,,,,,,60e544249db8e7a552141a95,60e562ef1b6a9b637eb94bef,2021-07-07_10h26.45.475,Simcolourproject_2stim_asymm_v5,2020.2.10,Win32,60,60e52e7cfedb1dae636df45f,,,,,,,,,1479,34,78,1,0,0,response1disk,,7,1,-1,1,0,0,rectangle,1,-1,1,0,0,1,-1,1,0,0,0,77,77,27,1,,,,,,,,
,,,,,,,,,,,,,FF,,,,,,,,1.0723,,,,,,,,,,,,,,,,,,,,,,60e544249db8e7a552141a95,60e562ef1b6a9b637eb94bef,2021-07-07_10h26.45.475,Simcolourproject_2stim_asymm_v5,2020.2.10,Win32,60,60e52e7cfedb1dae636df45f,,,,,,,,,207,21,43,1,0,0,response1disk,,7,3,-7,1,0,0,rectangle,3,-7,1,0,0,3,-7,1,0,0,0,78,78,66,1,,,,,,,,
,,,,,,,,,,,,,FF,,,,,,,,2.8178,,,,,,,,,,,,,,,,,,,,,,60e544249db8e7a552141a95,60e562ef1b6a9b637eb94bef,2021-07-07_10h26.45.475,Simcolourproject_2stim_asymm_v5,2020.2.10,Win32,60,60e52e7cfedb1dae636df45f,,,,,,,,,2325,26,49,1,0,0,response1disk,,7,-8,2,1,0,0,rectangle,-8,2,1,0,0,-8,2,1,0,0,0,79,79,15,1,,,,,,,,
,,,,,,,,,,,,,FF,,,,,,,,1.8193,,,,,,,,,,,,,,,,,,,,,,60e544249db8e7a552141a95,60e562ef1b6a9b637eb94bef,2021-07-07_10h26.45.475,Simcolourproject_2stim_asymm_v5,2020.2.10,Win32,60,60e52e7cfedb1dae636df45f,,,,,,,,,2721,-78,34,1,0,0,response7disk,,1,-17,6,1,0,0,rectangle,-17,6,1,0,0,-17,6,1,0,0,0,80,80,141,1,,,,,,,,
,,,,,,,,,,,,,FF,,,,,,,,1.0382,,,,,,,,,,,,,,,,,,,,,,60e544249db8e7a552141a95,60e562ef1b6a9b637eb94bef,2021-07-07_10h26.45.475,Simcolourproject_2stim_asymm_v5,2020.2.10,Win32,60,60e52e7cfedb1dae636df45f,,,,,,,,,860,34,82,1,0,0,response1disk,,7,1,5,1,0,0,rectangle,1,5,1,0,0,1,5,1,0,0,0,81,81,126,1,,,,,,,,
,,,,,,,,,,,,,FF,,,,,,,,3.5846,,,,,,,,,,,,,,,,,,,,,,60e544249db8e7a552141a95,60e562ef1b6a9b637eb94bef,2021-07-07_10h26.45.475,Simcolourproject_2stim_asymm_v5,2020.2.10,Win32,60,60e52e7cfedb1dae636df45f,,,,,,,,,547,19,40,1,0,0,response1disk,,7,4,-4,1,0,0,rectangle,-56,92,1,0,0,1,3,1,0,0,0,82,82,19,1,,response7disk_3,TRUE,0,0,"[52,28,162,92,160,188,188,300,250,171,217,83,32,248,200,187,63,109,51,232]",2.5204,rectangle
,,,,,,,,,,,,,FF,,,,,,,,1.9513,,,,,,,,,,,,,,,,,,,,,,60e544249db8e7a552141a95,60e562ef1b6a9b637eb94bef,2021-07-07_10h26.45.475,Simcolourproject_2stim_asymm_v5,2020.2.10,Win32,60,60e52e7cfedb1dae636df45f,,,,,,,,,358,53,67,1,0,0,response1disk,,7,-10,-13,1,0,0,rectangle,-10,-13,1,0,0,-10,-13,1,0,0,0,83,83,130,1,,,,,,,,
,,,,,,,,,,,,,FF,,,,,,,,1.051,,,,,,,,,,,,,,,,,,,,,,60e544249db8e7a552141a95,60e562ef1b6a9b637eb94bef,2021-07-07_10h26.45.475,Simcolourproject_2stim_asymm_v5,2020.2.10,Win32,60,60e52e7cfedb1dae636df45f,,,,,,,,,1121,62,98,1,0,0,response1disk,,7,6,2,1,0,0,rectangle,6,2,1,0,0,6,2,1,0,0,0,84,84,108,1,,,,,,,,
,,,,,,,,,,,,,FF,,,,,,,,1.5888,,,,,,,,,,,,,,,,,,,,,,60e544249db8e7a552141a95,60e562ef1b6a9b637eb94bef,2021-07-07_10h26.45.475,Simcolourproject_2stim_asymm_v5,2020.2.10,Win32,60,60e52e7cfedb1dae636df45f,,,,,,,,,906,-21,-51,1,0,0,response5disk,,3,6,-6,1,0,0,rectangle,6,-6,1,0,0,6,-6,1,0,0,0,85,85,9,1,,,,,,,,
,,,,,,,,,,,,,FF,,,,,,,,1.3532,,,,,,,,,,,,,,,,,,,,,,60e544249db8e7a552141a95,60e562ef1b6a9b637eb94bef,2021-07-07_10h26.45.475,Simcolourproject_2stim_asymm_v5,2020.2.10,Win32,60,60e52e7cfedb1dae636df45f,,,,,,,,,436,-31,-42,1,0,0,response5disk,,3,-2,5,1,0,0,rectangle,-2,5,1,0,0,-2,5,1,0,0,0,86,86,94,1,,,,,,,,
,,,,,,,,,,,,,FF,,,,,,,,1.0875,,,,,,,,,,,,,,,,,,,,,,60e544249db8e7a552141a95,60e562ef1b6a9b637eb94bef,2021-07-07_10h26.45.475,Simcolourproject_2stim_asymm_v5,2020.2.10,Win32,60,60e52e7cfedb1dae636df45f,,,,,,,,,730,-41,-64,1,0,0,response5disk,,3,9,3,1,0,0,rectangle,9,3,1,0,0,9,3,1,0,0,0,87,87,114,1,,,,,,,,
,,,,,,,,,,,,,FF,,,,,,,,2.5364,,,,,,,,,,,,,,,,,,,,,,60e544249db8e7a552141a95,60e562ef1b6a9b637eb94bef,2021-07-07_10h26.45.475,Simcolourproject_2stim_asymm_v5,2020.2.10,Win32,60,60e52e7cfedb1dae636df45f,,,,,,,,,2697,25,38,1,0,0,response1disk,,7,-12,-15,1,0,0,rectangle,-12,-15,1,0,0,-12,-15,1,0,0,0,88,88,42,1,,,,,,,,
,,,,,,,,,,,,,FF,,,,,,,,1.2863,,,,,,,,,,,,,,,,,,,,,,60e544249db8e7a552141a95,60e562ef1b6a9b637eb94bef,2021-07-07_10h26.45.475,Simcolourproject_2stim_asymm_v5,2020.2.10,Win32,60,60e52e7cfedb1dae636df45f,,,,,,,,,701,51,44,1,0,0,response1disk,,6,15,8,1,0,0,rectangle,15,8,1,0,0,15,8,1,0,0,0,89,89,75,1,,,,,,,,
,,,,,,,,,,,,,FF,,,,,,,,1.4021,,,,,,,,,,,,,,,,,,,,,,60e544249db8e7a552141a95,60e562ef1b6a9b637eb94bef,2021-07-07_10h26.45.475,Simcolourproject_2stim_asymm_v5,2020.2.10,Win32,60,60e52e7cfedb1dae636df45f,,,,,,,,,2195,49,-42,1,0,0,response3disk,,5,-5,11,1,0,0,rectangle,-5,11,1,0,0,-5,11,1,0,0,0,90,90,40,1,,,,,,,,
,,,,,,,,,,,,,FF,,,,,,,,1.2349,,,,,,,,,,,,,,,,,,,,,,60e544249db8e7a552141a95,60e562ef1b6a9b637eb94bef,2021-07-07_10h26.45.475,Simcolourproject_2stim_asymm_v5,2020.2.10,Win32,60,60e52e7cfedb1dae636df45f,,,,,,,,,3690,41,80,1,0,0,response1disk,,7,4,-8,1,0,0,rectangle,-61,-95,1,0,0,-14,-2,1,0,0,0,91,91,83,1,,response5disk_3,TRUE,3,3,"[52,28,162,92,160,188,188,300,250,171,217,83,32,248,200,187,63,109,51,232]",1.9512,rectangle
,,,,,,,,,,,,,FF,,,,,,,,1.7498,,,,,,,,,,,,,,,,,,,,,,60e544249db8e7a552141a95,60e562ef1b6a9b637eb94bef,2021-07-07_10h26.45.475,Simcolourproject_2stim_asymm_v5,2020.2.10,Win32,60,60e52e7cfedb1dae636df45f,,,,,,,,,1660,38,63,1,0,0,response1disk,,7,23,9,1,0,0,rectangle,23,9,1,0,0,23,9,1,0,0,0,92,92,69,1,,,,,,,,
,,,,,,,,,,,,,FF,,,,,,,,1.0846,,,,,,,,,,,,,,,,,,,,,,60e544249db8e7a552141a95,60e562ef1b6a9b637eb94bef,2021-07-07_10h26.45.475,Simcolourproject_2stim_asymm_v5,2020.2.10,Win32,60,60e52e7cfedb1dae636df45f,,,,,,,,,3731,49,76,1,0,0,response1disk,,7,14,7,1,0,0,rectangle,14,7,1,0,0,14,7,1,0,0,0,93,93,33,1,,,,,,,,
,,,,,,,,,,,,,FF,,,,,,,,1.3533,,,,,,,,,,,,,,,,,,,,,,60e544249db8e7a552141a95,60e562ef1b6a9b637eb94bef,2021-07-07_10h26.45.475,Simcolourproject_2stim_asymm_v5,2020.2.10,Win32,60,60e52e7cfedb1dae636df45f,,,,,,,,,817,-24,-55,1,0,0,response5disk,,3,8,-1,1,0,0,rectangle,8,-1,1,0,0,8,-1,1,0,0,0,94,94,0,1,,,,,,,,
,,,,,,,,,,,,,FF,,,,,,,,1.0344,,,,,,,,,,,,,,,,,,,,,,60e544249db8e7a552141a95,60e562ef1b6a9b637eb94bef,2021-07-07_10h26.45.475,Simcolourproject_2stim_asymm_v5,2020.2.10,Win32,60,60e52e7cfedb1dae636df45f,,,,,,,,,2364,-52,-38,1,0,0,response5disk,,2,-4,-1,1,0,0,rectangle,-4,-1,1,0,0,-4,-1,1,0,0,0,95,95,101,1,,,,,,,,
,,,,,,,,,,,,,FF,,,,,,,,1.1185,,,,,,,,,,,,,,,,,,,,,,60e544249db8e7a552141a95,60e562ef1b6a9b637eb94bef,2021-07-07_10h26.45.475,Simcolourproject_2stim_asymm_v5,2020.2.10,Win32,60,60e52e7cfedb1dae636df45f,,,,,,,,,3836,43,-31,1,0,0,response3disk,,5,10,-15,1,0,0,rectangle,10,-15,1,0,0,10,-15,1,0,0,0,96,96,88,1,,,,,,,,
,,,,,,,,,,,,,FF,,,,,,,,0.9699,,,,,,,,,,,,,,,,,,,,,,60e544249db8e7a552141a95,60e562ef1b6a9b637eb94bef,2021-07-07_10h26.45.475,Simcolourproject_2stim_asymm_v5,2020.2.10,Win32,60,60e52e7cfedb1dae636df45f,,,,,,,,,941,37,-17,1,0,0,response3disk,,5,-8,6,1,0,0,rectangle,-8,6,1,0,0,-8,6,1,0,0,0,97,97,65,1,,,,,,,,
,,,,,,,,,,,,,FF,,,,,,,,1.2913,,,,,,,,,,,,,,,,,,,,,,60e544249db8e7a552141a95,60e562ef1b6a9b637eb94bef,2021-07-07_10h26.45.475,Simcolourproject_2stim_asymm_v5,2020.2.10,Win32,60,60e52e7cfedb1dae636df45f,,,,,,,,,786,17,38,1,0,0,response1disk,,7,-5,-4,1,0,0,rectangle,-5,-4,1,0,0,-5,-4,1,0,0,0,98,98,144,1,,,,,,,,
,,,,,,,,,,,,,FF,,,,,,,,1.0493,,,,,,,,,,,,,,,,,,,,,,60e544249db8e7a552141a95,60e562ef1b6a9b637eb94bef,2021-07-07_10h26.45.475,Simcolourproject_2stim_asymm_v5,2020.2.10,Win32,60,60e52e7cfedb1dae636df45f,,,,,,,,,3868,29,60,1,0,0,response1disk,,7,16,11,1,0,0,rectangle,16,11,1,0,0,16,11,1,0,0,0,99,99,54,1,,,,,,,,
,,,,,,,,,,,,,FF,,,,,,,,1.3686,,,,,,,,,,,,,,,,,,,,,,60e544249db8e7a552141a95,60e562ef1b6a9b637eb94bef,2021-07-07_10h26.45.475,Simcolourproject_2stim_asymm_v5,2020.2.10,Win32,60,60e52e7cfedb1dae636df45f,,,,,,,,,1151,25,41,1,0,0,response1disk,,7,3,-11,1,0,0,rectangle,3,-11,1,0,0,3,-11,1,0,0,0,100,100,60,1,,,,,,,,
,,,,,,,,,,,,,FF,,,,,,,,2.618,,,,,,,,,,,,,,,,,,,,,,60e544249db8e7a552141a95,60e562ef1b6a9b637eb94bef,2021-07-07_10h26.45.475,Simcolourproject_2stim_asymm_v5,2020.2.10,Win32,60,60e52e7cfedb1dae636df45f,,,,,,,,,3467,43,46,1,0,0,response1disk,,7,4,-1,1,0,0,rectangle,4,-1,1,0,0,4,-1,1,0,0,0,101,101,18,1,,,,,,,,
,,,,,,,,,,,,,FF,,,,,,,,1.2359,,,,,,,,,,,,,,,,,,,,,,60e544249db8e7a552141a95,60e562ef1b6a9b637eb94bef,2021-07-07_10h26.45.475,Simcolourproject_2stim_asymm_v5,2020.2.10,Win32,60,60e52e7cfedb1dae636df45f,,,,,,,,,577,36,60,1,0,0,response1disk,,7,-7,4,1,0,0,rectangle,-7,4,1,0,0,-7,4,1,0,0,0,102,102,143,1,,,,,,,,
,,,,,,,,,,,,,FF,,,,,,,,2.9342,,,,,,,,,,,,,,,,,,,,,,60e544249db8e7a552141a95,60e562ef1b6a9b637eb94bef,2021-07-07_10h26.45.475,Simcolourproject_2stim_asymm_v5,2020.2.10,Win32,60,60e52e7cfedb1dae636df45f,,,,,,,,,1758,-76,47,1,0,0,response7disk,,1,-16,3,1,0,0,rectangle,-16,3,1,0,0,-16,3,1,0,0,0,103,103,154,1,,,,,,,,
,,,,,,,,,,,,,FF,,,,,,,,3.4695,,,,,,,,,,,,,,,,,,,,,,60e544249db8e7a552141a95,60e562ef1b6a9b637eb94bef,2021-07-07_10h26.45.475,Simcolourproject_2stim_asymm_v5,2020.2.10,Win32,60,60e52e7cfedb1dae636df45f,,,,,,,,,3537,21,34,1,0,0,response1disk,,7,4,6,1,0,0,rectangle,4,6,1,0,0,4,6,1,0,0,0,104,104,1,1,,,,,,,,
,,,,,,,,,,,,,FF,,,,,,,,2.32,,,,,,,,,,,,,,,,,,,,,,60e544249db8e7a552141a95,60e562ef1b6a9b637eb94bef,2021-07-07_10h26.45.475,Simcolourproject_2stim_asymm_v5,2020.2.10,Win32,60,60e52e7cfedb1dae636df45f,,,,,,,,,1067,18,-39,1,0,0,response3disk,,4,3,3,1,0,0,rectangle,3,3,1,0,0,3,3,1,0,0,0,105,105,6,1,,,,,,,,
,,,,,,,,,,,,,FF,,,,,,,,2.0045,,,,,,,,,,,,,,,,,,,,,,60e544249db8e7a552141a95,60e562ef1b6a9b637eb94bef,2021-07-07_10h26.45.475,Simcolourproject_2stim_asymm_v5,2020.2.10,Win32,60,60e52e7cfedb1dae636df45f,,,,,,,,,615,30,38,1,0,0,response1disk,,7,-16,-6,1,0,0,rectangle,-16,-6,1,0,0,-16,-6,1,0,0,0,106,106,38,1,,,,,,,,
,,,,,,,,,,,,,FF,,,,,,,,1.3186,,,,,,,,,,,,,,,,,,,,,,60e544249db8e7a552141a95,60e562ef1b6a9b637eb94bef,2021-07-07_10h26.45.475,Simcolourproject_2stim_asymm_v5,2020.2.10,Win32,60,60e52e7cfedb1dae636df45f,,,,,,,,,3527,66,101,1,0,0,response1disk,,7,21,9,1,0,0,rectangle,21,9,1,0,0,21,9,1,0,0,0,107,107,49,1,,,,,,,,
,,,,,,,,,,,,,FF,,,,,,,,3.0543,,,,,,,,,,,,,,,,,,,,,,60e544249db8e7a552141a95,60e562ef1b6a9b637eb94bef,2021-07-07_10h26.45.475,Simcolourproject_2stim_asymm_v5,2020.2.10,Win32,60,60e52e7cfedb1dae636df45f,,,,,,,,,1045,25,31,1,0,0,response1disk,,7,-1,6,1,0,0,rectangle,-70,28,1,0,0,-13,-2,1,0,0,0,108,108,157,1,,response7disk_3,TRUE,1,1,"[52,28,162,92,160,188,188,300,250,171,217,83,32,248,200,187,63,109,51,232]",1.6213,rectangle
,,,,,,,,,,,,,FF,,,,,,,,0.9743,,,,,,,,,,,,,,,,,,,,,,60e544249db8e7a552141a95,60e562ef1b6a9b637eb94bef,2021-07-07_10h26.45.475,Simcolourproject_2stim_asymm_v5,2020.2.10,Win32,60,60e52e7cfedb1dae636df45f,,,,,,,,,3648,40,61,1,0,0,response1disk,,7,1,5,1,0,0,rectangle,1,5,1,0,0,1,5,1,0,0,0,109,109,22,1,,,,,,,,
,,,,,,,,,,,,,FF,,,,,,,,1.1676,,,,,,,,,,,,,,,,,,,,,,60e544249db8e7a552141a95,60e562ef1b6a9b637eb94bef,2021-07-07_10h26.45.475,Simcolourproject_2stim_asymm_v5,2020.2.10,Win32,60,60e52e7cfedb1dae636df45f,,,,,,,,,375,22,59,1,0,0,response1disk,,7,-9,-5,1,0,0,rectangle,-9,-5,1,0,0,-9,-5,1,0,0,0,110,110,55,1,,,,,,,,
,,,,,,,,,,,,,FF,,,,,,,,1.5734,,,,,,,,,,,,,,,,,,,,,,60e544249db8e7a552141a95,60e562ef1b6a9b637eb94bef,2021-07-07_10h26.45.475,Simcolourproject_2stim_asymm_v5,2020.2.10,Win32,60,60e52e7cfedb1dae636df45f,,,,,,,,,643,17,45,1,0,0,response1disk,,7,-5,-14,1,0,0,rectangle,-5,-14,1,0,0,-5,-14,1,0,0,0,111,111,147,1,,,,,,,,
,,,,,,,,,,,,,FF,,,,,,,,2.2356,,,,,,,,,,,,,,,,,,,,,,60e544249db8e7a552141a95,60e562ef1b6a9b637eb94bef,2021-07-07_10h26.45.475,Simcolourproject_2stim_asymm_v5,2020.2.10,Win32,60,60e52e7cfedb1dae636df45f,,,,,,,,,2546,-83,23,1,0,0,response7disk,,1,-13,-2,1,0,0,rectangle,-13,-2,1,0,0,-13,-2,1,0,0,0,112,112,156,1,,,,,,,,
,,,,,,,,,,,,,FF,,,,,,,,1.5017,,,,,,,,,,,,,,,,,,,,,,60e544249db8e7a552141a95,60e562ef1b6a9b637eb94bef,2021-07-07_10h26.45.475,Simcolourproject_2stim_asymm_v5,2020.2.10,Win32,60,60e52e7cfedb1dae636df45f,,,,,,,,,2951,-64,-29,1,0,0,response5disk,,2,-12,7,1,0,0,rectangle,-12,7,1,0,0,-12,7,1,0,0,0,113,113,67,1,,,,,,,,
,,,,,,,,,,,,,FF,,,,,,,,1.401,,,,,,,,,,,,,,,,,,,,,,60e544249db8e7a552141a95,60e562ef1b6a9b637eb94bef,2021-07-07_10h26.45.475,Simcolourproject_2stim_asymm_v5,2020.2.10,Win32,60,60e52e7cfedb1dae636df45f,,,,,,,,,2044,-65,-38,1,0,0,response5disk,,2,-14,-9,1,0,0,rectangle,-14,-9,1,0,0,-14,-9,1,0,0,0,114,114,39,1,,,,,,,,
,,,,,,,,,,,,,FF,,,,,,,,1.0678,,,,,,,,,,,,,,,,,,,,,,60e544249db8e7a552141a95,60e562ef1b6a9b637eb94bef,2021-07-07_10h26.45.475,Simcolourproject_2stim_asymm_v5,2020.2.10,Win32,60,60e52e7cfedb1dae636df45f,,,,,,,,,742,-45,-60,1,0,0,response5disk,,3,-1,3,1,0,0,rectangle,-1,3,1,0,0,-1,3,1,0,0,0,115,115,46,1,,,,,,,,
,,,,,,,,,,,,,FF,,,,,,,,1.2843,,,,,,,,,,,,,,,,,,,,,,60e544249db8e7a552141a95,60e562ef1b6a9b637eb94bef,2021-07-07_10h26.45.475,Simcolourproject_2stim_asymm_v5,2020.2.10,Win32,60,60e52e7cfedb1dae636df45f,,,,,,,,,3700,-46,-83,1,0,0,response5disk,,3,-2,-3,1,0,0,rectangle,-2,-3,1,0,0,-2,-3,1,0,0,0,116,116,120,1,,,,,,,,
,,,,,,,,,,,,,FF,,,,,,,,1.3174,,,,,,,,,,,,,,,,,,,,,,60e544249db8e7a552141a95,60e562ef1b6a9b637eb94bef,2021-07-07_10h26.45.475,Simcolourproject_2stim_asymm_v5,2020.2.10,Win32,60,60e52e7cfedb1dae636df45f,,,,,,,,,2738,73,-52,1,0,0,response3disk,,5,1,-1,1,0,0,rectangle,1,-1,1,0,0,1,-1,1,0,0,0,117,117,51,1,,,,,,,,
,,,,,,,,,,,,,FF,,,,,,,,1.1342,,,,,,,,,,,,,,,,,,,,,,60e544249db8e7a552141a95,60e562ef1b6a9b637eb94bef,2021-07-07_10h26.45.475,Simcolourproject_2stim_asymm_v5,2020.2.10,Win32,60,60e52e7cfedb1dae636df45f,,,,,,,,,815,-76,-30,1,0,0,response5disk,,2,0,6,1,0,0,rectangle,0,6,1,0,0,0,6,1,0,0,0,118,118,4,1,,,,,,,,
,,,,,,,,,,,,,FF,,,,,,,,2.0201,,,,,,,,,,,,,,,,,,,,,,60e544249db8e7a552141a95,60e562ef1b6a9b637eb94bef,2021-07-07_10h26.45.475,Simcolourproject_2stim_asymm_v5,2020.2.10,Win32,60,60e52e7cfedb1dae636df45f,,,,,,,,,1331,64,62,1,0,0,response1disk,,6,1,11,1,0,0,rectangle,1,11,1,0,0,1,11,1,0,0,0,119,119,132,1,,,,,,,,
,,,,,,,,,,,,,FF,,,,,,,,1.1176,,,,,,,,,,,,,,,,,,,,,,60e544249db8e7a552141a95,60e562ef1b6a9b637eb94bef,2021-07-07_10h26.45.475,Simcolourproject_2stim_asymm_v5,2020.2.10,Win32,60,60e52e7cfedb1dae636df45f,,,,,,,,,1784,36,75,1,0,0,response1disk,,7,0,-4,1,0,0,rectangle,0,-4,1,0,0,0,-4,1,0,0,0,120,120,59,1,,,,,,,,
,,,,,,,,,,,,,FF,,,,,,,,1.0053,,,,,,,,,,,,,,,,,,,,,,60e544249db8e7a552141a95,60e562ef1b6a9b637eb94bef,2021-07-07_10h26.45.475,Simcolourproject_2stim_asymm_v5,2020.2.10,Win32,60,60e52e7cfedb1dae636df45f,,,,,,,,,4258,39,67,1,0,0,response1disk,,7,-2,-6,1,0,0,rectangle,-2,-6,1,0,0,-2,-6,1,0,0,0,121,121,90,1,,,,,,,,
,,,,,,,,,,,,,FF,,,,,,,,2.2371,,,,,,,,,,,,,,,,,,,,,,60e544249db8e7a552141a95,60e562ef1b6a9b637eb94bef,2021-07-07_10h26.45.475,Simcolourproject_2stim_asymm_v5,2020.2.10,Win32,60,60e52e7cfedb1dae636df45f,,,,,,,,,80,47,-44,1,0,0,response3disk,,5,0,0,1,0,0,rectangle,0,0,1,0,0,0,0,1,0,0,0,122,122,78,1,,,,,,,,
,,,,,,,,,,,,,FF,,,,,,,,1.7347,,,,,,,,,,,,,,,,,,,,,,60e544249db8e7a552141a95,60e562ef1b6a9b637eb94bef,2021-07-07_10h26.45.475,Simcolourproject_2stim_asymm_v5,2020.2.10,Win32,60,60e52e7cfedb1dae636df45f,,,,,,,,,400,23,33,1,0,0,response1disk,,7,8,0,1,0,0,rectangle,8,0,1,0,0,8,0,1,0,0,0,123,123,110,1,,,,,,,,
,,,,,,,,,,,,,FF,,,,,,,,1.6017,,,,,,,,,,,,,,,,,,,,,,60e544249db8e7a552141a95,60e562ef1b6a9b637eb94bef,2021-07-07_10h26.45.475,Simcolourproject_2stim_asymm_v5,2020.2.10,Win32,60,60e52e7cfedb1dae636df45f,,,,,,,,,1088,19,61,1,0,0,response1disk,,7,4,4,1,0,0,rectangle,4,4,1,0,0,4,4,1,0,0,0,124,124,133,1,,,,,,,,
,,,,,,,,,,,,,FF,,,,,,,,2.4074,,,,,,,,,,,,,,,,,,,,,,60e544249db8e7a552141a95,60e562ef1b6a9b637eb94bef,2021-07-07_10h26.45.475,Simcolourproject_2stim_asymm_v5,2020.2.10,Win32,60,60e52e7cfedb1dae636df45f,,,,,,,,,3256,80,-42,1,0,0,response3disk,,5,2,5,1,0,0,rectangle,2,5,1,0,0,2,5,1,0,0,0,125,125,155,1,,,,,,,,
,,,,,,,,,,,,,FF,,,,,,,,1.4176,,,,,,,,,,,,,,,,,,,,,,60e544249db8e7a552141a95,60e562ef1b6a9b637eb94bef,2021-07-07_10h26.45.475,Simcolourproject_2stim_asymm_v5,2020.2.10,Win32,60,60e52e7cfedb1dae636df45f,,,,,,,,,4155,28,51,1,0,0,response1disk,,7,3,-11,1,0,0,rectangle,3,-11,1,0,0,3,-11,1,0,0,0,126,126,16,1,,,,,,,,
,,,,,,,,,,,,,FF,,,,,,,,1.1705,,,,,,,,,,,,,,,,,,,,,,60e544249db8e7a552141a95,60e562ef1b6a9b637eb94bef,2021-07-07_10h26.45.475,Simcolourproject_2stim_asymm_v5,2020.2.10,Win32,60,60e52e7cfedb1dae636df45f,,,,,,,,,695,-44,-72,1,0,0,response5disk,,3,-12,13,1,0,0,rectangle,-12,13,1,0,0,-12,13,1,0,0,0,127,127,57,1,,,,,,,,
,,,,,,,,,,,,,FF,,,,,,,,1.1177,,,,,,,,,,,,,,,,,,,,,,60e544249db8e7a552141a95,60e562ef1b6a9b637eb94bef,2021-07-07_10h26.45.475,Simcolourproject_2stim_asymm_v5,2020.2.10,Win32,60,60e52e7cfedb1dae636df45f,,,,,,,,,3096,-36,60,1,0,0,response7disk,,0,14,4,1,0,0,rectangle,14,4,1,0,0,14,4,1,0,0,0,128,128,151,1,,,,,,,,
,,,,,,,,,,,,,FF,,,,,,,,2.203,,,,,,,,,,,,,,,,,,,,,,60e544249db8e7a552141a95,60e562ef1b6a9b637eb94bef,2021-07-07_10h26.45.475,Simcolourproject_2stim_asymm_v5,2020.2.10,Win32,60,60e52e7cfedb1dae636df45f,,,,,,,,,3758,36,32,1,0,0,response1disk,,6,9,8,1,0,0,rectangle,9,8,1,0,0,9,8,1,0,0,0,129,129,12,1,,,,,,,,
,,,,,,,,,,,,,FF,,,,,,,,1.2249,,,,,,,,,,,,,,,,,,,,,,60e544249db8e7a552141a95,60e562ef1b6a9b637eb94bef,2021-07-07_10h26.45.475,Simcolourproject_2stim_asymm_v5,2020.2.10,Win32,60,60e52e7cfedb1dae636df45f,,,,,,,,,2945,-55,20,1,0,0,response7disk,,1,-12,1,1,0,0,rectangle,-12,1,1,0,0,-12,1,1,0,0,0,130,130,96,1,,,,,,,,
,,,,,,,,,,,,,FF,,,,,,,,0.9335,,,,,,,,,,,,,,,,,,,,,,60e544249db8e7a552141a95,60e562ef1b6a9b637eb94bef,2021-07-07_10h26.45.475,Simcolourproject_2stim_asymm_v5,2020.2.10,Win32,60,60e52e7cfedb1dae636df45f,,,,,,,,,3381,-34,66,1,0,0,response7disk,,0,-4,8,1,0,0,rectangle,-4,8,1,0,0,-4,8,1,0,0,0,131,131,24,1,,,,,,,,
,,,,,,,,,,,,,FF,,,,,,,,1.3718,,,,,,,,,,,,,,,,,,,,,,60e544249db8e7a552141a95,60e562ef1b6a9b637eb94bef,2021-07-07_10h26.45.475,Simcolourproject_2stim_asymm_v5,2020.2.10,Win32,60,60e52e7cfedb1dae636df45f,,,,,,,,,957,-46,-63,1,0,0,response5disk,,3,-13,9,1,0,0,rectangle,-13,9,1,0,0,-13,9,1,0,0,0,132,132,134,1,,,,,,,,
,,,,,,,,,,,,,FF,,,,,,,,1.1712,,,,,,,,,,,,,,,,,,,,,,60e544249db8e7a552141a95,60e562ef1b6a9b637eb94bef,2021-07-07_10h26.45.475,Simcolourproject_2stim_asymm_v5,2020.2.10,Win32,60,60e52e7cfedb1dae636df45f,,,,,,,,,3883,76,-53,1,0,0,response3disk,,5,-21,5,1,0,0,rectangle,-21,5,1,0,0,-21,5,1,0,0,0,133,133,158,1,,,,,,,,
,,,,,,,,,,,,,FF,,,,,,,,1.5221,,,,,,,,,,,,,,,,,,,,,,60e544249db8e7a552141a95,60e562ef1b6a9b637eb94bef,2021-07-07_10h26.45.475,Simcolourproject_2stim_asymm_v5,2020.2.10,Win32,60,60e52e7cfedb1dae636df45f,,,,,,,,,156,28,46,1,0,0,response1disk,,7,11,13,1,0,0,rectangle,11,13,1,0,0,11,13,1,0,0,0,134,134,47,1,,,,,,,,
,,,,,,,,,,,,,FF,,,,,,,,2.0884,,,,,,,,,,,,,,,,,,,,,,60e544249db8e7a552141a95,60e562ef1b6a9b637eb94bef,2021-07-07_10h26.45.475,Simcolourproject_2stim_asymm_v5,2020.2.10,Win32,60,60e52e7cfedb1dae636df45f,,,,,,,,,2960,70,-41,1,0,0,response3disk,,5,10,10,1,0,0,rectangle,10,10,1,0,0,10,10,1,0,0,0,135,135,73,1,,,,,,,,
,,,,,,,,,,,,,FF,,,,,,,,0.9354,,,,,,,,,,,,,,,,,,,,,,60e544249db8e7a552141a95,60e562ef1b6a9b637eb94bef,2021-07-07_10h26.45.475,Simcolourproject_2stim_asymm_v5,2020.2.10,Win32,60,60e52e7cfedb1dae636df45f,,,,,,,,,2215,33,74,1,0,0,response1disk,,7,-8,9,1,0,0,rectangle,-8,9,1,0,0,-8,9,1,0,0,0,136,136,5,1,,,,,,,,
,,,,,,,,,,,,,FF,,,,,,,,1.235,,,,,,,,,,,,,,,,,,,,,,60e544249db8e7a552141a95,60e562ef1b6a9b637eb94bef,2021-07-07_10h26.45.475,Simcolourproject_2stim_asymm_v5,2020.2.10,Win32,60,60e52e7cfedb1dae636df45f,,,,,,,,,771,49,61,1,0,0,response1disk,,7,15,2,1,0,0,rectangle,15,2,1,0,0,15,2,1,0,0,0,137,137,97,1,,,,,,,,
,,,,,,,,,,,,,FF,,,,,,,,1.2338,,,,,,,,,,,,,,,,,,,,,,60e544249db8e7a552141a95,60e562ef1b6a9b637eb94bef,2021-07-07_10h26.45.475,Simcolourproject_2stim_asymm_v5,2020.2.10,Win32,60,60e52e7cfedb1dae636df45f,,,,,,,,,1065,-73,47,1,0,0,response7disk,,1,-16,-6,1,0,0,rectangle,-16,-6,1,0,0,-16,-6,1,0,0,0,138,138,20,1,,,,,,,,
,,,,,,,,,,,,,FF,,,,,,,,1.2019,,,,,,,,,,,,,,,,,,,,,,60e544249db8e7a552141a95,60e562ef1b6a9b637eb94bef,2021-07-07_10h26.45.475,Simcolourproject_2stim_asymm_v5,2020.2.10,Win32,60,60e52e7cfedb1dae636df45f,,,,,,,,,2576,15,37,1,0,0,response1disk,,7,6,-11,1,0,0,rectangle,6,-11,1,0,0,6,-11,1,0,0,0,139,139,72,1,,,,,,,,
,,,,,,,,,,,,,FF,,,,,,,,1.165,,,,,,,,,,,,,,,,,,,,,,60e544249db8e7a552141a95,60e562ef1b6a9b637eb94bef,2021-07-07_10h26.45.475,Simcolourproject_2stim_asymm_v5,2020.2.10,Win32,60,60e52e7cfedb1dae636df45f,,,,,,,,,2450,35,71,1,0,0,response1disk,,7,0,-4,1,0,0,rectangle,0,-4,1,0,0,0,-4,1,0,0,0,140,140,23,1,,,,,,,,
,,,,,,,,,,,,,FF,,,,,,,,3.0168,,,,,,,,,,,,,,,,,,,,,,60e544249db8e7a552141a95,60e562ef1b6a9b637eb94bef,2021-07-07_10h26.45.475,Simcolourproject_2stim_asymm_v5,2020.2.10,Win32,60,60e52e7cfedb1dae636df45f,,,,,,,,,1732,-53,-81,1,0,0,response5disk,,3,-7,-1,1,0,0,rectangle,-7,-1,1,0,0,-7,-1,1,0,0,0,141,141,80,1,,,,,,,,
,,,,,,,,,,,,,FF,,,,,,,,1.337,,,,,,,,,,,,,,,,,,,,,,60e544249db8e7a552141a95,60e562ef1b6a9b637eb94bef,2021-07-07_10h26.45.475,Simcolourproject_2stim_asymm_v5,2020.2.10,Win32,60,60e52e7cfedb1dae636df45f,,,,,,,,,1773,23,47,1,0,0,response1disk,,7,10,2,1,0,0,rectangle,10,2,1,0,0,10,2,1,0,0,0,142,142,146,1,,,,,,,,
,,,,,,,,,,,,,FF,,,,,,,,1.035,,,,,,,,,,,,,,,,,,,,,,60e544249db8e7a552141a95,60e562ef1b6a9b637eb94bef,2021-07-07_10h26.45.475,Simcolourproject_2stim_asymm_v5,2020.2.10,Win32,60,60e52e7cfedb1dae636df45f,,,,,,,,,1789,40,56,1,0,0,response1disk,,7,16,8,1,0,0,rectangle,16,8,1,0,0,16,8,1,0,0,0,143,143,82,1,,,,,,,,
,,,,,,,,,,,,,FF,,,,,,,,1.004,,,,,,,,,,,,,,,,,,,,,,60e544249db8e7a552141a95,60e562ef1b6a9b637eb94bef,2021-07-07_10h26.45.475,Simcolourproject_2stim_asymm_v5,2020.2.10,Win32,60,60e52e7cfedb1dae636df45f,,,,,,,,,769,35,63,1,0,0,response1disk,,7,-6,-5,1,0,0,rectangle,-6,-5,1,0,0,-6,-5,1,0,0,0,144,144,7,1,,,,,,,,
,,,,,,,,,,,,,FF,,,,,,,,1.2376,,,,,,,,,,,,,,,,,,,,,,60e544249db8e7a552141a95,60e562ef1b6a9b637eb94bef,2021-07-07_10h26.45.475,Simcolourproject_2stim_asymm_v5,2020.2.10,Win32,60,60e52e7cfedb1dae636df45f,,,,,,,,,1833,21,43,1,0,0,response1disk,,7,-3,-2,1,0,0,rectangle,-3,-2,1,0,0,-3,-2,1,0,0,0,145,145,121,1,,,,,,,,
,,,,,,,,,,,,,FF,,,,,,,,1.0209,,,,,,,,,,,,,,,,,,,,,,60e544249db8e7a552141a95,60e562ef1b6a9b637eb94bef,2021-07-07_10h26.45.475,Simcolourproject_2stim_asymm_v5,2020.2.10,Win32,60,60e52e7cfedb1dae636df45f,,,,,,,,,3207,26,83,1,0,0,response1disk,,7,-1,5,1,0,0,rectangle,-1,5,1,0,0,-1,5,1,0,0,0,146,146,56,1,,,,,,,,
,,,,,,,,,,,,,FF,,,,,,,,1.0542,,,,,,,,,,,,,,,,,,,,,,60e544249db8e7a552141a95,60e562ef1b6a9b637eb94bef,2021-07-07_10h26.45.475,Simcolourproject_2stim_asymm_v5,2020.2.10,Win32,60,60e52e7cfedb1dae636df45f,,,,,,,,,2794,55,84,1,0,0,response1disk,,7,5,-7,1,0,0,rectangle,5,-7,1,0,0,5,-7,1,0,0,0,147,147,87,1,,,,,,,,
,,,,,,,,,,,,,FF,,,,,,,,1.0376,,,,,,,,,,,,,,,,,,,,,,60e544249db8e7a552141a95,60e562ef1b6a9b637eb94bef,2021-07-07_10h26.45.475,Simcolourproject_2stim_asymm_v5,2020.2.10,Win32,60,60e52e7cfedb1dae636df45f,,,,,,,,,2389,27,82,1,0,0,response1disk,,7,-3,-11,1,0,0,rectangle,-3,-11,1,0,0,-3,-11,1,0,0,0,148,148,152,1,,,,,,,,
,,,,,,,,,,,,,FF,,,,,,,,1.0849,,,,,,,,,,,,,,,,,,,,,,60e544249db8e7a552141a95,60e562ef1b6a9b637eb94bef,2021-07-07_10h26.45.475,Simcolourproject_2stim_asymm_v5,2020.2.10,Win32,60,60e52e7cfedb1dae636df45f,,,,,,,,,480,27,69,1,0,0,response1disk,,7,1,1,1,0,0,rectangle,1,1,1,0,0,1,1,1,0,0,0,149,149,138,1,,,,,,,,
,,,,,,,,,,,,,FF,,,,,,,,1.7003,,,,,,,,,,,,,,,,,,,,,,60e544249db8e7a552141a95,60e562ef1b6a9b637eb94bef,2021-07-07_10h26.45.475,Simcolourproject_2stim_asymm_v5,2020.2.10,Win32,60,60e52e7cfedb1dae636df45f,,,,,,,,,1735,-30,94,1,0,0,response7disk,,0,4,-13,1,0,0,rectangle,4,-13,1,0,0,4,-13,1,0,0,0,150,150,37,1,,,,,,,,
,,,,,,,,,,,,,FF,,,,,,,,1.3204,,,,,,,,,,,,,,,,,,,,,,60e544249db8e7a552141a95,60e562ef1b6a9b637eb94bef,2021-07-07_10h26.45.475,Simcolourproject_2stim_asymm_v5,2020.2.10,Win32,60,60e52e7cfedb1dae636df45f,,,,,,,,,4121,-55,28,1,0,0,response7disk,,1,-17,1,1,0,0,rectangle,-17,1,1,0,0,-17,1,1,0,0,0,151,151,68,1,,,,,,,,
,,,,,,,,,,,,,FF,,,,,,,,1.0524,,,,,,,,,,,,,,,,,,,,,,60e544249db8e7a552141a95,60e562ef1b6a9b637eb94bef,2021-07-07_10h26.45.475,Simcolourproject_2stim_asymm_v5,2020.2.10,Win32,60,60e52e7cfedb1dae636df45f,,,,,,,,,3422,15,59,1,0,0,response1disk,,7,-4,-5,1,0,0,rectangle,-4,-5,1,0,0,-4,-5,1,0,0,0,152,152,139,1,,,,,,,,
,,,,,,,,,,,,,FF,,,,,,,,1.1393,,,,,,,,,,,,,,,,,,,,,,60e544249db8e7a552141a95,60e562ef1b6a9b637eb94bef,2021-07-07_10h26.45.475,Simcolourproject_2stim_asymm_v5,2020.2.10,Win32,60,60e52e7cfedb1dae636df45f,,,,,,,,,2825,-53,-25,1,0,0,response5disk,,2,-19,0,1,0,0,rectangle,-19,0,1,0,0,-19,0,1,0,0,0,153,153,127,1,,,,,,,,
,,,,,,,,,,,,,FF,,,,,,,,1.2509,,,,,,,,,,,,,,,,,,,,,,60e544249db8e7a552141a95,60e562ef1b6a9b637eb94bef,2021-07-07_10h26.45.475,Simcolourproject_2stim_asymm_v5,2020.2.10,Win32,60,60e52e7cfedb1dae636df45f,,,,,,,,,2564,26,61,1,0,0,response1disk,,7,14,13,1,0,0,rectangle,14,13,1,0,0,14,13,1,0,0,0,154,154,31,1,,,,,,,,
,,,,,,,,,,,,,FF,,,,,,,,1.5157,,,,,,,,,,,,,,,,,,,,,,60e544249db8e7a552141a95,60e562ef1b6a9b637eb94bef,2021-07-07_10h26.45.475,Simcolourproject_2stim_asymm_v5,2020.2.10,Win32,60,60e52e7cfedb1dae636df45f,,,,,,,,,3605,-43,-85,1,0,0,response5disk,,3,0,4,1,0,0,rectangle,0,4,1,0,0,0,4,1,0,0,0,155,155,13,1,,,,,,,,
,,,,,,,,,,,,,FF,,,,,,,,3.4042,,,,,,,,,,,,,,,,,,,,,,60e544249db8e7a552141a95,60e562ef1b6a9b637eb94bef,2021-07-07_10h26.45.475,Simcolourproject_2stim_asymm_v5,2020.2.10,Win32,60,60e52e7cfedb1dae636df45f,,,,,,,,,3674,27,41,1,0,0,response1disk,,7,3,-15,1,0,0,rectangle,3,-15,1,0,0,3,-15,1,0,0,0,156,156,26,1,,,,,,,,
,,,,,,,,,,,,,FF,,,,,,,,1.0509,,,,,,,,,,,,,,,,,,,,,,60e544249db8e7a552141a95,60e562ef1b6a9b637eb94bef,2021-07-07_10h26.45.475,Simcolourproject_2stim_asymm_v5,2020.2.10,Win32,60,60e52e7cfedb1dae636df45f,,,,,,,,,1887,-77,44,1,0,0,response7disk,,1,-7,2,1,0,0,rectangle,-7,2,1,0,0,-7,2,1,0,0,0,157,157,113,1,,,,,,,,
,,,,,,,,,,,,,FF,,,,,,,,1.2721,,,,,,,,,,,,,,,,,,,,,,60e544249db8e7a552141a95,60e562ef1b6a9b637eb94bef,2021-07-07_10h26.45.475,Simcolourproject_2stim_asymm_v5,2020.2.10,Win32,60,60e52e7cfedb1dae636df45f,,,,,,,,,768,36,69,1,0,0,response1disk,,7,5,1,1,0,0,rectangle,5,1,1,0,0,5,1,1,0,0,0,158,158,77,1,,,,,,,,
,,,,,,,,,,,,,FF,,,,,,,,1.0873,,,,,,,,,,,,,,,,,,,,,,60e544249db8e7a552141a95,60e562ef1b6a9b637eb94bef,2021-07-07_10h26.45.475,Simcolourproject_2stim_asymm_v5,2020.2.10,Win32,60,60e52e7cfedb1dae636df45f,,,,,,,,,639,-69,61,1,0,0,response7disk,,1,-4,4,1,0,0,rectangle,48,-45,1,0,0,-3,-3,1,0,0,0,159,159,29,1,,response3disk_3,TRUE,5,5,"[52,28,162,92,160,188,188,300,250,171,217,83,32,248,200,187,63,109,51,232]",1.9237,rectangle
,,,,,,,,,,,,,FF,,,,,,,,2.9677,,,,,,,,,,,,,,,,,,,,,,60e544249db8e7a552141a95,60e562ef1b6a9b637eb94bef,2021-07-07_10h26.45.475,Simcolourproject_2stim_asymm_v5,2020.2.10,Win32,60,60e52e7cfedb1dae636df45f,,,,,,,,,3076,42,66,1,0,0,response1disk,,7,17,15,1,0,0,rectangle,17,15,1,0,0,17,15,1,0,0,1,0,160,97,1,,,,,,,,
,,,,,,,,,,,,,FF,,,,,,,,1.1834,,,,,,,,,,,,,,,,,,,,,,60e544249db8e7a552141a95,60e562ef1b6a9b637eb94bef,2021-07-07_10h26.45.475,Simcolourproject_2stim_asymm_v5,2020.2.10,Win32,60,60e52e7cfedb1dae636df45f,,,,,,,,,3112,-32,-59,1,0,0,response5disk,,3,1,-4,1,0,0,rectangle,43,85,1,0,0,5,7,1,0,0,1,1,161,92,1,,response1disk_3,TRUE,7,7,"[52,28,162,92,160,188,188,300,250,171,217,83,32,248,200,187,63,109,51,232]",1.5683,rectangle
,,,,,,,,,,,,,FF,,,,,,,,1.8217,,,,,,,,,,,,,,,,,,,,,,60e544249db8e7a552141a95,60e562ef1b6a9b637eb94bef,2021-07-07_10h26.45.475,Simcolourproject_2stim_asymm_v5,2020.2.10,Win32,60,60e52e7cfedb1dae636df45f,,,,,,,,,943,49,73,1,0,0,response1disk,,7,1,9,1,0,0,rectangle,1,9,1,0,0,1,9,1,0,0,1,2,162,108,1,,,,,,,,
,,,,,,,,,,,,,FF,,,,,,,,1.2846,,,,,,,,,,,,,,,,,,,,,,60e544249db8e7a552141a95,60e562ef1b6a9b637eb94bef,2021-07-07_10h26.45.475,Simcolourproject_2stim_asymm_v5,2020.2.10,Win32,60,60e52e7cfedb1dae636df45f,,,,,,,,,4236,-64,-48,1,0,0,response5disk,,2,3,10,1,0,0,rectangle,3,10,1,0,0,3,10,1,0,0,1,3,163,141,1,,,,,,,,
,,,,,,,,,,,,,FF,,,,,,,,1.1518,,,,,,,,,,,,,,,,,,,,,,60e544249db8e7a552141a95,60e562ef1b6a9b637eb94bef,2021-07-07_10h26.45.475,Simcolourproject_2stim_asymm_v5,2020.2.10,Win32,60,60e52e7cfedb1dae636df45f,,,,,,,,,3744,-67,-32,1,0,0,response5disk,,2,-23,-4,1,0,0,rectangle,-23,-4,1,0,0,-23,-4,1,0,0,1,4,164,4,1,,,,,,,,
,,,,,,,,,,,,,FF,,,,,,,,1.0178,,,,,,,,,,,,,,,,,,,,,,60e544249db8e7a552141a95,60e562ef1b6a9b637eb94bef,2021-07-07_10h26.45.475,Simcolourproject_2stim_asymm_v5,2020.2.10,Win32,60,60e52e7cfedb1dae636df45f,,,,,,,,,2206,44,55,1,0,0,response1disk,,7,10,7,1,0,0,rectangle,10,7,1,0,0,10,7,1,0,0,1,5,165,133,1,,,,,,,,
,,,,,,,,,,,,,FF,,,,,,,,1.1027,,,,,,,,,,,,,,,,,,,,,,60e544249db8e7a552141a95,60e562ef1b6a9b637eb94bef,2021-07-07_10h26.45.475,Simcolourproject_2stim_asymm_v5,2020.2.10,Win32,60,60e52e7cfedb1dae636df45f,,,,,,,,,4253,-65,-80,1,0,0,response5disk,,3,-14,-5,1,0,0,rectangle,-14,-5,1,0,0,-14,-5,1,0,0,1,6,166,13,1,,,,,,,,
,,,,,,,,,,,,,FF,,,,,,,,1.0534,,,,,,,,,,,,,,,,,,,,,,60e544249db8e7a552141a95,60e562ef1b6a9b637eb94bef,2021-07-07_10h26.45.475,Simcolourproject_2stim_asymm_v5,2020.2.10,Win32,60,60e52e7cfedb1dae636df45f,,,,,,,,,3375,-59,19,1,0,0,response7disk,,1,-18,1,1,0,0,rectangle,-18,1,1,0,0,-18,1,1,0,0,1,7,167,78,1,,,,,,,,
,,,,,,,,,,,,,FF,,,,,,,,1.0663,,,,,,,,,,,,,,,,,,,,,,60e544249db8e7a552141a95,60e562ef1b6a9b637eb94bef,2021-07-07_10h26.45.475,Simcolourproject_2stim_asymm_v5,2020.2.10,Win32,60,60e52e7cfedb1dae636df45f,,,,,,,,,339,35,66,1,0,0,response1disk,,7,-19,-9,1,0,0,rectangle,-19,-9,1,0,0,-19,-9,1,0,0,1,8,168,15,1,,,,,,,,
,,,,,,,,,,,,,FF,,,,,,,,1.7921,,,,,,,,,,,,,,,,,,,,,,60e544249db8e7a552141a95,60e562ef1b6a9b637eb94bef,2021-07-07_10h26.45.475,Simcolourproject_2stim_asymm_v5,2020.2.10,Win32,60,60e52e7cfedb1dae636df45f,,,,,,,,,671,60,92,1,0,0,response1disk,,7,-13,-2,1,0,0,rectangle,-13,-2,1,0,0,-13,-2,1,0,0,1,9,169,93,1,,,,,,,,
,,,,,,,,,,,,,FF,,,,,,,,1.6885,,,,,,,,,,,,,,,,,,,,,,60e544249db8e7a552141a95,60e562ef1b6a9b637eb94bef,2021-07-07_10h26.45.475,Simcolourproject_2stim_asymm_v5,2020.2.10,Win32,60,60e52e7cfedb1dae636df45f,,,,,,,,,3995,-74,-35,1,0,0,response5disk,,2,-12,-3,1,0,0,rectangle,36,57,1,0,0,-4,-4,1,0,0,1,10,170,132,1,,response1disk_3,TRUE,7,7,"[52,28,162,92,160,188,188,300,250,171,217,83,32,248,200,187,63,109,51,232]",1.7675,rectangle
,,,,,,,,,,,,,FF,,,,,,,,1.2177,,,,,,,,,,,,,,,,,,,,,,60e544249db8e7a552141a95,60e562ef1b6a9b637eb94bef,2021-07-07_10h26.45.475,Simcolourproject_2stim_asymm_v5,2020.2.10,Win32,60,60e52e7cfedb1dae636df45f,,,,,,,,,1535,-91,-38,1,0,0,response5disk,,2,-23,3,1,0,0,rectangle,-23,3,1,0,0,-23,3,1,0,0,1,11,171,21,1,,,,,,,,
,,,,,,,,,,,,,FF,,,,,,,,0.9505,,,,,,,,,,,,,,,,,,,,,,60e544249db8e7a552141a95,60e562ef1b6a9b637eb94bef,2021-07-07_10h26.45.475,Simcolourproject_2stim_asymm_v5,2020.2.10,Win32,60,60e52e7cfedb1dae636df45f,,,,,,,,,3080,47,96,1,0,0,response1disk,,7,3,7,1,0,0,rectangle,3,7,1,0,0,3,7,1,0,0,1,12,172,91,1,,,,,,,,
,,,,,,,,,,,,,FF,,,,,,,,1.2505,,,,,,,,,,,,,,,,,,,,,,60e544249db8e7a552141a95,60e562ef1b6a9b637eb94bef,2021-07-07_10h26.45.475,Simcolourproject_2stim_asymm_v5,2020.2.10,Win32,60,60e52e7cfedb1dae636df45f,,,,,,,,,3497,16,43,1,0,0,response1disk,,7,-3,0,1,0,0,rectangle,-3,0,1,0,0,-3,0,1,0,0,1,13,173,2,1,,,,,,,,
,,,,,,,,,,,,,FF,,,,,,,,2.6738,,,,,,,,,,,,,,,,,,,,,,60e544249db8e7a552141a95,60e562ef1b6a9b637eb94bef,2021-07-07_10h26.45.475,Simcolourproject_2stim_asymm_v5,2020.2.10,Win32,60,60e52e7cfedb1dae636df45f,,,,,,,,,4115,27,-56,1,0,0,response3disk,,4,16,-6,1,0,0,rectangle,16,-6,1,0,0,16,-6,1,0,0,1,14,174,66,1,,,,,,,,
,,,,,,,,,,,,,FF,,,,,,,,1.2718,,,,,,,,,,,,,,,,,,,,,,60e544249db8e7a552141a95,60e562ef1b6a9b637eb94bef,2021-07-07_10h26.45.475,Simcolourproject_2stim_asymm_v5,2020.2.10,Win32,60,60e52e7cfedb1dae636df45f,,,,,,,,,1432,48,59,1,0,0,response1disk,,7,-6,2,1,0,0,rectangle,-6,2,1,0,0,-6,2,1,0,0,1,15,175,113,1,,,,,,,,
,,,,,,,,,,,,,FF,,,,,,,,1.5687,,,,,,,,,,,,,,,,,,,,,,60e544249db8e7a552141a95,60e562ef1b6a9b637eb94bef,2021-07-07_10h26.45.475,Simcolourproject_2stim_asymm_v5,2020.2.10,Win32,60,60e52e7cfedb1dae636df45f,,,,,,,,,2671,-30,-72,1,0,0,response5disk,,3,10,-4,1,0,0,rectangle,10,-4,1,0,0,10,-4,1,0,0,1,16,176,25,1,,,,,,,,
,,,,,,,,,,,,,FF,,,,,,,,0.8521,,,,,,,,,,,,,,,,,,,,,,60e544249db8e7a552141a95,60e562ef1b6a9b637eb94bef,2021-07-07_10h26.45.475,Simcolourproject_2stim_asymm_v5,2020.2.10,Win32,60,60e52e7cfedb1dae636df45f,,,,,,,,,4033,51,95,1,0,0,response1disk,,7,-11,1,1,0,0,rectangle,-11,1,1,0,0,-11,1,1,0,0,1,17,177,152,1,,,,,,,,
,,,,,,,,,,,,,FF,,,,,,,,0.9347,,,,,,,,,,,,,,,,,,,,,,60e544249db8e7a552141a95,60e562ef1b6a9b637eb94bef,2021-07-07_10h26.45.475,Simcolourproject_2stim_asymm_v5,2020.2.10,Win32,60,60e52e7cfedb1dae636df45f,,,,,,,,,2506,46,84,1,0,0,response1disk,,7,6,9,1,0,0,rectangle,6,9,1,0,0,6,9,1,0,0,1,18,178,109,1,,,,,,,,
,,,,,,,,,,,,,FF,,,,,,,,1.3361,,,,,,,,,,,,,,,,,,,,,,60e544249db8e7a552141a95,60e562ef1b6a9b637eb94bef,2021-07-07_10h26.45.475,Simcolourproject_2stim_asymm_v5,2020.2.10,Win32,60,60e52e7cfedb1dae636df45f,,,,,,,,,1215,16,-66,1,0,0,response3disk,,4,-4,-6,1,0,0,rectangle,-4,-6,1,0,0,-4,-6,1,0,0,1,19,179,63,1,,,,,,,,
,,,,,,,,,,,,,FF,,,,,,,,1.265,,,,,,,,,,,,,,,,,,,,,,60e544249db8e7a552141a95,60e562ef1b6a9b637eb94bef,2021-07-07_10h26.45.475,Simcolourproject_2stim_asymm_v5,2020.2.10,Win32,60,60e52e7cfedb1dae636df45f,,,,,,,,,1452,-76,41,1,0,0,response7disk,,1,2,-7,1,0,0,rectangle,2,-7,1,0,0,2,-7,1,0,0,1,20,180,24,1,,,,,,,,
,,,,,,,,,,,,,FF,,,,,,,,0.902,,,,,,,,,,,,,,,,,,,,,,60e544249db8e7a552141a95,60e562ef1b6a9b637eb94bef,2021-07-07_10h26.45.475,Simcolourproject_2stim_asymm_v5,2020.2.10,Win32,60,60e52e7cfedb1dae636df45f,,,,,,,,,1685,33,84,1,0,0,response1disk,,7,-8,-1,1,0,0,rectangle,-8,-1,1,0,0,-8,-1,1,0,0,1,21,181,147,1,,,,,,,,
,,,,,,,,,,,,,FF,,,,,,,,1.3837,,,,,,,,,,,,,,,,,,,,,,60e544249db8e7a552141a95,60e562ef1b6a9b637eb94bef,2021-07-07_10h26.45.475,Simcolourproject_2stim_asymm_v5,2020.2.10,Win32,60,60e52e7cfedb1dae636df45f,,,,,,,,,519,73,28,1,0,0,response1disk,,6,11,10,1,0,0,rectangle,11,10,1,0,0,11,10,1,0,0,1,22,182,71,1,,,,,,,,
,,,,,,,,,,,,,FF,,,,,,,,0.9751,,,,,,,,,,,,,,,,,,,,,,60e544249db8e7a552141a95,60e562ef1b6a9b637eb94bef,2021-07-07_10h26.45.475,Simcolourproject_2stim_asymm_v5,2020.2.10,Win32,60,60e52e7cfedb1dae636df45f,,,,,,,,,1878,43,81,1,0,0,response1disk,,7,-9,-1,1,0,0,rectangle,-9,-1,1,0,0,-9,-1,1,0,0,1,23,183,94,1,,,,,,,,
,,,,,,,,,,,,,FF,,,,,,,,1.1036,,,,,,,,,,,,,,,,,,,,,,60e544249db8e7a552141a95,60e562ef1b6a9b637eb94bef,2021-07-07_10h26.45.475,Simcolourproject_2stim_asymm_v5,2020.2.10,Win32,60,60e52e7cfedb1dae636df45f,,,,,,,,,632,-81,-90,1,0,0,response5disk,,3,-5,3,1,0,0,rectangle,-5,3,1,0,0,-5,3,1,0,0,1,24,184,0,1,,,,,,,,
,,,,,,,,,,,,,FF,,,,,,,,1.9349,,,,,,,,,,,,,,,,,,,,,,60e544249db8e7a552141a95,60e562ef1b6a9b637eb94bef,2021-07-07_10h26.45.475,Simcolourproject_2stim_asymm_v5,2020.2.10,Win32,60,60e52e7cfedb1dae636df45f,,,,,,,,,1472,79,-23,1,0,0,response3disk,,5,10,-3,1,0,0,rectangle,10,-3,1,0,0,10,-3,1,0,0,1,25,185,7,1,,,,,,,,
,,,,,,,,,,,,,FF,,,,,,,,1.0017,,,,,,,,,,,,,,,,,,,,,,60e544249db8e7a552141a95,60e562ef1b6a9b637eb94bef,2021-07-07_10h26.45.475,Simcolourproject_2stim_asymm_v5,2020.2.10,Win32,60,60e52e7cfedb1dae636df45f,,,,,,,,,2968,48,76,1,0,0,response1disk,,7,-2,-4,1,0,0,rectangle,-74,-34,1,0,0,0,-3,1,0,0,1,26,186,89,1,,response5disk_3,TRUE,2,2,"[52,28,162,92,160,188,188,300,250,171,217,83,32,248,200,187,63,109,51,232]",1.8515,rectangle
,,,,,,,,,,,,,FF,,,,,,,,1.1385,,,,,,,,,,,,,,,,,,,,,,60e544249db8e7a552141a95,60e562ef1b6a9b637eb94bef,2021-07-07_10h26.45.475,Simcolourproject_2stim_asymm_v5,2020.2.10,Win32,60,60e52e7cfedb1dae636df45f,,,,,,,,,1435,37,49,1,0,0,response1disk,,7,12,3,1,0,0,rectangle,-46,66,1,0,0,-4,-1,1,0,0,1,27,187,137,1,,response7disk_3,TRUE,0,0,"[52,28,162,92,160,188,188,300,250,171,217,83,32,248,200,187,63,109,51,232]",1.6683,rectangle
,,,,,,,,,,,,,FF,,,,,,,,1.8009,,,,,,,,,,,,,,,,,,,,,,60e544249db8e7a552141a95,60e562ef1b6a9b637eb94bef,2021-07-07_10h26.45.475,Simcolourproject_2stim_asymm_v5,2020.2.10,Win32,60,60e52e7cfedb1dae636df45f,,,,,,,,,2705,32,76,1,0,0,response1disk,,7,0,-3,1,0,0,rectangle,0,-3,1,0,0,0,-3,1,0,0,1,28,188,75,1,,,,,,,,
,,,,,,,,,,,,,FF,,,,,,,,1.2351,,,,,,,,,,,,,,,,,,,,,,60e544249db8e7a552141a95,60e562ef1b6a9b637eb94bef,2021-07-07_10h26.45.475,Simcolourproject_2stim_asymm_v5,2020.2.10,Win32,60,60e52e7cfedb1dae636df45f,,,,,,,,,713,-59,-38,1,0,0,response5disk,,2,18,4,1,0,0,rectangle,18,4,1,0,0,18,4,1,0,0,1,29,189,14,1,,,,,,,,
,,,,,,,,,,,,,FF,,,,,,,,1.0044,,,,,,,,,,,,,,,,,,,,,,60e544249db8e7a552141a95,60e562ef1b6a9b637eb94bef,2021-07-07_10h26.45.475,Simcolourproject_2stim_asymm_v5,2020.2.10,Win32,60,60e52e7cfedb1dae636df45f,,,,,,,,,1949,48,65,1,0,0,response1disk,,7,-2,2,1,0,0,rectangle,-2,2,1,0,0,-2,2,1,0,0,1,30,190,12,1,,,,,,,,
,,,,,,,,,,,,,FF,,,,,,,,4.6693,,,,,,,,,,,,,,,,,,,,,,60e544249db8e7a552141a95,60e562ef1b6a9b637eb94bef,2021-07-07_10h26.45.475,Simcolourproject_2stim_asymm_v5,2020.2.10,Win32,60,60e52e7cfedb1dae636df45f,,,,,,,,,1061,71,-29,1,0,0,response3disk,,5,-2,12,1,0,0,rectangle,-2,12,1,0,0,-2,12,1,0,0,1,31,191,41,1,,,,,,,,
,,,,,,,,,,,,,FF,,,,,,,,1.9188,,,,,,,,,,,,,,,,,,,,,,60e544249db8e7a552141a95,60e562ef1b6a9b637eb94bef,2021-07-07_10h26.45.475,Simcolourproject_2stim_asymm_v5,2020.2.10,Win32,60,60e52e7cfedb1dae636df45f,,,,,,,,,3067,41,68,1,0,0,response1disk,,7,7,3,1,0,0,rectangle,7,3,1,0,0,7,3,1,0,0,1,32,192,10,1,,,,,,,,
,,,,,,,,,,,,,FF,,,,,,,,1.5009,,,,,,,,,,,,,,,,,,,,,,60e544249db8e7a552141a95,60e562ef1b6a9b637eb94bef,2021-07-07_10h26.45.475,Simcolourproject_2stim_asymm_v5,2020.2.10,Win32,60,60e52e7cfedb1dae636df45f,,,,,,,,,1821,-71,-54,1,0,0,response5disk,,2,-19,1,1,0,0,rectangle,-19,1,1,0,0,-19,1,1,0,0,1,33,193,40,1,,,,,,,,
,,,,,,,,,,,,,FF,,,,,,,,1.0844,,,,,,,,,,,,,,,,,,,,,,60e544249db8e7a552141a95,60e562ef1b6a9b637eb94bef,2021-07-07_10h26.45.475,Simcolourproject_2stim_asymm_v5,2020.2.10,Win32,60,60e52e7cfedb1dae636df45f,,,,,,,,,862,61,80,1,0,0,response1disk,,7,-17,-15,1,0,0,rectangle,-17,-15,1,0,0,-17,-15,1,0,0,1,34,194,130,1,,,,,,,,
,,,,,,,,,,,,,FF,,,,,,,,2.5051,,,,,,,,,,,,,,,,,,,,,,60e544249db8e7a552141a95,60e562ef1b6a9b637eb94bef,2021-07-07_10h26.45.475,Simcolourproject_2stim_asymm_v5,2020.2.10,Win32,60,60e52e7cfedb1dae636df45f,,,,,,,,,58,52,35,1,0,0,response1disk,,6,11,12,1,0,0,rectangle,11,12,1,0,0,11,12,1,0,0,1,35,195,53,1,,,,,,,,
,,,,,,,,,,,,,FF,,,,,,,,1.8562,,,,,,,,,,,,,,,,,,,,,,60e544249db8e7a552141a95,60e562ef1b6a9b637eb94bef,2021-07-07_10h26.45.475,Simcolourproject_2stim_asymm_v5,2020.2.10,Win32,60,60e52e7cfedb1dae636df45f,,,,,,,,,3616,22,36,1,0,0,response1disk,,7,-3,5,1,0,0,rectangle,-3,5,1,0,0,-3,5,1,0,0,1,36,196,87,1,,,,,,,,
,,,,,,,,,,,,,FF,,,,,,,,1.0022,,,,,,,,,,,,,,,,,,,,,,60e544249db8e7a552141a95,60e562ef1b6a9b637eb94bef,2021-07-07_10h26.45.475,Simcolourproject_2stim_asymm_v5,2020.2.10,Win32,60,60e52e7cfedb1dae636df45f,,,,,,,,,2703,48,94,1,0,0,response1disk,,7,-3,14,1,0,0,rectangle,-3,14,1,0,0,-3,14,1,0,0,1,37,197,73,1,,,,,,,,
,,,,,,,,,,,,,FF,,,,,,,,1.3587,,,,,,,,,,,,,,,,,,,,,,60e544249db8e7a552141a95,60e562ef1b6a9b637eb94bef,2021-07-07_10h26.45.475,Simcolourproject_2stim_asymm_v5,2020.2.10,Win32,60,60e52e7cfedb1dae636df45f,,,,,,,,,2045,-36,-72,1,0,0,response5disk,,3,9,1,1,0,0,rectangle,9,1,1,0,0,9,1,1,0,0,1,38,198,126,1,,,,,,,,
,,,,,,,,,,,,,FF,,,,,,,,1.4678,,,,,,,,,,,,,,,,,,,,,,60e544249db8e7a552141a95,60e562ef1b6a9b637eb94bef,2021-07-07_10h26.45.475,Simcolourproject_2stim_asymm_v5,2020.2.10,Win32,60,60e52e7cfedb1dae636df45f,,,,,,,,,415,87,-52,1,0,0,response3disk,,5,0,-7,1,0,0,rectangle,60,-31,1,0,0,14,-8,1,0,0,1,39,199,98,1,,response3disk_3,TRUE,5,5,"[52,28,162,92,160,188,188,300,250,171,217,83,32,248,200,187,63,109,51,232]",1.7073,rectangle
,,,,,,,,,,,,,FF,,,,,,,,1.0688,,,,,,,,,,,,,,,,,,,,,,60e544249db8e7a552141a95,60e562ef1b6a9b637eb94bef,2021-07-07_10h26.45.475,Simcolourproject_2stim_asymm_v5,2020.2.10,Win32,60,60e52e7cfedb1dae636df45f,,,,,,,,,653,-55,-64,1,0,0,response5disk,,3,-4,5,1,0,0,rectangle,-4,5,1,0,0,-4,5,1,0,0,1,40,200,35,1,,,,,,,,
,,,,,,,,,,,,,FF,,,,,,,,1.2002,,,,,,,,,,,,,,,,,,,,,,60e544249db8e7a552141a95,60e562ef1b6a9b637eb94bef,2021-07-07_10h26.45.475,Simcolourproject_2stim_asymm_v5,2020.2.10,Win32,60,60e52e7cfedb1dae636df45f,,,,,,,,,2104,-41,-31,1,0,0,response5disk,,2,-13,-12,1,0,0,rectangle,-13,-12,1,0,0,-13,-12,1,0,0,1,41,201,106,1,,,,,,,,
,,,,,,,,,,,,,FF,,,,,,,,1.2849,,,,,,,,,,,,,,,,,,,,,,60e544249db8e7a552141a95,60e562ef1b6a9b637eb94bef,2021-07-07_10h26.45.475,Simcolourproject_2stim_asymm_v5,2020.2.10,Win32,60,60e52e7cfedb1dae636df45f,,,,,,,,,3829,63,-44,1,0,0,response3disk,,5,18,-9,1,0,0,rectangle,18,-9,1,0,0,18,-9,1,0,0,1,42,202,19,1,,,,,,,,
,,,,,,,,,,,,,FF,,,,,,,,1.0007,,,,,,,,,,,,,,,,,,,,,,60e544249db8e7a552141a95,60e562ef1b6a9b637eb94bef,2021-07-07_10h26.45.475,Simcolourproject_2stim_asymm_v5,2020.2.10,Win32,60,60e52e7cfedb1dae636df45f,,,,,,,,,3993,-77,93,1,0,0,response7disk,,0,-19,4,1,0,0,rectangle,-19,4,1,0,0,-19,4,1,0,0,1,43,203,146,1,,,,,,,,
,,,,,,,,,,,,,FF,,,,,,,,0.9519,,,,,,,,,,,,,,,,,,,,,,60e544249db8e7a552141a95,60e562ef1b6a9b637eb94bef,2021-07-07_10h26.45.475,Simcolourproject_2stim_asymm_v5,2020.2.10,Win32,60,60e52e7cfedb1dae636df45f,,,,,,,,,1701,40,76,1,0,0,response1disk,,7,-10,-8,1,0,0,rectangle,-10,-8,1,0,0,-10,-8,1,0,0,1,44,204,86,1,,,,,,,,
,,,,,,,,,,,,,FF,,,,,,,,1.0024,,,,,,,,,,,,,,,,,,,,,,60e544249db8e7a552141a95,60e562ef1b6a9b637eb94bef,2021-07-07_10h26.45.475,Simcolourproject_2stim_asymm_v5,2020.2.10,Win32,60,60e52e7cfedb1dae636df45f,,,,,,,,,3384,-97,58,1,0,0,response7disk,,1,4,-6,1,0,0,rectangle,4,-6,1,0,0,4,-6,1,0,0,1,45,205,76,1,,,,,,,,
,,,,,,,,,,,,,FF,,,,,,,,1.3677,,,,,,,,,,,,,,,,,,,,,,60e544249db8e7a552141a95,60e562ef1b6a9b637eb94bef,2021-07-07_10h26.45.475,Simcolourproject_2stim_asymm_v5,2020.2.10,Win32,60,60e52e7cfedb1dae636df45f,,,,,,,,,293,73,46,1,0,0,response1disk,,6,4,2,1,0,0,rectangle,4,2,1,0,0,4,2,1,0,0,1,46,206,20,1,,,,,,,,
,,,,,,,,,,,,,FF,,,,,,,,1.1364,,,,,,,,,,,,,,,,,,,,,,60e544249db8e7a552141a95,60e562ef1b6a9b637eb94bef,2021-07-07_10h26.45.475,Simcolourproject_2stim_asymm_v5,2020.2.10,Win32,60,60e52e7cfedb1dae636df45f,,,,,,,,,17,59,23,1,0,0,response1disk,,6,21,6,1,0,0,rectangle,21,6,1,0,0,21,6,1,0,0,1,47,207,119,1,,,,,,,,
,,,,,,,,,,,,,FF,,,,,,,,0.9857,,,,,,,,,,,,,,,,,,,,,,60e544249db8e7a552141a95,60e562ef1b6a9b637eb94bef,2021-07-07_10h26.45.475,Simcolourproject_2stim_asymm_v5,2020.2.10,Win32,60,60e52e7cfedb1dae636df45f,,,,,,,,,2352,-54,-26,1,0,0,response5disk,,2,-4,-8,1,0,0,rectangle,-4,-8,1,0,0,-4,-8,1,0,0,1,48,208,82,1,,,,,,,,
,,,,,,,,,,,,,FF,,,,,,,,1.5892,,,,,,,,,,,,,,,,,,,,,,60e544249db8e7a552141a95,60e562ef1b6a9b637eb94bef,2021-07-07_10h26.45.475,Simcolourproject_2stim_asymm_v5,2020.2.10,Win32,60,60e52e7cfedb1dae636df45f,,,,,,,,,4069,33,55,1,0,0,response1disk,,7,-7,5,1,0,0,rectangle,-7,5,1,0,0,-7,5,1,0,0,1,49,209,150,1,,,,,,,,
,,,,,,,,,,,,,FF,,,,,,,,1.6523,,,,,,,,,,,,,,,,,,,,,,60e544249db8e7a552141a95,60e562ef1b6a9b637eb94bef,2021-07-07_10h26.45.475,Simcolourproject_2stim_asymm_v5,2020.2.10,Win32,60,60e52e7cfedb1dae636df45f,,,,,,,,,486,69,49,1,0,0,response1disk,,6,-1,-4,1,0,0,rectangle,-1,-4,1,0,0,-1,-4,1,0,0,1,50,210,149,1,,,,,,,,
,,,,,,,,,,,,,FF,,,,,,,,1.1052,,,,,,,,,,,,,,,,,,,,,,60e544249db8e7a552141a95,60e562ef1b6a9b637eb94bef,2021-07-07_10h26.45.475,Simcolourproject_2stim_asymm_v5,2020.2.10,Win32,60,60e52e7cfedb1dae636df45f,,,,,,,,,165,-53,-46,1,0,0,response5disk,,2,0,7,1,0,0,rectangle,0,7,1,0,0,0,7,1,0,0,1,51,211,23,1,,,,,,,,
,,,,,,,,,,,,,FF,,,,,,,,1.1551,,,,,,,,,,,,,,,,,,,,,,60e544249db8e7a552141a95,60e562ef1b6a9b637eb94bef,2021-07-07_10h26.45.475,Simcolourproject_2stim_asymm_v5,2020.2.10,Win32,60,60e52e7cfedb1dae636df45f,,,,,,,,,3347,31,44,1,0,0,response1disk,,7,-9,-5,1,0,0,rectangle,-9,-5,1,0,0,-9,-5,1,0,0,1,52,212,17,1,,,,,,,,
,,,,,,,,,,,,,FF,,,,,,,,1.303,,,,,,,,,,,,,,,,,,,,,,60e544249db8e7a552141a95,60e562ef1b6a9b637eb94bef,2021-07-07_10h26.45.475,Simcolourproject_2stim_asymm_v5,2020.2.10,Win32,60,60e52e7cfedb1dae636df45f,,,,,,,,,2582,24,48,1,0,0,response1disk,,7,-8,-10,1,0,0,rectangle,-8,-10,1,0,0,-8,-10,1,0,0,1,53,213,52,1,,,,,,,,
,,,,,,,,,,,,,FF,,,,,,,,2.437,,,,,,,,,,,,,,,,,,,,,,60e544249db8e7a552141a95,60e562ef1b6a9b637eb94bef,2021-07-07_10h26.45.475,Simcolourproject_2stim_asymm_v5,2020.2.10,Win32,60,60e52e7cfedb1dae636df45f,,,,,,,,,275,37,63,1,0,0,response1disk,,7,4,5,1,0,0,rectangle,4,5,1,0,0,4,5,1,0,0,1,54,214,111,1,,,,,,,,
,,,,,,,,,,,,,FF,,,,,,,,3.9365,,,,,,,,,,,,,,,,,,,,,,60e544249db8e7a552141a95,60e562ef1b6a9b637eb94bef,2021-07-07_10h26.45.475,Simcolourproject_2stim_asymm_v5,2020.2.10,Win32,60,60e52e7cfedb1dae636df45f,,,,,,,,,105,38,52,1,0,0,response1disk,,7,-10,-9,1,0,0,rectangle,-10,-9,1,0,0,-10,-9,1,0,0,1,55,215,43,1,,,,,,,,
,,,,,,,,,,,,,FF,,,,,,,,2.7226,,,,,,,,,,,,,,,,,,,,,,60e544249db8e7a552141a95,60e562ef1b6a9b637eb94bef,2021-07-07_10h26.45.475,Simcolourproject_2stim_asymm_v5,2020.2.10,Win32,60,60e52e7cfedb1dae636df45f,,,,,,,,,2428,62,-107,1,0,0,response3disk,,4,5,4,1,0,0,rectangle,-58,-42,1,0,0,-4,-6,1,0,0,1,56,216,140,1,,response5disk_3,TRUE,2,2,"[52,28,162,92,160,188,188,300,250,171,217,83,32,248,200,187,63,109,51,232]",1.5654,rectangle
,,,,,,,,,,,,,FF,,,,,,,,1.2336,,,,,,,,,,,,,,,,,,,,,,60e544249db8e7a552141a95,60e562ef1b6a9b637eb94bef,2021-07-07_10h26.45.475,Simcolourproject_2stim_asymm_v5,2020.2.10,Win32,60,60e52e7cfedb1dae636df45f,,,,,,,,,1213,-93,61,1,0,0,response7disk,,1,-11,6,1,0,0,rectangle,-11,6,1,0,0,-11,6,1,0,0,1,57,217,112,1,,,,,,,,
,,,,,,,,,,,,,FF,,,,,,,,1.1846,,,,,,,,,,,,,,,,,,,,,,60e544249db8e7a552141a95,60e562ef1b6a9b637eb94bef,2021-07-07_10h26.45.475,Simcolourproject_2stim_asymm_v5,2020.2.10,Win32,60,60e52e7cfedb1dae636df45f,,,,,,,,,3185,23,36,1,0,0,response1disk,,7,-10,-3,1,0,0,rectangle,-10,-3,1,0,0,-10,-3,1,0,0,1,58,218,101,1,,,,,,,,
,,,,,,,,,,,,,FF,,,,,,,,1.4183,,,,,,,,,,,,,,,,,,,,,,60e544249db8e7a552141a95,60e562ef1b6a9b637eb94bef,2021-07-07_10h26.45.475,Simcolourproject_2stim_asymm_v5,2020.2.10,Win32,60,60e52e7cfedb1dae636df45f,,,,,,,,,1575,47,68,1,0,0,response1disk,,7,-6,3,1,0,0,rectangle,-6,3,1,0,0,-6,3,1,0,0,1,59,219,38,1,,,,,,,,
,,,,,,,,,,,,,FF,,,,,,,,1.818,,,,,,,,,,,,,,,,,,,,,,60e544249db8e7a552141a95,60e562ef1b6a9b637eb94bef,2021-07-07_10h26.45.475,Simcolourproject_2stim_asymm_v5,2020.2.10,Win32,60,60e52e7cfedb1dae636df45f,,,,,,,,,3264,24,38,1,0,0,response1disk,,7,-4,-2,1,0,0,rectangle,-4,-2,1,0,0,-4,-2,1,0,0,1,60,220,148,1,,,,,,,,
,,,,,,,,,,,,,FF,,,,,,,,1.2161,,,,,,,,,,,,,,,,,,,,,,60e544249db8e7a552141a95,60e562ef1b6a9b637eb94bef,2021-07-07_10h26.45.475,Simcolourproject_2stim_asymm_v5,2020.2.10,Win32,60,60e52e7cfedb1dae636df45f,,,,,,,,,3998,-69,88,1,0,0,response7disk,,0,8,-11,1,0,0,rectangle,8,-11,1,0,0,8,-11,1,0,0,1,61,221,104,1,,,,,,,,
,,,,,,,,,,,,,FF,,,,,,,,2.2383,,,,,,,,,,,,,,,,,,,,,,60e544249db8e7a552141a95,60e562ef1b6a9b637eb94bef,2021-07-07_10h26.45.475,Simcolourproject_2stim_asymm_v5,2020.2.10,Win32,60,60e52e7cfedb1dae636df45f,,,,,,,,,2412,-43,19,1,0,0,response7disk,,1,18,-13,1,0,0,rectangle,18,-13,1,0,0,18,-13,1,0,0,1,62,222,54,1,,,,,,,,
,,,,,,,,,,,,,FF,,,,,,,,1.0558,,,,,,,,,,,,,,,,,,,,,,60e544249db8e7a552141a95,60e562ef1b6a9b637eb94bef,2021-07-07_10h26.45.475,Simcolourproject_2stim_asymm_v5,2020.2.10,Win32,60,60e52e7cfedb1dae636df45f,,,,,,,,,338,70,56,1,0,0,response1disk,,6,-5,7,1,0,0,rectangle,-5,7,1,0,0,-5,7,1,0,0,1,63,223,74,1,,,,,,,,
,,,,,,,,,,,,,FF,,,,,,,,1.1682,,,,,,,,,,,,,,,,,,,,,,60e544249db8e7a552141a95,60e562ef1b6a9b637eb94bef,2021-07-07_10h26.45.475,Simcolourproject_2stim_asymm_v5,2020.2.10,Win32,60,60e52e7cfedb1dae636df45f,,,,,,,,,1739,75,-48,1,0,0,response3disk,,5,-12,14,1,0,0,rectangle,-12,14,1,0,0,-12,14,1,0,0,1,64,224,77,1,,,,,,,,
,,,,,,,,,,,,,FF,,,,,,,,1.0017,,,,,,,,,,,,,,,,,,,,,,60e544249db8e7a552141a95,60e562ef1b6a9b637eb94bef,2021-07-07_10h26.45.475,Simcolourproject_2stim_asymm_v5,2020.2.10,Win32,60,60e52e7cfedb1dae636df45f,,,,,,,,,2606,70,-43,1,0,0,response3disk,,5,-10,9,1,0,0,rectangle,-10,9,1,0,0,-10,9,1,0,0,1,65,225,136,1,,,,,,,,
,,,,,,,,,,,,,FF,,,,,,,,0.8717,,,,,,,,,,,,,,,,,,,,,,60e544249db8e7a552141a95,60e562ef1b6a9b637eb94bef,2021-07-07_10h26.45.475,Simcolourproject_2stim_asymm_v5,2020.2.10,Win32,60,60e52e7cfedb1dae636df45f,,,,,,,,,530,84,-34,1,0,0,response3disk,,5,1,10,1,0,0,rectangle,1,10,1,0,0,1,10,1,0,0,1,66,226,42,1,,,,,,,,
,,,,,,,,,,,,,FF,,,,,,,,1.0245,,,,,,,,,,,,,,,,,,,,,,60e544249db8e7a552141a95,60e562ef1b6a9b637eb94bef,2021-07-07_10h26.45.475,Simcolourproject_2stim_asymm_v5,2020.2.10,Win32,60,60e52e7cfedb1dae636df45f,,,,,,,,,2819,62,-23,1,0,0,response3disk,,5,10,2,1,0,0,rectangle,10,2,1,0,0,10,2,1,0,0,1,67,227,28,1,,,,,,,,
,,,,,,,,,,,,,FF,,,,,,,,1.0673,,,,,,,,,,,,,,,,,,,,,,60e544249db8e7a552141a95,60e562ef1b6a9b637eb94bef,2021-07-07_10h26.45.475,Simcolourproject_2stim_asymm_v5,2020.2.10,Win32,60,60e52e7cfedb1dae636df45f,,,,,,,,,2474,46,25,1,0,0,response1disk,,6,12,9,1,0,0,rectangle,12,9,1,0,0,12,9,1,0,0,1,68,228,142,1,,,,,,,,
,,,,,,,,,,,,,FF,,,,,,,,1.1837,,,,,,,,,,,,,,,,,,,,,,60e544249db8e7a552141a95,60e562ef1b6a9b637eb94bef,2021-07-07_10h26.45.475,Simcolourproject_2stim_asymm_v5,2020.2.10,Win32,60,60e52e7cfedb1dae636df45f,,,,,,,,,823,16,-72,1,0,0,response3disk,,4,5,-1,1,0,0,rectangle,5,-1,1,0,0,5,-1,1,0,0,1,69,229,58,1,,,,,,,,
,,,,,,,,,,,,,FF,,,,,,,,1.3355,,,,,,,,,,,,,,,,,,,,,,60e544249db8e7a552141a95,60e562ef1b6a9b637eb94bef,2021-07-07_10h26.45.475,Simcolourproject_2stim_asymm_v5,2020.2.10,Win32,60,60e52e7cfedb1dae636df45f,,,,,,,,,2526,50,39,1,0,0,response1disk,,6,-14,-10,1,0,0,rectangle,-14,-10,1,0,0,-14,-10,1,0,0,1,70,230,30,1,,,,,,,,
,,,,,,,,,,,,,FF,,,,,,,,1.9517,,,,,,,,,,,,,,,,,,,,,,60e544249db8e7a552141a95,60e562ef1b6a9b637eb94bef,2021-07-07_10h26.45.475,Simcolourproject_2stim_asymm_v5,2020.2.10,Win32,60,60e52e7cfedb1dae636df45f,,,,,,,,,3357,-76,19,1,0,0,response7disk,,1,-6,-4,1,0,0,rectangle,-42,-70,1,0,0,-3,6,1,0,0,1,71,231,32,1,,response5disk_3,TRUE,3,3,"[52,28,162,92,160,188,188,300,250,171,217,83,32,248,200,187,63,109,51,232]",1.5693,rectangle
,,,,,,,,,,,,,FF,,,,,,,,1.165,,,,,,,,,,,,,,,,,,,,,,60e544249db8e7a552141a95,60e562ef1b6a9b637eb94bef,2021-07-07_10h26.45.475,Simcolourproject_2stim_asymm_v5,2020.2.10,Win32,60,60e52e7cfedb1dae636df45f,,,,,,,,,503,41,22,1,0,0,response1disk,,6,0,9,1,0,0,rectangle,0,9,1,0,0,0,9,1,0,0,1,72,232,26,1,,,,,,,,
,,,,,,,,,,,,,FF,,,,,,,,1.401,,,,,,,,,,,,,,,,,,,,,,60e544249db8e7a552141a95,60e562ef1b6a9b637eb94bef,2021-07-07_10h26.45.475,Simcolourproject_2stim_asymm_v5,2020.2.10,Win32,60,60e52e7cfedb1dae636df45f,,,,,,,,,280,46,28,1,0,0,response1disk,,6,7,8,1,0,0,rectangle,7,8,1,0,0,7,8,1,0,0,1,73,233,36,1,,,,,,,,
,,,,,,,,,,,,,FF,,,,,,,,1.2335,,,,,,,,,,,,,,,,,,,,,,60e544249db8e7a552141a95,60e562ef1b6a9b637eb94bef,2021-07-07_10h26.45.475,Simcolourproject_2stim_asymm_v5,2020.2.10,Win32,60,60e52e7cfedb1dae636df45f,,,,,,,,,1931,94,45,1,0,0,response1disk,,6,2,6,1,0,0,rectangle,2,6,1,0,0,2,6,1,0,0,1,74,234,155,1,,,,,,,,
,,,,,,,,,,,,,FF,,,,,,,,1.0555,,,,,,,,,,,,,,,,,,,,,,60e544249db8e7a552141a95,60e562ef1b6a9b637eb94bef,2021-07-07_10h26.45.475,Simcolourproject_2stim_asymm_v5,2020.2.10,Win32,60,60e52e7cfedb1dae636df45f,,,,,,,,,1671,35,54,1,0,0,response1disk,,7,11,15,1,0,0,rectangle,11,15,1,0,0,11,15,1,0,0,1,75,235,135,1,,,,,,,,
,,,,,,,,,,,,,FF,,,,,,,,1.0086,,,,,,,,,,,,,,,,,,,,,,60e544249db8e7a552141a95,60e562ef1b6a9b637eb94bef,2021-07-07_10h26.45.475,Simcolourproject_2stim_asymm_v5,2020.2.10,Win32,60,60e52e7cfedb1dae636df45f,,,,,,,,,1558,53,26,1,0,0,response1disk,,6,5,-11,1,0,0,rectangle,5,-11,1,0,0,5,-11,1,0,0,1,76,236,139,1,,,,,,,,
,,,,,,,,,,,,,FF,,,,,,,,2.4352,,,,,,,,,,,,,,,,,,,,,,60e544249db8e7a552141a95,60e562ef1b6a9b637eb94bef,2021-07-07_10h26.45.475,Simcolourproject_2stim_asymm_v5,2020.2.10,Win32,60,60e52e7cfedb1dae636df45f,,,,,,,,,1479,32,37,1,0,0,response1disk,,7,16,8,1,0,0,rectangle,16,8,1,0,0,16,8,1,0,0,1,77,237,116,1,,,,,,,,
,,,,,,,,,,,,,FF,,,,,,,,1.8012,,,,,,,,,,,,,,,,,,,,,,60e544249db8e7a552141a95,60e562ef1b6a9b637eb94bef,2021-07-07_10h26.45.475,Simcolourproject_2stim_asymm_v5,2020.2.10,Win32,60,60e52e7cfedb1dae636df45f,,,,,,,,,207,58,40,1,0,0,response1disk,,6,-5,2,1,0,0,rectangle,-5,2,1,0,0,-5,2,1,0,0,1,78,238,65,1,,,,,,,,
,,,,,,,,,,,,,FF,,,,,,,,1.3362,,,,,,,,,,,,,,,,,,,,,,60e544249db8e7a552141a95,60e562ef1b6a9b637eb94bef,2021-07-07_10h26.45.475,Simcolourproject_2stim_asymm_v5,2020.2.10,Win32,60,60e52e7cfedb1dae636df45f,,,,,,,,,2325,62,-33,1,0,0,response3disk,,5,9,-2,1,0,0,rectangle,9,-2,1,0,0,9,-2,1,0,0,1,79,239,151,1,,,,,,,,
,,,,,,,,,,,,,FF,,,,,,,,1.8524,,,,,,,,,,,,,,,,,,,,,,60e544249db8e7a552141a95,60e562ef1b6a9b637eb94bef,2021-07-07_10h26.45.475,Simcolourproject_2stim_asymm_v5,2020.2.10,Win32,60,60e52e7cfedb1dae636df45f,,,,,,,,,2721,-105,62,1,0,0,response7disk,,1,-17,9,1,0,0,rectangle,-17,9,1,0,0,-17,9,1,0,0,1,80,240,3,1,,,,,,,,
,,,,,,,,,,,,,FF,,,,,,,,2.1336,,,,,,,,,,,,,,,,,,,,,,60e544249db8e7a552141a95,60e562ef1b6a9b637eb94bef,2021-07-07_10h26.45.475,Simcolourproject_2stim_asymm_v5,2020.2.10,Win32,60,60e52e7cfedb1dae636df45f,,,,,,,,,860,77,-33,1,0,0,response3disk,,5,-2,1,1,0,0,rectangle,-2,1,1,0,0,-2,1,1,0,0,1,81,241,33,1,,,,,,,,
,,,,,,,,,,,,,FF,,,,,,,,1.2845,,,,,,,,,,,,,,,,,,,,,,60e544249db8e7a552141a95,60e562ef1b6a9b637eb94bef,2021-07-07_10h26.45.475,Simcolourproject_2stim_asymm_v5,2020.2.10,Win32,60,60e52e7cfedb1dae636df45f,,,,,,,,,547,63,47,1,0,0,response1disk,,6,-5,-1,1,0,0,rectangle,-5,-1,1,0,0,-5,-1,1,0,0,1,82,242,16,1,,,,,,,,
,,,,,,,,,,,,,FF,,,,,,,,0.9208,,,,,,,,,,,,,,,,,,,,,,60e544249db8e7a552141a95,60e562ef1b6a9b637eb94bef,2021-07-07_10h26.45.475,Simcolourproject_2stim_asymm_v5,2020.2.10,Win32,60,60e52e7cfedb1dae636df45f,,,,,,,,,358,83,35,1,0,0,response1disk,,6,20,1,1,0,0,rectangle,20,1,1,0,0,20,1,1,0,0,1,83,243,120,1,,,,,,,,
,,,,,,,,,,,,,FF,,,,,,,,1.6184,,,,,,,,,,,,,,,,,,,,,,60e544249db8e7a552141a95,60e562ef1b6a9b637eb94bef,2021-07-07_10h26.45.475,Simcolourproject_2stim_asymm_v5,2020.2.10,Win32,60,60e52e7cfedb1dae636df45f,,,,,,,,,1121,-66,-43,1,0,0,response5disk,,2,0,5,1,0,0,rectangle,0,5,1,0,0,0,5,1,0,0,1,84,244,80,1,,,,,,,,
,,,,,,,,,,,,,FF,,,,,,,,1.8065,,,,,,,,,,,,,,,,,,,,,,60e544249db8e7a552141a95,60e562ef1b6a9b637eb94bef,2021-07-07_10h26.45.475,Simcolourproject_2stim_asymm_v5,2020.2.10,Win32,60,60e52e7cfedb1dae636df45f,,,,,,,,,906,-89,-47,1,0,0,response5disk,,2,-7,4,1,0,0,rectangle,-7,4,1,0,0,-7,4,1,0,0,1,85,245,31,1,,,,,,,,
,,,,,,,,,,,,,FF,,,,,,,,1.2522,,,,,,,,,,,,,,,,,,,,,,60e544249db8e7a552141a95,60e562ef1b6a9b637eb94bef,2021-07-07_10h26.45.475,Simcolourproject_2stim_asymm_v5,2020.2.10,Win32,60,60e52e7cfedb1dae636df45f,,,,,,,,,436,-70,44,1,0,0,response7disk,,1,29,2,1,0,0,rectangle,29,2,1,0,0,29,2,1,0,0,1,86,246,44,1,,,,,,,,
,,,,,,,,,,,,,FF,,,,,,,,1.1866,,,,,,,,,,,,,,,,,,,,,,60e544249db8e7a552141a95,60e562ef1b6a9b637eb94bef,2021-07-07_10h26.45.475,Simcolourproject_2stim_asymm_v5,2020.2.10,Win32,60,60e52e7cfedb1dae636df45f,,,,,,,,,730,-80,28,1,0,0,response7disk,,1,-26,12,1,0,0,rectangle,61,49,1,0,0,-6,-12,1,0,0,1,87,247,156,1,,response1disk_3,TRUE,6,6,"[52,28,162,92,160,188,188,300,250,171,217,83,32,248,200,187,63,109,51,232]",2.1198,rectangle
,,,,,,,,,,,,,FF,,,,,,,,0.9999,,,,,,,,,,,,,,,,,,,,,,60e544249db8e7a552141a95,60e562ef1b6a9b637eb94bef,2021-07-07_10h26.45.475,Simcolourproject_2stim_asymm_v5,2020.2.10,Win32,60,60e52e7cfedb1dae636df45f,,,,,,,,,2697,-34,-30,1,0,0,response5disk,,2,-15,-13,1,0,0,rectangle,-15,-13,1,0,0,-15,-13,1,0,0,1,88,248,144,1,,,,,,,,
,,,,,,,,,,,,,FF,,,,,,,,1.2188,,,,,,,,,,,,,,,,,,,,,,60e544249db8e7a552141a95,60e562ef1b6a9b637eb94bef,2021-07-07_10h26.45.475,Simcolourproject_2stim_asymm_v5,2020.2.10,Win32,60,60e52e7cfedb1dae636df45f,,,,,,,,,701,-55,-34,1,0,0,response5disk,,2,3,11,1,0,0,rectangle,29,-48,1,0,0,11,-3,1,0,0,1,89,249,68,1,,response3disk_3,TRUE,4,4,"[52,28,162,92,160,188,188,300,250,171,217,83,32,248,200,187,63,109,51,232]",1.5181,rectangle
,,,,,,,,,,,,,FF,,,,,,,,2.9377,,,,,,,,,,,,,,,,,,,,,,60e544249db8e7a552141a95,60e562ef1b6a9b637eb94bef,2021-07-07_10h26.45.475,Simcolourproject_2stim_asymm_v5,2020.2.10,Win32,60,60e52e7cfedb1dae636df45f,,,,,,,,,2195,84,-60,1,0,0,response3disk,,5,4,-1,1,0,0,rectangle,4,-1,1,0,0,4,-1,1,0,0,1,90,250,34,1,,,,,,,,
,,,,,,,,,,,,,FF,,,,,,,,1.0686,,,,,,,,,,,,,,,,,,,,,,60e544249db8e7a552141a95,60e562ef1b6a9b637eb94bef,2021-07-07_10h26.45.475,Simcolourproject_2stim_asymm_v5,2020.2.10,Win32,60,60e52e7cfedb1dae636df45f,,,,,,,,,3690,-45,-29,1,0,0,response5disk,,2,1,7,1,0,0,rectangle,1,7,1,0,0,1,7,1,0,0,1,91,251,96,1,,,,,,,,
,,,,,,,,,,,,,FF,,,,,,,,1.1223,,,,,,,,,,,,,,,,,,,,,,60e544249db8e7a552141a95,60e562ef1b6a9b637eb94bef,2021-07-07_10h26.45.475,Simcolourproject_2stim_asymm_v5,2020.2.10,Win32,60,60e52e7cfedb1dae636df45f,,,,,,,,,1660,-56,23,1,0,0,response7disk,,1,-27,0,1,0,0,rectangle,-27,0,1,0,0,-27,0,1,0,0,1,92,252,127,1,,,,,,,,
,,,,,,,,,,,,,FF,,,,,,,,1.3188,,,,,,,,,,,,,,,,,,,,,,60e544249db8e7a552141a95,60e562ef1b6a9b637eb94bef,2021-07-07_10h26.45.475,Simcolourproject_2stim_asymm_v5,2020.2.10,Win32,60,60e52e7cfedb1dae636df45f,,,,,,,,,3731,59,80,1,0,0,response1disk,,7,14,-5,1,0,0,rectangle,14,-5,1,0,0,14,-5,1,0,0,1,93,253,81,1,,,,,,,,
,,,,,,,,,,,,,FF,,,,,,,,1.3357,,,,,,,,,,,,,,,,,,,,,,60e544249db8e7a552141a95,60e562ef1b6a9b637eb94bef,2021-07-07_10h26.45.475,Simcolourproject_2stim_asymm_v5,2020.2.10,Win32,60,60e52e7cfedb1dae636df45f,,,,,,,,,817,-95,43,1,0,0,response7disk,,1,-5,2,1,0,0,rectangle,-5,2,1,0,0,-5,2,1,0,0,1,94,254,56,1,,,,,,,,
,,,,,,,,,,,,,FF,,,,,,,,0.9864,,,,,,,,,,,,,,,,,,,,,,60e544249db8e7a552141a95,60e562ef1b6a9b637eb94bef,2021-07-07_10h26.45.475,Simcolourproject_2stim_asymm_v5,2020.2.10,Win32,60,60e52e7cfedb1dae636df45f,,,,,,,,,2364,-55,44,1,0,0,response7disk,,1,-7,-3,1,0,0,rectangle,-7,-3,1,0,0,-7,-3,1,0,0,1,95,255,39,1,,,,,,,,
,,,,,,,,,,,,,FF,,,,,,,,1.2037,,,,,,,,,,,,,,,,,,,,,,60e544249db8e7a552141a95,60e562ef1b6a9b637eb94bef,2021-07-07_10h26.45.475,Simcolourproject_2stim_asymm_v5,2020.2.10,Win32,60,60e52e7cfedb1dae636df45f,,,,,,,,,3836,34,62,1,0,0,response1disk,,7,-14,-5,1,0,0,rectangle,-14,-5,1,0,0,-14,-5,1,0,0,1,96,256,154,1,,,,,,,,
,,,,,,,,,,,,,FF,,,,,,,,1.1212,,,,,,,,,,,,,,,,,,,,,,60e544249db8e7a552141a95,60e562ef1b6a9b637eb94bef,2021-07-07_10h26.45.475,Simcolourproject_2stim_asymm_v5,2020.2.10,Win32,60,60e52e7cfedb1dae636df45f,,,,,,,,,941,29,53,1,0,0,response1disk,,7,1,-11,1,0,0,rectangle,1,-11,1,0,0,1,-11,1,0,0,1,97,257,145,1,,,,,,,,
,,,,,,,,,,,,,FF,,,,,,,,1.3342,,,,,,,,,,,,,,,,,,,,,,60e544249db8e7a552141a95,60e562ef1b6a9b637eb94bef,2021-07-07_10h26.45.475,Simcolourproject_2stim_asymm_v5,2020.2.10,Win32,60,60e52e7cfedb1dae636df45f,,,,,,,,,786,30,53,1,0,0,response1disk,,7,8,10,1,0,0,rectangle,8,10,1,0,0,8,10,1,0,0,1,98,258,83,1,,,,,,,,
,,,,,,,,,,,,,FF,,,,,,,,1.2887,,,,,,,,,,,,,,,,,,,,,,60e544249db8e7a552141a95,60e562ef1b6a9b637eb94bef,2021-07-07_10h26.45.475,Simcolourproject_2stim_asymm_v5,2020.2.10,Win32,60,60e52e7cfedb1dae636df45f,,,,,,,,,3868,27,45,1,0,0,response1disk,,7,14,3,1,0,0,rectangle,14,3,1,0,0,14,3,1,0,0,1,99,259,60,1,,,,,,,,
,,,,,,,,,,,,,FF,,,,,,,,1.3527,,,,,,,,,,,,,,,,,,,,,,60e544249db8e7a552141a95,60e562ef1b6a9b637eb94bef,2021-07-07_10h26.45.475,Simcolourproject_2stim_asymm_v5,2020.2.10,Win32,60,60e52e7cfedb1dae636df45f,,,,,,,,,1151,-62,26,1,0,0,response7disk,,1,-17,-1,1,0,0,rectangle,-17,-1,1,0,0,-17,-1,1,0,0,1,100,260,61,1,,,,,,,,
,,,,,,,,,,,,,FF,,,,,,,,1.0911,,,,,,,,,,,,,,,,,,,,,,60e544249db8e7a552141a95,60e562ef1b6a9b637eb94bef,2021-07-07_10h26.45.475,Simcolourproject_2stim_asymm_v5,2020.2.10,Win32,60,60e52e7cfedb1dae636df45f,,,,,,,,,3467,37,57,1,0,0,response1disk,,7,-2,-1,1,0,0,rectangle,-2,-1,1,0,0,-2,-1,1,0,0,1,101,261,37,1,,,,,,,,
,,,,,,,,,,,,,FF,,,,,,,,1.6681,,,,,,,,,,,,,,,,,,,,,,60e544249db8e7a552141a95,60e562ef1b6a9b637eb94bef,2021-07-07_10h26.45.475,Simcolourproject_2stim_asymm_v5,2020.2.10,Win32,60,60e52e7cfedb1dae636df45f,,,,,,,,,577,78,-52,1,0,0,response3disk,,5,3,-13,1,0,0,rectangle,3,-13,1,0,0,3,-13,1,0,0,1,102,262,99,1,,,,,,,,
,,,,,,,,,,,,,FF,,,,,,,,1.1701,,,,,,,,,,,,,,,,,,,,,,60e544249db8e7a552141a95,60e562ef1b6a9b637eb94bef,2021-07-07_10h26.45.475,Simcolourproject_2stim_asymm_v5,2020.2.10,Win32,60,60e52e7cfedb1dae636df45f,,,,,,,,,1758,-56,-16,1,0,0,response5disk,,2,-25,-1,1,0,0,rectangle,-25,-1,1,0,0,-25,-1,1,0,0,1,103,263,57,1,,,,,,,,
,,,,,,,,,,,,,FF,,,,,,,,1.1522,,,,,,,,,,,,,,,,,,,,,,60e544249db8e7a552141a95,60e562ef1b6a9b637eb94bef,2021-07-07_10h26.45.475,Simcolourproject_2stim_asymm_v5,2020.2.10,Win32,60,60e52e7cfedb1dae636df45f,,,,,,,,,3537,41,46,1,0,0,response1disk,,7,8,2,1,0,0,rectangle,8,2,1,0,0,8,2,1,0,0,1,104,264,158,1,,,,,,,,
,,,,,,,,,,,,,FF,,,,,,,,1.0148,,,,,,,,,,,,,,,,,,,,,,60e544249db8e7a552141a95,60e562ef1b6a9b637eb94bef,2021-07-07_10h26.45.475,Simcolourproject_2stim_asymm_v5,2020.2.10,Win32,60,60e52e7cfedb1dae636df45f,,,,,,,,,1067,53,72,1,0,0,response1disk,,7,12,5,1,0,0,rectangle,12,5,1,0,0,12,5,1,0,0,1,105,265,125,1,,,,,,,,
,,,,,,,,,,,,,FF,,,,,,,,0.9875,,,,,,,,,,,,,,,,,,,,,,60e544249db8e7a552141a95,60e562ef1b6a9b637eb94bef,2021-07-07_10h26.45.475,Simcolourproject_2stim_asymm_v5,2020.2.10,Win32,60,60e52e7cfedb1dae636df45f,,,,,,,,,615,52,88,1,0,0,response1disk,,7,-3,-7,1,0,0,rectangle,-3,-7,1,0,0,-3,-7,1,0,0,1,106,266,129,1,,,,,,,,
,,,,,,,,,,,,,FF,,,,,,,,0.8864,,,,,,,,,,,,,,,,,,,,,,60e544249db8e7a552141a95,60e562ef1b6a9b637eb94bef,2021-07-07_10h26.45.475,Simcolourproject_2stim_asymm_v5,2020.2.10,Win32,60,60e52e7cfedb1dae636df45f,,,,,,,,,3527,33,73,1,0,0,response1disk,,7,-9,1,1,0,0,rectangle,-9,1,1,0,0,-9,1,1,0,0,1,107,267,123,1,,,,,,,,
,,,,,,,,,,,,,FF,,,,,,,,1.3358,,,,,,,,,,,,,,,,,,,,,,60e544249db8e7a552141a95,60e562ef1b6a9b637eb94bef,2021-07-07_10h26.45.475,Simcolourproject_2stim_asymm_v5,2020.2.10,Win32,60,60e52e7cfedb1dae636df45f,,,,,,,,,1045,-50,-23,1,0,0,response5disk,,2,2,4,1,0,0,rectangle,2,4,1,0,0,2,4,1,0,0,1,108,268,121,1,,,,,,,,
,,,,,,,,,,,,,FF,,,,,,,,1.0982,,,,,,,,,,,,,,,,,,,,,,60e544249db8e7a552141a95,60e562ef1b6a9b637eb94bef,2021-07-07_10h26.45.475,Simcolourproject_2stim_asymm_v5,2020.2.10,Win32,60,60e52e7cfedb1dae636df45f,,,,,,,,,3648,25,33,1,0,0,response1disk,,7,2,1,1,0,0,rectangle,2,1,1,0,0,2,1,1,0,0,1,109,269,55,1,,,,,,,,
,,,,,,,,,,,,,FF,,,,,,,,1.1857,,,,,,,,,,,,,,,,,,,,,,60e544249db8e7a552141a95,60e562ef1b6a9b637eb94bef,2021-07-07_10h26.45.475,Simcolourproject_2stim_asymm_v5,2020.2.10,Win32,60,60e52e7cfedb1dae636df45f,,,,,,,,,375,-57,-47,1,0,0,response5disk,,2,4,-1,1,0,0,rectangle,4,-1,1,0,0,4,-1,1,0,0,1,110,270,51,1,,,,,,,,
,,,,,,,,,,,,,FF,,,,,,,,1.7522,,,,,,,,,,,,,,,,,,,,,,60e544249db8e7a552141a95,60e562ef1b6a9b637eb94bef,2021-07-07_10h26.45.475,Simcolourproject_2stim_asymm_v5,2020.2.10,Win32,60,60e52e7cfedb1dae636df45f,,,,,,,,,643,-16,-51,1,0,0,response5disk,,3,-2,2,1,0,0,rectangle,-2,2,1,0,0,-2,2,1,0,0,1,111,271,1,1,,,,,,,,
,,,,,,,,,,,,,FF,,,,,,,,1.0838,,,,,,,,,,,,,,,,,,,,,,60e544249db8e7a552141a95,60e562ef1b6a9b637eb94bef,2021-07-07_10h26.45.475,Simcolourproject_2stim_asymm_v5,2020.2.10,Win32,60,60e52e7cfedb1dae636df45f,,,,,,,,,2546,-46,25,1,0,0,response7disk,,1,6,-3,1,0,0,rectangle,6,-3,1,0,0,6,-3,1,0,0,1,112,272,124,1,,,,,,,,
,,,,,,,,,,,,,FF,,,,,,,,1.2844,,,,,,,,,,,,,,,,,,,,,,60e544249db8e7a552141a95,60e562ef1b6a9b637eb94bef,2021-07-07_10h26.45.475,Simcolourproject_2stim_asymm_v5,2020.2.10,Win32,60,60e52e7cfedb1dae636df45f,,,,,,,,,2951,-75,-44,1,0,0,response5disk,,2,-4,15,1,0,0,rectangle,-4,15,1,0,0,-4,15,1,0,0,1,113,273,115,1,,,,,,,,
,,,,,,,,,,,,,FF,,,,,,,,0.8835,,,,,,,,,,,,,,,,,,,,,,60e544249db8e7a552141a95,60e562ef1b6a9b637eb94bef,2021-07-07_10h26.45.475,Simcolourproject_2stim_asymm_v5,2020.2.10,Win32,60,60e52e7cfedb1dae636df45f,,,,,,,,,2044,-77,-33,1,0,0,response5disk,,2,-27,-2,1,0,0,rectangle,-27,-2,1,0,0,-27,-2,1,0,0,1,114,274,9,1,,,,,,,,
,,,,,,,,,,,,,FF,,,,,,,,2.0883,,,,,,,,,,,,,,,,,,,,,,60e544249db8e7a552141a95,60e562ef1b6a9b637eb94bef,2021-07-07_10h26.45.475,Simcolourproject_2stim_asymm_v5,2020.2.10,Win32,60,60e52e7cfedb1dae636df45f,,,,,,,,,742,32,-63,1,0,0,response3disk,,4,7,4,1,0,0,rectangle,7,4,1,0,0,7,4,1,0,0,1,115,275,48,1,,,,,,,,
,,,,,,,,,,,,,FF,,,,,,,,1.2681,,,,,,,,,,,,,,,,,,,,,,60e544249db8e7a552141a95,60e562ef1b6a9b637eb94bef,2021-07-07_10h26.45.475,Simcolourproject_2stim_asymm_v5,2020.2.10,Win32,60,60e52e7cfedb1dae636df45f,,,,,,,,,3700,64,-27,1,0,0,response3disk,,5,15,10,1,0,0,rectangle,15,10,1,0,0,15,10,1,0,0,1,116,276,49,1,,,,,,,,
,,,,,,,,,,,,,FF,,,,,,,,0.9013,,,,,,,,,,,,,,,,,,,,,,60e544249db8e7a552141a95,60e562ef1b6a9b637eb94bef,2021-07-07_10h26.45.475,Simcolourproject_2stim_asymm_v5,2020.2.10,Win32,60,60e52e7cfedb1dae636df45f,,,,,,,,,2738,89,-31,1,0,0,response3disk,,5,20,-2,1,0,0,rectangle,20,-2,1,0,0,20,-2,1,0,0,1,117,277,67,1,,,,,,,,
,,,,,,,,,,,,,FF,,,,,,,,1.6891,,,,,,,,,,,,,,,,,,,,,,60e544249db8e7a552141a95,60e562ef1b6a9b637eb94bef,2021-07-07_10h26.45.475,Simcolourproject_2stim_asymm_v5,2020.2.10,Win32,60,60e52e7cfedb1dae636df45f,,,,,,,,,815,-45,-64,1,0,0,response5disk,,3,-12,-15,1,0,0,rectangle,-12,-15,1,0,0,-12,-15,1,0,0,1,118,278,5,1,,,,,,,,
,,,,,,,,,,,,,FF,,,,,,,,1.133,,,,,,,,,,,,,,,,,,,,,,60e544249db8e7a552141a95,60e562ef1b6a9b637eb94bef,2021-07-07_10h26.45.475,Simcolourproject_2stim_asymm_v5,2020.2.10,Win32,60,60e52e7cfedb1dae636df45f,,,,,,,,,1331,58,30,1,0,0,response1disk,,6,-27,-14,1,0,0,rectangle,-27,-14,1,0,0,-27,-14,1,0,0,1,119,279,6,1,,,,,,,,
,,,,,,,,,,,,,FF,,,,,,,,3.2018,,,,,,,,,,,,,,,,,,,,,,60e544249db8e7a552141a95,60e562ef1b6a9b637eb94bef,2021-07-07_10h26.45.475,Simcolourproject_2stim_asymm_v5,2020.2.10,Win32,60,60e52e7cfedb1dae636df45f,,,,,,,,,1784,49,-29,1,0,0,response3disk,,5,15,-3,1,0,0,rectangle,15,-3,1,0,0,15,-3,1,0,0,1,120,280,29,1,,,,,,,,
,,,,,,,,,,,,,FF,,,,,,,,1.5517,,,,,,,,,,,,,,,,,,,,,,60e544249db8e7a552141a95,60e562ef1b6a9b637eb94bef,2021-07-07_10h26.45.475,Simcolourproject_2stim_asymm_v5,2020.2.10,Win32,60,60e52e7cfedb1dae636df45f,,,,,,,,,4258,55,45,1,0,0,response1disk,,6,-3,-3,1,0,0,rectangle,-3,-3,1,0,0,-3,-3,1,0,0,1,121,281,100,1,,,,,,,,
,,,,,,,,,,,,,FF,,,,,,,,1.6169,,,,,,,,,,,,,,,,,,,,,,60e544249db8e7a552141a95,60e562ef1b6a9b637eb94bef,2021-07-07_10h26.45.475,Simcolourproject_2stim_asymm_v5,2020.2.10,Win32,60,60e52e7cfedb1dae636df45f,,,,,,,,,80,32,50,1,0,0,response1disk,,7,5,10,1,0,0,rectangle,5,10,1,0,0,5,10,1,0,0,1,122,282,47,1,,,,,,,,
,,,,,,,,,,,,,FF,,,,,,,,1.0506,,,,,,,,,,,,,,,,,,,,,,60e544249db8e7a552141a95,60e562ef1b6a9b637eb94bef,2021-07-07_10h26.45.475,Simcolourproject_2stim_asymm_v5,2020.2.10,Win32,60,60e52e7cfedb1dae636df45f,,,,,,,,,400,81,38,1,0,0,response1disk,,6,4,3,1,0,0,rectangle,4,3,1,0,0,4,3,1,0,0,1,123,283,103,1,,,,,,,,
,,,,,,,,,,,,,FF,,,,,,,,1.2554,,,,,,,,,,,,,,,,,,,,,,60e544249db8e7a552141a95,60e562ef1b6a9b637eb94bef,2021-07-07_10h26.45.475,Simcolourproject_2stim_asymm_v5,2020.2.10,Win32,60,60e52e7cfedb1dae636df45f,,,,,,,,,1088,27,47,1,0,0,response1disk,,7,12,10,1,0,0,rectangle,12,10,1,0,0,12,10,1,0,0,1,124,284,107,1,,,,,,,,
,,,,,,,,,,,,,FF,,,,,,,,0.9359,,,,,,,,,,,,,,,,,,,,,,60e544249db8e7a552141a95,60e562ef1b6a9b637eb94bef,2021-07-07_10h26.45.475,Simcolourproject_2stim_asymm_v5,2020.2.10,Win32,60,60e52e7cfedb1dae636df45f,,,,,,,,,3256,44,66,1,0,0,response1disk,,7,0,1,1,0,0,rectangle,0,1,1,0,0,0,1,1,0,0,1,125,285,69,1,,,,,,,,
,,,,,,,,,,,,,FF,,,,,,,,1.5695,,,,,,,,,,,,,,,,,,,,,,60e544249db8e7a552141a95,60e562ef1b6a9b637eb94bef,2021-07-07_10h26.45.475,Simcolourproject_2stim_asymm_v5,2020.2.10,Win32,60,60e52e7cfedb1dae636df45f,,,,,,,,,4155,31,-57,1,0,0,response3disk,,4,8,-2,1,0,0,rectangle,8,-2,1,0,0,8,-2,1,0,0,1,126,286,64,1,,,,,,,,
,,,,,,,,,,,,,FF,,,,,,,,1.1008,,,,,,,,,,,,,,,,,,,,,,60e544249db8e7a552141a95,60e562ef1b6a9b637eb94bef,2021-07-07_10h26.45.475,Simcolourproject_2stim_asymm_v5,2020.2.10,Win32,60,60e52e7cfedb1dae636df45f,,,,,,,,,695,-42,-65,1,0,0,response5disk,,3,-1,1,1,0,0,rectangle,-1,1,1,0,0,-1,1,1,0,0,1,127,287,11,1,,,,,,,,
,,,,,,,,,,,,,FF,,,,,,,,0.9836,,,,,,,,,,,,,,,,,,,,,,60e544249db8e7a552141a95,60e562ef1b6a9b637eb94bef,2021-07-07_10h26.45.475,Simcolourproject_2stim_asymm_v5,2020.2.10,Win32,60,60e52e7cfedb1dae636df45f,,,,,,,,,3096,-18,34,1,0,0,response7disk,,0,-1,14,1,0,0,rectangle,-1,14,1,0,0,-1,14,1,0,0,1,128,288,59,1,,,,,,,,
,,,,,,,,,,,,,FF,,,,,,,,1.0709,,,,,,,,,,,,,,,,,,,,,,60e544249db8e7a552141a95,60e562ef1b6a9b637eb94bef,2021-07-07_10h26.45.475,Simcolourproject_2stim_asymm_v5,2020.2.10,Win32,60,60e52e7cfedb1dae636df45f,,,,,,,,,3758,60,-32,1,0,0,response3disk,,5,18,-10,1,0,0,rectangle,18,-10,1,0,0,18,-10,1,0,0,1,129,289,8,1,,,,,,,,
,,,,,,,,,,,,,FF,,,,,,,,1.1345,,,,,,,,,,,,,,,,,,,,,,60e544249db8e7a552141a95,60e562ef1b6a9b637eb94bef,2021-07-07_10h26.45.475,Simcolourproject_2stim_asymm_v5,2020.2.10,Win32,60,60e52e7cfedb1dae636df45f,,,,,,,,,2945,-47,22,1,0,0,response7disk,,1,-11,1,1,0,0,rectangle,-11,1,1,0,0,-11,1,1,0,0,1,130,290,118,1,,,,,,,,
,,,,,,,,,,,,,FF,,,,,,,,0.7993,,,,,,,,,,,,,,,,,,,,,,60e544249db8e7a552141a95,60e562ef1b6a9b637eb94bef,2021-07-07_10h26.45.475,Simcolourproject_2stim_asymm_v5,2020.2.10,Win32,60,60e52e7cfedb1dae636df45f,,,,,,,,,3381,-61,96,1,0,0,response7disk,,0,0,-7,1,0,0,rectangle,0,-7,1,0,0,0,-7,1,0,0,1,131,291,102,1,,,,,,,,
,,,,,,,,,,,,,FF,,,,,,,,1.9018,,,,,,,,,,,,,,,,,,,,,,60e544249db8e7a552141a95,60e562ef1b6a9b637eb94bef,2021-07-07_10h26.45.475,Simcolourproject_2stim_asymm_v5,2020.2.10,Win32,60,60e52e7cfedb1dae636df45f,,,,,,,,,957,-69,-26,1,0,0,response5disk,,2,-2,8,1,0,0,rectangle,-2,8,1,0,0,-2,8,1,0,0,1,132,292,117,1,,,,,,,,
,,,,,,,,,,,,,FF,,,,,,,,2.0674,,,,,,,,,,,,,,,,,,,,,,60e544249db8e7a552141a95,60e562ef1b6a9b637eb94bef,2021-07-07_10h26.45.475,Simcolourproject_2stim_asymm_v5,2020.2.10,Win32,60,60e52e7cfedb1dae636df45f,,,,,,,,,3883,-25,96,1,0,0,response7disk,,0,9,10,1,0,0,rectangle,9,10,1,0,0,9,10,1,0,0,1,133,293,122,1,,,,,,,,
,,,,,,,,,,,,,FF,,,,,,,,1.5849,,,,,,,,,,,,,,,,,,,,,,60e544249db8e7a552141a95,60e562ef1b6a9b637eb94bef,2021-07-07_10h26.45.475,Simcolourproject_2stim_asymm_v5,2020.2.10,Win32,60,60e52e7cfedb1dae636df45f,,,,,,,,,156,52,22,1,0,0,response1disk,,6,17,4,1,0,0,rectangle,17,4,1,0,0,17,4,1,0,0,1,134,294,131,1,,,,,,,,
,,,,,,,,,,,,,FF,,,,,,,,1.5661,,,,,,,,,,,,,,,,,,,,,,60e544249db8e7a552141a95,60e562ef1b6a9b637eb94bef,2021-07-07_10h26.45.475,Simcolourproject_2stim_asymm_v5,2020.2.10,Win32,60,60e52e7cfedb1dae636df45f,,,,,,,,,2960,54,-69,1,0,0,response3disk,,4,-1,-13,1,0,0,rectangle,-1,-13,1,0,0,-1,-13,1,0,0,1,135,295,84,1,,,,,,,,
,,,,,,,,,,,,,FF,,,,,,,,1.9022,,,,,,,,,,,,,,,,,,,,,,60e544249db8e7a552141a95,60e562ef1b6a9b637eb94bef,2021-07-07_10h26.45.475,Simcolourproject_2stim_asymm_v5,2020.2.10,Win32,60,60e52e7cfedb1dae636df45f,,,,,,,,,2215,32,-56,1,0,0,response3disk,,4,15,-11,1,0,0,rectangle,15,-11,1,0,0,15,-11,1,0,0,1,136,296,95,1,,,,,,,,
,,,,,,,,,,,,,FF,,,,,,,,1.4669,,,,,,,,,,,,,,,,,,,,,,60e544249db8e7a552141a95,60e562ef1b6a9b637eb94bef,2021-07-07_10h26.45.475,Simcolourproject_2stim_asymm_v5,2020.2.10,Win32,60,60e52e7cfedb1dae636df45f,,,,,,,,,771,-38,-72,1,0,0,response5disk,,3,5,-1,1,0,0,rectangle,5,-1,1,0,0,5,-1,1,0,0,1,137,297,138,1,,,,,,,,
,,,,,,,,,,,,,FF,,,,,,,,1.1169,,,,,,,,,,,,,,,,,,,,,,60e544249db8e7a552141a95,60e562ef1b6a9b637eb94bef,2021-07-07_10h26.45.475,Simcolourproject_2stim_asymm_v5,2020.2.10,Win32,60,60e52e7cfedb1dae636df45f,,,,,,,,,1065,-79,47,1,0,0,response7disk,,1,17,1,1,0,0,rectangle,17,1,1,0,0,17,1,1,0,0,1,138,298,22,1,,,,,,,,
,,,,,,,,,,,,,FF,,,,,,,,1.1013,,,,,,,,,,,,,,,,,,,,,,60e544249db8e7a552141a95,60e562ef1b6a9b637eb94bef,2021-07-07_10h26.45.475,Simcolourproject_2stim_asymm_v5,2020.2.10,Win32,60,60e52e7cfedb1dae636df45f,,,,,,,,,2576,52,-20,1,0,0,response3disk,,5,6,7,1,0,0,rectangle,100,42,1,0,0,-11,-5,1,0,0,1,139,299,70,1,,response1disk_3,TRUE,6,6,"[52,28,162,92,160,188,188,300,250,171,217,83,32,248,200,187,63,109,51,232]",1.9511,rectangle
,,,,,,,,,,,,,FF,,,,,,,,2.2192,,,,,,,,,,,,,,,,,,,,,,60e544249db8e7a552141a95,60e562ef1b6a9b637eb94bef,2021-07-07_10h26.45.475,Simcolourproject_2stim_asymm_v5,2020.2.10,Win32,60,60e52e7cfedb1dae636df45f,,,,,,,,,2450,91,-33,1,0,0,response3disk,,5,27,-10,1,0,0,rectangle,27,-10,1,0,0,27,-10,1,0,0,1,140,300,105,1,,,,,,,,
,,,,,,,,,,,,,FF,,,,,,,,1.8756,,,,,,,,,,,,,,,,,,,,,,60e544249db8e7a552141a95,60e562ef1b6a9b637eb94bef,2021-07-07_10h26.45.475,Simcolourproject_2stim_asymm_v5,2020.2.10,Win32,60,60e52e7cfedb1dae636df45f,,,,,,,,,1732,-36,-84,1,0,0,response5disk,,3,-1,-13,1,0,0,rectangle,-1,-13,1,0,0,-1,-13,1,0,0,1,141,301,90,1,,,,,,,,
,,,,,,,,,,,,,FF,,,,,,,,1.3036,,,,,,,,,,,,,,,,,,,,,,60e544249db8e7a552141a95,60e562ef1b6a9b637eb94bef,2021-07-07_10h26.45.475,Simcolourproject_2stim_asymm_v5,2020.2.10,Win32,60,60e52e7cfedb1dae636df45f,,,,,,,,,1773,43,-51,1,0,0,response3disk,,4,8,-12,1,0,0,rectangle,8,-12,1,0,0,8,-12,1,0,0,1,142,302,85,1,,,,,,,,
